"","转换类型","respNum2word.corr","respNum2word.rt","congruency","AffValue","AffBlocks.thisN","AffBlock1.thisN","respFlanker.corr","respFlanker.rt","respAffWord.corr","respAffWord.rt","thisWord","SubIndex"
"1",1,1,1396.46210001956,NA,NA,NA,NA,NA,NA,NA,NA,"",0
"2",2,1,893.329800004722,NA,NA,NA,NA,NA,NA,NA,NA,"",0
"3",1,1,1244.81230000674,NA,NA,NA,NA,NA,NA,NA,NA,"",0
"4",2,1,623.64490001346,NA,NA,NA,NA,NA,NA,NA,NA,"",0
"5",1,1,1133.90740001341,NA,NA,NA,NA,NA,NA,NA,NA,"",0
"6",2,1,752.151400010916,NA,NA,NA,NA,NA,NA,NA,NA,"",0
"7",1,1,1297.7134000248,NA,NA,NA,NA,NA,NA,NA,NA,"",0
"8",2,1,841.920400009258,NA,NA,NA,NA,NA,NA,NA,NA,"",0
"9",1,1,1275.40590001445,NA,NA,NA,NA,NA,NA,NA,NA,"",0
"10",2,1,776.175200022408,NA,NA,NA,NA,NA,NA,NA,NA,"",0
"11",1,1,4336.64740002132,NA,NA,NA,NA,NA,NA,NA,NA,"",0
"12",2,1,961.270300016622,NA,NA,NA,NA,NA,NA,NA,NA,"",0
"13",1,1,846.688600009657,NA,NA,NA,NA,NA,NA,NA,NA,"",0
"14",2,1,560.218300000997,NA,NA,NA,NA,NA,NA,NA,NA,"",0
"15",1,1,582.006700002239,NA,NA,NA,NA,NA,NA,NA,NA,"",0
"16",2,1,737.978800010751,NA,NA,NA,NA,NA,NA,NA,NA,"",0
"17",1,1,827.964000010979,NA,NA,NA,NA,NA,NA,NA,NA,"",0
"18",2,1,662.621199997375,NA,NA,NA,NA,NA,NA,NA,NA,"",0
"19",1,1,683.485100016696,NA,NA,NA,NA,NA,NA,NA,NA,"",0
"20",2,1,1660.64110001025,NA,NA,NA,NA,NA,NA,NA,NA,"",0
"21",1,1,1058.47130001348,NA,NA,NA,NA,NA,NA,NA,NA,"",0
"22",2,1,555.427600018447,NA,NA,NA,NA,NA,NA,NA,NA,"",0
"23",1,0,760.544200005825,NA,NA,NA,NA,NA,NA,NA,NA,"",0
"24",2,1,1966.49820001039,NA,NA,NA,NA,NA,NA,NA,NA,"",0
"25",1,1,1183.58320000698,NA,NA,NA,NA,NA,NA,NA,NA,"",0
"26",2,1,575.684200011892,NA,NA,NA,NA,NA,NA,NA,NA,"",0
"27",1,1,2435.83040000522,NA,NA,NA,NA,NA,NA,NA,NA,"",0
"28",2,1,999.055899999803,NA,NA,NA,NA,NA,NA,NA,NA,"",0
"29",1,1,791.168100011419,NA,NA,NA,NA,NA,NA,NA,NA,"",0
"30",2,1,803.595900011715,NA,NA,NA,NA,NA,NA,NA,NA,"",0
"31",1,1,758.297400010633,NA,NA,NA,NA,NA,NA,NA,NA,"",0
"32",2,1,1811.77690000914,NA,NA,NA,NA,NA,NA,NA,NA,"",0
"33",1,1,988.102000017534,NA,NA,NA,NA,NA,NA,NA,NA,"",0
"34",2,1,1379.22820000676,NA,NA,NA,NA,NA,NA,NA,NA,"",0
"35",1,1,3388.48980002513,NA,NA,NA,NA,NA,NA,NA,NA,"",0
"36",2,1,578.380100007053,NA,NA,NA,NA,NA,NA,NA,NA,"",0
"37",1,1,1098.74450000643,NA,NA,NA,NA,NA,NA,NA,NA,"",0
"38",2,1,566.811500000767,NA,NA,NA,NA,NA,NA,NA,NA,"",0
"39",1,0,767.34150001721,NA,NA,NA,NA,NA,NA,NA,NA,"",0
"40",2,1,924.360700009856,NA,NA,NA,NA,NA,NA,NA,NA,"",0
"41",1,1,1026.63570002187,NA,NA,NA,NA,NA,NA,NA,NA,"",0
"42",2,1,600.891500012949,NA,NA,NA,NA,NA,NA,NA,NA,"",0
"43",1,1,2436.99680001009,NA,NA,NA,NA,NA,NA,NA,NA,"",0
"44",2,1,503.241600017645,NA,NA,NA,NA,NA,NA,NA,NA,"",0
"45",1,1,902.304100003676,NA,NA,NA,NA,NA,NA,NA,NA,"",0
"46",2,1,766.528100008145,NA,NA,NA,NA,NA,NA,NA,NA,"",0
"47",1,1,2414.89980001643,NA,NA,NA,NA,NA,NA,NA,NA,"",0
"48",2,1,459.436600009212,NA,NA,NA,NA,NA,NA,NA,NA,"",0
"49",1,1,649.51510001265,NA,NA,NA,NA,NA,NA,NA,NA,"",0
"50",2,1,582.162800012156,NA,NA,NA,NA,NA,NA,NA,NA,"",0
"51",1,1,3658.82370001054,NA,NA,NA,NA,NA,NA,NA,NA,"",0
"52",2,1,549.592900002608,NA,NA,NA,NA,NA,NA,NA,NA,"",0
"53",1,1,588.013000000501,NA,NA,NA,NA,NA,NA,NA,NA,"",0
"54",2,1,655.394500005059,NA,NA,NA,NA,NA,NA,NA,NA,"",0
"55",1,1,1172.89590000291,NA,NA,NA,NA,NA,NA,NA,NA,"",0
"56",2,1,597.812500011059,NA,NA,NA,NA,NA,NA,NA,NA,"",0
"57",1,1,453.120100006345,NA,NA,NA,NA,NA,NA,NA,NA,"",0
"58",2,1,1486.80250000325,NA,NA,NA,NA,NA,NA,NA,NA,"",0
"59",1,1,3179.20100000629,NA,NA,NA,NA,NA,NA,NA,NA,"",0
"60",2,1,872.571800005971,NA,NA,NA,NA,NA,NA,NA,NA,"",0
"61",1,1,545.174000013503,NA,NA,NA,NA,NA,NA,NA,NA,"",0
"62",2,1,579.092500003753,NA,NA,NA,NA,NA,NA,NA,NA,"",0
"63",1,1,692.112500008079,NA,NA,NA,NA,NA,NA,NA,NA,"",0
"64",2,1,660.227600004873,NA,NA,NA,NA,NA,NA,NA,NA,"",0
"65",1,1,956.839300008141,NA,NA,NA,NA,NA,NA,NA,NA,"",0
"66",2,1,611.188700000639,NA,NA,NA,NA,NA,NA,NA,NA,"",0
"67",1,0,2389.96950000001,NA,NA,NA,NA,NA,NA,NA,NA,"",0
"68",2,1,639.039200003026,NA,NA,NA,NA,NA,NA,NA,NA,"",0
"69",1,1,2485.08600000059,NA,NA,NA,NA,NA,NA,NA,NA,"",0
"70",2,1,629.388300003484,NA,NA,NA,NA,NA,NA,NA,NA,"",0
"71",1,1,907.809800017276,NA,NA,NA,NA,NA,NA,NA,NA,"",0
"72",2,1,767.570800016983,NA,NA,NA,NA,NA,NA,NA,NA,"",0
"73",1,1,975.972500003991,NA,NA,NA,NA,NA,NA,NA,NA,"",0
"74",2,1,873.251900018658,NA,NA,NA,NA,NA,NA,NA,NA,"",0
"75",1,1,1525.16370001831,NA,NA,NA,NA,NA,NA,NA,NA,"",0
"76",2,1,612.610700001824,NA,NA,NA,NA,NA,NA,NA,NA,"",0
"77",1,1,1563.61580001249,NA,NA,NA,NA,NA,NA,NA,NA,"",0
"78",2,1,741.540500006522,NA,NA,NA,NA,NA,NA,NA,NA,"",0
"79",1,1,2292.04770001525,NA,NA,NA,NA,NA,NA,NA,NA,"",0
"80",2,1,1120.5001000053,NA,NA,NA,NA,NA,NA,NA,NA,"",0
"81",1,1,913.432700006524,NA,NA,NA,NA,NA,NA,NA,NA,"",0
"82",2,1,488.390400016215,NA,NA,NA,NA,NA,NA,NA,NA,"",0
"83",1,1,1300.85000001418,NA,NA,NA,NA,NA,NA,NA,NA,"",0
"84",2,1,748.837400009506,NA,NA,NA,NA,NA,NA,NA,NA,"",0
"85",1,1,890.757100001792,NA,NA,NA,NA,NA,NA,NA,NA,"",0
"86",2,1,642.092900015996,NA,NA,NA,NA,NA,NA,NA,NA,"",0
"87",1,1,880.139900007634,NA,NA,NA,NA,NA,NA,NA,NA,"",0
"88",2,1,1172.93410000275,NA,NA,NA,NA,NA,NA,NA,NA,"",0
"89",1,1,1497.80800001463,NA,NA,NA,NA,NA,NA,NA,NA,"",0
"90",2,1,633.755900009419,NA,NA,NA,NA,NA,NA,NA,NA,"",0
"91",1,1,1608.07610001939,NA,NA,NA,NA,NA,NA,NA,NA,"",0
"92",2,1,911.735100002261,NA,NA,NA,NA,NA,NA,NA,NA,"",0
"93",1,1,1182.77370001306,NA,NA,NA,NA,NA,NA,NA,NA,"",0
"94",2,1,2760.3858000075,NA,NA,NA,NA,NA,NA,NA,NA,"",0
"95",1,1,1102.70650002349,NA,NA,NA,NA,NA,NA,NA,NA,"",0
"96",2,1,697.863700013841,NA,NA,NA,NA,NA,NA,NA,NA,"",0
"97",1,1,733.430400010548,NA,NA,NA,NA,NA,NA,NA,NA,"",0
"98",2,1,955.743000013172,NA,NA,NA,NA,NA,NA,NA,NA,"",0
"99",1,1,3077.00950000435,NA,NA,NA,NA,NA,NA,NA,NA,"",0
"100",2,1,678.914500007522,NA,NA,NA,NA,NA,NA,NA,NA,"",0
"101",1,1,1547.58470000525,NA,NA,NA,NA,NA,NA,NA,NA,"",0
"102",2,1,502.350800001295,NA,NA,NA,NA,NA,NA,NA,NA,"",0
"103",1,1,512.642200003029,NA,NA,NA,NA,NA,NA,NA,NA,"",0
"104",2,1,656.196200012346,NA,NA,NA,NA,NA,NA,NA,NA,"",0
"105",1,1,1509.40840000112,NA,NA,NA,NA,NA,NA,NA,NA,"",0
"106",2,1,752.849100012099,NA,NA,NA,NA,NA,NA,NA,NA,"",0
"107",1,1,730.22040000069,NA,NA,NA,NA,NA,NA,NA,NA,"",0
"108",2,1,2269.00330001081,NA,NA,NA,NA,NA,NA,NA,NA,"",0
"109",1,1,598.228700007894,NA,NA,NA,NA,NA,NA,NA,NA,"",0
"110",2,1,658.486000014818,NA,NA,NA,NA,NA,NA,NA,NA,"",0
"111",1,1,764.399000006961,NA,NA,NA,NA,NA,NA,NA,NA,"",0
"112",2,1,720.855600011419,NA,NA,NA,NA,NA,NA,NA,NA,"",0
"113",1,1,787.481500010472,NA,NA,NA,NA,NA,NA,NA,NA,"",0
"114",2,1,1423.6778000195,NA,NA,NA,NA,NA,NA,NA,NA,"",0
"115",1,1,686.307400013902,NA,NA,NA,NA,NA,NA,NA,NA,"",0
"116",2,1,735.073800009559,NA,NA,NA,NA,NA,NA,NA,NA,"",0
"117",1,1,1253.00650001736,NA,NA,NA,NA,NA,NA,NA,NA,"",0
"118",2,1,746.565600013128,NA,NA,NA,NA,NA,NA,NA,NA,"",0
"119",1,1,647.788300004322,NA,NA,NA,NA,NA,NA,NA,NA,"",0
"120",2,1,730.49170000013,NA,NA,NA,NA,NA,NA,NA,NA,"",0
"121",1,1,2237.0082000125,NA,NA,NA,NA,NA,NA,NA,NA,"",0
"122",2,1,1135.028100005,NA,NA,NA,NA,NA,NA,NA,NA,"",0
"123",1,1,2641.86220000556,NA,NA,NA,NA,NA,NA,NA,NA,"",0
"124",2,1,692.030800011707,NA,NA,NA,NA,NA,NA,NA,NA,"",0
"125",1,1,1684.73650001397,NA,NA,NA,NA,NA,NA,NA,NA,"",0
"126",2,1,568.457900022622,NA,NA,NA,NA,NA,NA,NA,NA,"",0
"127",1,1,533.68930000579,NA,NA,NA,NA,NA,NA,NA,NA,"",0
"128",2,1,495.628400007263,NA,NA,NA,NA,NA,NA,NA,NA,"",0
"129",1,1,582.844100004877,NA,NA,NA,NA,NA,NA,NA,NA,"",0
"130",2,1,543.818000005558,NA,NA,NA,NA,NA,NA,NA,NA,"",0
"131",1,1,2053.52500001027,NA,NA,NA,NA,NA,NA,NA,NA,"",0
"132",2,1,659.226700023282,NA,NA,NA,NA,NA,NA,NA,NA,"",0
"133",1,1,1164.80470000533,NA,NA,NA,NA,NA,NA,NA,NA,"",0
"134",2,1,538.727500010282,NA,NA,NA,NA,NA,NA,NA,NA,"",0
"135",1,1,1768.68530000502,NA,NA,NA,NA,NA,NA,NA,NA,"",0
"136",2,1,521.281700013787,NA,NA,NA,NA,NA,NA,NA,NA,"",0
"137",1,1,1687.97040001664,NA,NA,NA,NA,NA,NA,NA,NA,"",0
"138",2,1,680.702800003928,NA,NA,NA,NA,NA,NA,NA,NA,"",0
"139",1,1,521.403100006864,NA,NA,NA,NA,NA,NA,NA,NA,"",0
"140",2,1,731.781700014835,NA,NA,NA,NA,NA,NA,NA,NA,"",0
"141",1,1,870.518199997605,NA,NA,NA,NA,NA,NA,NA,NA,"",0
"142",2,1,818.463300020085,NA,NA,NA,NA,NA,NA,NA,NA,"",0
"143",1,1,845.467500010272,NA,NA,NA,NA,NA,NA,NA,NA,"",0
"144",2,1,727.375100017525,NA,NA,NA,NA,NA,NA,NA,NA,"",0
"145",1,1,570.557700018981,NA,NA,NA,NA,NA,NA,NA,NA,"",0
"146",2,1,602.540300009423,NA,NA,NA,NA,NA,NA,NA,NA,"",0
"147",1,1,1390.06070001051,NA,NA,NA,NA,NA,NA,NA,NA,"",0
"148",2,1,586.136300000362,NA,NA,NA,NA,NA,NA,NA,NA,"",0
"149",1,1,1410.00320001331,NA,NA,NA,NA,NA,NA,NA,NA,"",0
"150",2,1,449.784700002056,NA,NA,NA,NA,NA,NA,NA,NA,"",0
"151",1,1,643.469700007699,NA,NA,NA,NA,NA,NA,NA,NA,"",0
"152",2,1,1013.37929999863,NA,NA,NA,NA,NA,NA,NA,NA,"",0
"153",1,1,1613.21370002406,NA,NA,NA,NA,NA,NA,NA,NA,"",0
"154",2,1,588.725200010231,NA,NA,NA,NA,NA,NA,NA,NA,"",0
"155",1,1,657.622200014885,NA,NA,NA,NA,NA,NA,NA,NA,"",0
"156",2,1,754.356600009487,NA,NA,NA,NA,NA,NA,NA,NA,"",0
"157",1,1,671.229500017944,NA,NA,NA,NA,NA,NA,NA,NA,"",0
"158",2,1,600.347800005693,NA,NA,NA,NA,NA,NA,NA,NA,"",0
"159",1,1,983.485000018845,NA,NA,NA,NA,NA,NA,NA,NA,"",0
"160",2,1,803.998900009901,NA,NA,NA,NA,NA,NA,NA,NA,"",0
"161",NA,NA,NA,0,1,0,0,1,436.909200012451,1,669.746800020221,"瑰丽",0
"162",NA,NA,NA,0,0,0,1,1,381.948200010811,1,673.211900022579,"处罚",0
"163",NA,NA,NA,0,0,0,2,1,595.582500012824,1,666.681300019263,"逃避",0
"164",NA,NA,NA,1,1,0,3,1,544.899900007294,1,565.815900001326,"永恒",0
"165",NA,NA,NA,1,0,0,4,1,680.192000014358,1,658.48460001871,"心慌",0
"166",NA,NA,NA,1,1,0,5,1,448.845600010827,0,1108.51700001513,"享受",0
"167",NA,NA,NA,1,1,0,6,1,495.231400011107,1,998.94590000622,"丰满",0
"168",NA,NA,NA,1,1,0,7,1,477.117100017495,1,643.923800002085,"顽强",0
"169",NA,NA,NA,0,0,0,8,1,384.774100006325,1,758.840700014844,"闷热",0
"170",NA,NA,NA,1,0,0,9,1,630.934300017543,1,963.930600002641,"黑暗",0
"171",NA,NA,NA,1,0,0,10,1,549.888400011696,1,665.923100008513,"孤单",0
"172",NA,NA,NA,0,0,0,11,1,401.338499999838,1,681.777900012094,"争吵",0
"173",NA,NA,NA,0,1,0,12,1,594.233900017571,1,1623.91560000833,"羡慕",0
"174",NA,NA,NA,1,1,0,13,1,537.801600017701,1,586.17370002321,"鲜艳",0
"175",NA,NA,NA,1,0,0,14,1,514.983100016252,1,555.610100011108,"厌恶",0
"176",NA,NA,NA,1,1,0,15,1,531.382800007123,1,596.678000001702,"圣洁",0
"177",NA,NA,NA,0,1,0,16,1,382.889900007285,1,773.770100015099,"精致",0
"178",NA,NA,NA,1,0,0,17,1,436.415900010616,1,549.99610001687,"悲观",0
"179",NA,NA,NA,0,0,0,18,1,448.440200008918,1,539.489800008596,"沮丧",0
"180",NA,NA,NA,1,1,0,19,1,455.2714000165,1,683.811200011405,"秀丽",0
"181",NA,NA,NA,1,1,0,20,1,532.556300007855,1,848.717000000761,"富足",0
"182",NA,NA,NA,0,0,0,21,1,413.131000008434,1,971.281500009354,"别扭",0
"183",NA,NA,NA,1,1,0,22,1,439.853900010348,1,675.458900019294,"公平",0
"184",NA,NA,NA,1,1,0,23,1,494.855400000233,1,609.749400013243,"赞成",0
"185",NA,NA,NA,1,0,0,24,1,511.113300002762,1,636.875400014105,"冷笑",0
"186",NA,NA,NA,0,0,0,25,1,407.644800012349,0,1356.65210001753,"禁止",0
"187",NA,NA,NA,1,1,0,26,1,453.317300009076,1,724.974199998542,"诚恳",0
"188",NA,NA,NA,0,1,0,27,1,386.300200014375,1,541.519000020344,"雄厚",0
"189",NA,NA,NA,1,0,0,28,1,507.834000018192,1,681.591800021124,"鲁莽",0
"190",NA,NA,NA,1,0,0,29,1,545.101300012902,1,669.088599999668,"消沉",0
"191",NA,NA,NA,0,1,0,30,1,396.107600012328,1,743.093900004169,"如愿",0
"192",NA,NA,NA,1,0,0,31,1,463.095800005249,1,670.329700005823,"损害",0
"193",NA,NA,NA,1,1,0,32,1,503.813800009084,1,646.662900006049,"卓越",0
"194",NA,NA,NA,0,1,0,33,1,465.9251000121,1,548.539900017204,"充裕",0
"195",NA,NA,NA,0,1,0,34,1,426.780100009637,1,651.895800008788,"前进",0
"196",NA,NA,NA,0,1,0,35,1,395.659800007707,1,509.534400014672,"典雅",0
"197",NA,NA,NA,1,1,0,36,1,433.182599997963,1,633.82340001408,"振作",0
"198",NA,NA,NA,0,0,0,37,1,360.921400017105,1,891.562700009672,"烦恼",0
"199",NA,NA,NA,1,0,0,38,1,465.127800023765,1,631.297700005234,"郁闷",0
"200",NA,NA,NA,1,0,0,39,1,464.486800017767,1,672.004500011099,"慌忙",0
"201",NA,NA,NA,0,0,0,40,1,363.145000010263,1,555.181600007927,"失意",0
"202",NA,NA,NA,1,0,0,41,1,536.409200023627,1,657.493500009878,"伤心",0
"203",NA,NA,NA,0,0,0,42,1,325.027600003523,1,654.088300012518,"浪费",0
"204",NA,NA,NA,0,1,0,43,1,362.313300021924,0,587.192200007848,"清秀",0
"205",NA,NA,NA,0,0,0,44,1,401.745600014692,0,1571.36470000842,"怀疑",0
"206",NA,NA,NA,1,0,0,45,1,488.116200009244,1,999.36770000204,"排斥",0
"207",NA,NA,NA,0,0,0,46,1,335.564700013492,1,851.758000004338,"杂乱",0
"208",NA,NA,NA,0,0,0,47,1,478.259099996649,1,836.368999996921,"落后",0
"209",NA,NA,NA,1,1,0,48,1,485.161900011008,1,731.67460001423,"俊秀",0
"210",NA,NA,NA,0,1,0,49,1,392.625700013014,1,807.810300015262,"爽朗",0
"211",NA,NA,NA,0,1,0,50,1,419.872400016175,1,525.838900008239,"正直",0
"212",NA,NA,NA,0,0,0,51,1,400.011600009748,1,614.072900018073,"丢失",0
"213",NA,NA,NA,0,1,0,52,1,359.881300013512,1,523.493600005168,"奉献",0
"214",NA,NA,NA,1,1,0,53,1,475.021200007177,1,765.906300002825,"热切",0
"215",NA,NA,NA,1,0,0,54,1,565.572200008319,1,693.00060000387,"自卑",0
"216",NA,NA,NA,1,1,0,55,1,505.529100002605,1,710.16720001353,"珍藏",0
"217",NA,NA,NA,1,1,0,56,1,563.71190000209,1,760.136700017028,"优雅",0
"218",NA,NA,NA,0,0,0,57,1,409.680100012338,1,614.741900004447,"嘲笑",0
"219",NA,NA,NA,0,1,0,58,1,354.753700012225,1,650.301700006821,"敬佩",0
"220",NA,NA,NA,1,1,0,59,1,536.346200009575,1,692.515300004743,"生动",0
"221",NA,NA,NA,0,0,0,60,1,371.687300008489,1,720.833200015477,"轻率",0
"222",NA,NA,NA,1,0,0,61,1,514.592600011383,1,1004.67239999853,"胡涂",0
"223",NA,NA,NA,1,0,0,62,1,480.456200006302,1,1167.8421000106,"懒惰",0
"224",NA,NA,NA,0,1,0,63,1,378.693800012115,1,733.58770001505,"留恋",0
"225",NA,NA,NA,1,0,0,64,1,502.173700006097,1,604.060100013157,"撒谎",0
"226",NA,NA,NA,0,1,0,65,1,368.304400006309,1,894.448100007139,"豪放",0
"227",NA,NA,NA,0,0,0,66,1,636.763600021368,1,642.700900018099,"忧虑",0
"228",NA,NA,NA,1,1,0,67,1,491.94880000141,1,1397.5602999999,"旺盛",0
"229",NA,NA,NA,1,1,0,68,1,476.471400019364,1,536.214100007783,"舒畅",0
"230",NA,NA,NA,0,1,0,69,1,416.117400003714,1,693.04430000193,"吉祥",0
"231",NA,NA,NA,0,1,0,70,1,333.650000000489,1,622.124200017424,"富丽",0
"232",NA,NA,NA,0,0,0,71,1,494.834600016475,1,625.818500018795,"焦躁",0
"233",NA,NA,NA,0,0,0,72,1,454.667600017274,1,648.064900015015,"缺乏",0
"234",NA,NA,NA,0,0,0,73,1,414.117300009821,1,496.074200011208,"穷苦",0
"235",NA,NA,NA,1,0,0,74,1,484.471100018709,1,602.809300020454,"堵塞",0
"236",NA,NA,NA,0,1,0,75,1,404.319600012968,1,826.234500011196,"有利",0
"237",NA,NA,NA,0,1,0,76,1,367.420400012634,1,645.409900011146,"廉洁",0
"238",NA,NA,NA,1,0,0,77,1,514.797300013015,1,529.64070001326,"假冒",0
"239",NA,NA,NA,1,0,0,78,1,504.363500018371,1,578.345100017032,"罚款",0
"240",NA,NA,NA,0,1,0,79,1,547.858200021437,1,671.567600002163,"畅销",0
"241",NA,NA,NA,0,0,1,0,1,433.349800019641,1,921.408300011535,"黑暗",0
"242",NA,NA,NA,1,0,1,1,1,572.242400012328,1,567.465900006937,"别扭",0
"243",NA,NA,NA,0,0,1,2,1,462.033200019505,1,629.769900013343,"穷苦",0
"244",NA,NA,NA,0,1,1,3,1,417.601800014381,0,830.640000014682,"留恋",0
"245",NA,NA,NA,0,0,1,4,1,435.120500012999,1,543.284100014716,"假冒",0
"246",NA,NA,NA,0,1,1,5,1,422.014900002978,1,799.147100013215,"赞成",0
"247",NA,NA,NA,1,0,1,6,1,607.559600000968,1,588.967800009414,"失意",0
"248",NA,NA,NA,0,0,1,7,1,403.365300007863,1,625.39800000377,"逃避",0
"249",NA,NA,NA,1,1,1,8,1,556.239200013806,1,642.668800006504,"丰满",0
"250",NA,NA,NA,0,1,1,9,1,382.380100010778,1,940.928900017752,"如愿",0
"251",NA,NA,NA,1,0,1,10,1,568.078400014201,1,626.688900010777,"焦躁",0
"252",NA,NA,NA,0,0,1,11,1,534.393800015096,1,948.325200006366,"厌恶",0
"253",NA,NA,NA,1,0,1,12,1,542.514100015978,1,586.858400012716,"冷笑",0
"254",NA,NA,NA,1,0,1,13,1,513.862400010112,1,531.591999999364,"慌忙",0
"255",NA,NA,NA,0,0,1,14,1,648.430600005668,1,477.258500017342,"杂乱",0
"256",NA,NA,NA,0,1,1,15,1,568.798900014372,1,691.899400015245,"瑰丽",0
"257",NA,NA,NA,1,1,1,16,1,508.12000001315,1,498.221200003172,"豪放",0
"258",NA,NA,NA,0,1,1,17,1,354.847399998107,1,1873.52520000422,"享受",0
"259",NA,NA,NA,1,0,1,18,1,545.995200009202,1,618.50530000811,"堵塞",0
"260",NA,NA,NA,1,0,1,19,1,457.346400013193,1,1532.74920000695,"罚款",0
"261",NA,NA,NA,1,1,1,20,1,508.831000013743,1,1139.51270001417,"卓越",0
"262",NA,NA,NA,1,1,1,21,1,622.846200014465,1,611.49250001472,"珍藏",0
"263",NA,NA,NA,0,0,1,22,1,426.88640000415,1,1476.18830001738,"禁止",0
"264",NA,NA,NA,0,0,1,23,1,467.457200022181,1,642.973400012124,"损害",0
"265",NA,NA,NA,1,1,1,24,1,646.780900002341,1,912.069400015753,"舒畅",0
"266",NA,NA,NA,0,0,1,25,1,479.205000010552,1,718.61050001462,"自卑",0
"267",NA,NA,NA,1,0,1,26,1,707.686699999613,1,1433.73010000505,"处罚",0
"268",NA,NA,NA,1,0,1,27,1,532.319200006896,1,578.9766000089,"伤心",0
"269",NA,NA,NA,1,0,1,28,1,487.479700008407,1,701.071600007708,"悲观",0
"270",NA,NA,NA,1,0,1,29,1,559.681500017177,1,1299.485800002,"丢失",0
"271",NA,NA,NA,1,1,1,30,1,543.637500013574,1,792.313500016462,"俊秀",0
"272",NA,NA,NA,0,0,1,31,1,408.59660001297,1,755.004400009057,"忧虑",0
"273",NA,NA,NA,1,1,1,32,1,493.992400006391,1,1505.24540001061,"羡慕",0
"274",NA,NA,NA,0,0,1,33,1,622.590400016634,1,657.719800015911,"轻率",0
"275",NA,NA,NA,1,0,1,34,1,553.394600006868,1,945.350599999074,"鲁莽",0
"276",NA,NA,NA,1,1,1,35,1,638.578600017354,1,658.459600017522,"诚恳",0
"277",NA,NA,NA,0,1,1,36,1,422.408900005394,1,619.826400012244,"敬佩",0
"278",NA,NA,NA,1,1,1,37,1,622.882900002878,1,784.038600002532,"优雅",0
"279",NA,NA,NA,0,0,1,38,1,399.83249999932,1,769.787600016571,"烦恼",0
"280",NA,NA,NA,1,1,1,39,1,455.266000004485,1,619.271200004732,"热切",0
"281",NA,NA,NA,1,1,1,40,1,471.714900020743,1,667.355100013083,"畅销",0
"282",NA,NA,NA,1,1,1,41,1,519.618000005721,1,864.825000011479,"爽朗",0
"283",NA,NA,NA,1,1,1,42,1,540.6886000128,1,689.821000021766,"振作",0
"284",NA,NA,NA,0,1,1,43,1,459.873500003596,1,560.018900010618,"富足",0
"285",NA,NA,NA,1,0,1,44,1,441.838800004916,1,713.816500006942,"消沉",0
"286",NA,NA,NA,1,1,1,45,1,465.685200018925,1,2322.27260000946,"精致",0
"287",NA,NA,NA,0,1,1,46,1,431.946500015329,1,568.244300011429,"公平",0
"288",NA,NA,NA,0,1,1,47,1,487.40860001999,1,617.516200014506,"秀丽",0
"289",NA,NA,NA,1,1,1,48,1,507.254800002556,1,580.893600010313,"永恒",0
"290",NA,NA,NA,0,0,1,49,1,384.986700009904,1,591.672400012612,"郁闷",0
"291",NA,NA,NA,0,1,1,50,1,417.903000008664,1,823.21130001219,"清秀",0
"292",NA,NA,NA,1,0,1,51,1,448.766000015894,1,862.025100010214,"懒惰",0
"293",NA,NA,NA,0,1,1,52,1,641.447800007882,1,653.416200017091,"生动",0
"294",NA,NA,NA,1,0,1,53,1,547.922900004778,1,608.019800012698,"沮丧",0
"295",NA,NA,NA,0,1,1,54,1,457.808500010287,1,1233.76840000856,"旺盛",0
"296",NA,NA,NA,0,1,1,55,1,318.168100013281,1,703.566400014097,"圣洁",0
"297",NA,NA,NA,1,1,1,56,1,821.298100010608,1,750.329100003,"顽强",0
"298",NA,NA,NA,0,1,1,57,1,1004.43169999926,1,545.411200015224,"典雅",0
"299",NA,NA,NA,0,0,1,58,1,636.825100009446,1,852.275800018106,"缺乏",0
"300",NA,NA,NA,0,1,1,59,1,437.120500006131,1,564.827700000023,"充裕",0
"301",NA,NA,NA,1,0,1,60,1,534.874700009823,1,623.327300010715,"嘲笑",0
"302",NA,NA,NA,0,0,1,61,1,402.226500009419,1,796.08850000659,"落后",0
"303",NA,NA,NA,1,1,1,62,1,570.142400014447,1,641.793700007838,"前进",0
"304",NA,NA,NA,0,1,1,63,1,454.024800012121,1,665.755500012892,"有利",0
"305",NA,NA,NA,1,1,1,64,1,683.091000013519,1,599.459400007618,"富丽",0
"306",NA,NA,NA,0,0,1,65,1,392.076400006772,1,614.206000012928,"浪费",0
"307",NA,NA,NA,0,0,1,66,1,451.35180001671,1,715.281500000856,"胡涂",0
"308",NA,NA,NA,1,0,1,67,1,531.876800014288,1,672.24620001798,"怀疑",0
"309",NA,NA,NA,0,1,1,68,1,390.670400011004,1,553.116500013857,"鲜艳",0
"310",NA,NA,NA,1,0,1,69,1,528.628400003072,1,541.690100013511,"心慌",0
"311",NA,NA,NA,1,1,1,70,1,492.342700017616,1,670.322400008445,"吉祥",0
"312",NA,NA,NA,0,1,1,71,1,444.389900003443,1,508.18370001798,"正直",0
"313",NA,NA,NA,0,0,1,72,1,352.813100005733,1,625.216900007217,"撒谎",0
"314",NA,NA,NA,1,0,1,73,1,505.941200011875,1,647.643200019957,"孤单",0
"315",NA,NA,NA,0,1,1,74,1,388.553000011598,1,590.729400020791,"雄厚",0
"316",NA,NA,NA,1,0,1,75,1,503.414300008444,1,688.155000010738,"争吵",0
"317",NA,NA,NA,0,0,1,76,1,578.888900010497,1,494.093900008011,"排斥",0
"318",NA,NA,NA,0,1,1,77,1,646.09370000835,1,667.379000020446,"廉洁",0
"319",NA,NA,NA,0,0,1,78,1,399.47730001586,1,637.740400008624,"闷热",0
"320",NA,NA,NA,1,1,1,79,1,528.76090000791,1,628.923900003429,"奉献",0
"321",NA,NA,NA,1,0,2,0,1,512.257000009413,1,1281.38290002244,"忧虑",0
"322",NA,NA,NA,1,1,2,1,1,565.176400006749,1,632.644900004379,"圣洁",0
"323",NA,NA,NA,0,0,2,2,1,377.765199998976,1,579.82020000054,"假冒",0
"324",NA,NA,NA,1,1,2,3,1,474.83090001333,1,932.887600007234,"充裕",0
"325",NA,NA,NA,1,1,2,4,1,515.286100009689,1,639.684900001157,"公平",0
"326",NA,NA,NA,1,0,2,5,1,428.39540001296,1,641.506900006789,"厌恶",0
"327",NA,NA,NA,1,1,2,6,1,491.59880001389,1,590.743000007933,"畅销",0
"328",NA,NA,NA,0,0,2,7,1,415.239100024337,1,616.189600012149,"懒惰",0
"329",NA,NA,NA,0,0,2,8,1,379.740700009279,1,510.455200012075,"浪费",0
"330",NA,NA,NA,0,1,2,9,1,315.124300017487,1,648.653600015678,"舒畅",0
"331",NA,NA,NA,1,1,2,10,1,473.342400000547,1,615.807500013034,"永恒",0
"332",NA,NA,NA,1,1,2,11,1,546.250400017016,1,637.840200011851,"豪放",0
"333",NA,NA,NA,1,1,2,12,1,519.027300018934,1,603.817300012452,"热切",0
"334",NA,NA,NA,1,0,2,13,1,491.416000018944,0,1285.78380000545,"怀疑",0
"335",NA,NA,NA,0,0,2,14,1,406.14020000794,1,559.812500010594,"损害",0
"336",NA,NA,NA,0,0,2,15,1,436.13760000153,1,576.423400008935,"沮丧",0
"337",NA,NA,NA,0,1,2,16,1,661.001600019517,1,708.728300000075,"赞成",0
"338",NA,NA,NA,0,1,2,17,1,426.530800003093,1,479.475300016929,"鲜艳",0
"339",NA,NA,NA,0,1,2,18,1,334.799500007648,1,514.543400000548,"生动",0
"340",NA,NA,NA,1,0,2,19,1,546.671300005983,1,710.403200020664,"杂乱",0
"341",NA,NA,NA,1,1,2,20,1,531.121200008783,1,599.873500017566,"瑰丽",0
"342",NA,NA,NA,0,1,2,21,1,374.160600011237,1,439.358400006313,"优雅",0
"343",NA,NA,NA,1,1,2,22,1,474.818100003176,1,1097.87460001826,"留恋",0
"344",NA,NA,NA,1,0,2,23,1,513.040900012129,1,546.051500015892,"排斥",0
"345",NA,NA,NA,1,1,2,24,1,483.051700008218,1,608.786500015412,"清秀",0
"346",NA,NA,NA,1,0,2,25,1,810.613700014073,1,641.132300006575,"堵塞",0
"347",NA,NA,NA,0,0,2,26,1,343.793500011088,1,587.936500000069,"丢失",0
"348",NA,NA,NA,0,1,2,27,1,394.344100001035,1,935.194400008186,"精致",0
"349",NA,NA,NA,1,1,2,28,1,494.331400012015,1,821.59550000506,"有利",0
"350",NA,NA,NA,0,1,2,29,1,460.411600011867,1,575.622500007739,"秀丽",0
"351",NA,NA,NA,0,1,2,30,1,485.105100015062,1,719.940500013763,"顽强",0
"352",NA,NA,NA,1,0,2,31,1,560.848100009025,1,684.835300009581,"失意",0
"353",NA,NA,NA,0,1,2,32,1,384.88860000507,1,546.610300021712,"富足",0
"354",NA,NA,NA,1,1,2,33,1,435.644300014246,1,549.430100014433,"正直",0
"355",NA,NA,NA,1,0,2,34,1,465.525800012983,1,628.933100015274,"消沉",0
"356",NA,NA,NA,1,0,2,35,1,437.844500003848,1,593.82320001896,"逃避",0
"357",NA,NA,NA,0,0,2,36,1,395.122300004005,1,640.66340001591,"别扭",0
"358",NA,NA,NA,1,0,2,37,1,643.369900004473,1,531.834100009291,"争吵",0
"359",NA,NA,NA,1,1,2,38,1,485.230500009493,1,651.51490001881,"吉祥",0
"360",NA,NA,NA,0,0,2,39,1,637.243800010765,0,1169.89470001135,"禁止",0
"361",NA,NA,NA,0,0,2,40,1,357.137800005148,1,1252.06030001573,"鲁莽",0
"362",NA,NA,NA,1,0,2,41,1,512.902500006021,1,1134.75080000353,"穷苦",0
"363",NA,NA,NA,0,1,2,42,1,398.737700015772,1,564.221400010865,"廉洁",0
"364",NA,NA,NA,0,1,2,43,1,398.105400017812,0,813.124100008281,"富丽",0
"365",NA,NA,NA,1,1,2,44,1,490.383900003508,1,541.282300007879,"典雅",0
"366",NA,NA,NA,1,1,2,45,1,505.373500011046,1,1137.49910000479,"享受",0
"367",NA,NA,NA,0,1,2,46,1,381.187400009367,1,624.303200020222,"羡慕",0
"368",NA,NA,NA,0,1,2,47,1,351.12130001653,1,546.741300015128,"振作",0
"369",NA,NA,NA,0,1,2,48,1,362.57920000935,1,510.649100018782,"雄厚",0
"370",NA,NA,NA,1,1,2,49,1,472.302200010745,1,667.279500019504,"如愿",0
"371",NA,NA,NA,1,0,2,50,1,478.519700016477,1,893.861300006392,"焦躁",0
"372",NA,NA,NA,0,0,2,51,1,341.746300007799,1,610.368700014078,"缺乏",0
"373",NA,NA,NA,0,0,2,52,1,413.340000013704,1,638.970200016047,"落后",0
"374",NA,NA,NA,0,0,2,53,1,543.651600019075,1,583.553500007838,"黑暗",0
"375",NA,NA,NA,1,0,2,54,1,686.467800012906,1,541.111900020042,"慌忙",0
"376",NA,NA,NA,1,0,2,55,1,749.913300009212,1,600.774800012005,"处罚",0
"377",NA,NA,NA,1,0,2,56,1,432.808700003079,1,441.779100015992,"胡涂",0
"378",NA,NA,NA,1,1,2,57,1,483.949000015855,1,650.377600002685,"奉献",0
"379",NA,NA,NA,1,0,2,58,1,465.921800001524,1,568.896400014637,"心慌",0
"380",NA,NA,NA,0,0,2,59,1,412.055400011013,1,597.757000010461,"轻率",0
"381",NA,NA,NA,1,0,2,60,1,589.615100019728,1,985.038000013446,"闷热",0
"382",NA,NA,NA,0,0,2,61,1,442.992000011145,1,595.507400008501,"孤单",0
"383",NA,NA,NA,0,0,2,62,1,868.023900009575,1,767.015500008711,"嘲笑",0
"384",NA,NA,NA,1,0,2,63,1,790.544900009991,1,783.209100016393,"烦恼",0
"385",NA,NA,NA,0,1,2,64,1,435.809200018412,1,1123.5113000148,"旺盛",0
"386",NA,NA,NA,0,1,2,65,1,449.462200020207,1,845.035100006498,"敬佩",0
"387",NA,NA,NA,0,0,2,66,1,409.09540001303,1,534.729500010144,"罚款",0
"388",NA,NA,NA,0,1,2,67,1,375.53060000937,1,838.94830000645,"卓越",0
"389",NA,NA,NA,1,1,2,68,1,542.911000011372,1,1267.28450001974,"珍藏",0
"390",NA,NA,NA,0,0,2,69,1,371.052300019073,1,605.455200013239,"自卑",0
"391",NA,NA,NA,1,1,2,70,1,474.766700019245,1,1129.38660001964,"爽朗",0
"392",NA,NA,NA,0,0,2,71,1,373.267300004954,1,572.391300011077,"冷笑",0
"393",NA,NA,NA,0,1,2,72,1,403.416900007869,1,620.595900007174,"俊秀",0
"394",NA,NA,NA,1,0,2,73,1,826.175900016096,1,727.758500011987,"郁闷",0
"395",NA,NA,NA,0,1,2,74,1,421.053900005063,1,685.665500015602,"前进",0
"396",NA,NA,NA,0,1,2,75,1,404.103000008035,1,530.481200010399,"丰满",0
"397",NA,NA,NA,1,0,2,76,1,574.317100006738,1,901.090800020029,"伤心",0
"398",NA,NA,NA,0,0,2,77,1,423.559100003331,1,528.604900013306,"悲观",0
"399",NA,NA,NA,1,1,2,78,1,539.654800013523,1,1496.07960000867,"诚恳",0
"400",NA,NA,NA,0,0,2,79,1,482.636200016714,1,572.897100020782,"撒谎",0
"401",NA,NA,NA,0,1,3,0,1,376.821400015615,1,570.87270001648,"珍藏",0
"402",NA,NA,NA,0,0,3,1,1,394.650800008094,1,604.878500016639,"心慌",0
"403",NA,NA,NA,1,0,3,2,1,508.82050000655,1,504.842100010137,"嘲笑",0
"404",NA,NA,NA,0,1,3,3,1,359.402900008718,1,619.373800014728,"豪放",0
"405",NA,NA,NA,1,1,3,4,1,641.313200001605,1,772.841600017273,"丰满",0
"406",NA,NA,NA,1,0,3,5,1,492.664300007164,1,610.607000009622,"鲁莽",0
"407",NA,NA,NA,0,1,3,6,1,384.401000017533,1,498.658000011346,"有利",0
"408",NA,NA,NA,0,0,3,7,1,388.949300016975,1,515.757000015583,"穷苦",0
"409",NA,NA,NA,1,0,3,8,1,528.619600008824,1,479.094500013161,"落后",0
"410",NA,NA,NA,1,1,3,9,1,534.502200011048,1,651.002300000982,"生动",0
"411",NA,NA,NA,1,0,3,10,1,482.362200011266,1,601.233900000807,"冷笑",0
"412",NA,NA,NA,1,1,3,11,1,450.933300016914,1,610.180100018624,"热切",0
"413",NA,NA,NA,0,1,3,12,1,379.879600019194,1,626.768300004187,"吉祥",0
"414",NA,NA,NA,0,1,3,13,1,358.766800010926,1,553.941999998642,"奉献",0
"415",NA,NA,NA,0,1,3,14,1,397.704900009558,1,538.571400000365,"享受",0
"416",NA,NA,NA,0,0,3,15,1,379.304300004151,1,550.817500014091,"处罚",0
"417",NA,NA,NA,0,0,3,16,1,355.778800003463,1,551.72320001293,"损害",0
"418",NA,NA,NA,0,0,3,17,1,383.235800021794,1,449.813300016103,"缺乏",0
"419",NA,NA,NA,0,1,3,18,1,370.365800001309,1,505.831800008309,"秀丽",0
"420",NA,NA,NA,1,0,3,19,1,795.100000017555,1,681.545900006313,"消沉",0
"421",NA,NA,NA,0,1,3,20,1,449.082400009502,1,669.59640001005,"永恒",0
"422",NA,NA,NA,1,0,3,21,1,743.869000012637,1,643.80930000334,"别扭",0
"423",NA,NA,NA,0,1,3,22,1,436.469900014345,1,548.280500006513,"舒畅",0
"424",NA,NA,NA,1,0,3,23,1,495.570800005225,1,869.559800004936,"轻率",0
"425",NA,NA,NA,0,1,3,24,1,400.209800005541,1,554.761800012784,"赞成",0
"426",NA,NA,NA,1,1,3,25,1,534.470200014766,1,450.141700013774,"充裕",0
"427",NA,NA,NA,0,0,3,26,1,433.972800019546,1,532.569000017247,"悲观",0
"428",NA,NA,NA,0,1,3,27,1,418.812400006573,1,548.369700016337,"旺盛",0
"429",NA,NA,NA,1,1,3,28,1,586.31250000326,1,616.77450001298,"顽强",0
"430",NA,NA,NA,1,0,3,29,1,497.428700007731,1,568.716800014954,"郁闷",0
"431",NA,NA,NA,1,0,3,30,1,479.466600008891,1,494.362300014473,"沮丧",0
"432",NA,NA,NA,1,1,3,31,1,461.033900006441,0,484.255400006077,"畅销",0
"433",NA,NA,NA,0,1,3,32,1,393.761800020002,1,593.277300009504,"雄厚",0
"434",NA,NA,NA,0,0,3,33,1,403.105400007917,1,584.257200011052,"厌恶",0
"435",NA,NA,NA,1,1,3,34,1,448.554800022976,1,480.203800005256,"圣洁",0
"436",NA,NA,NA,1,0,3,35,1,591.605900001014,1,610.539100016467,"懒惰",0
"437",NA,NA,NA,1,0,3,36,1,551.780900001177,1,768.028000020422,"忧虑",0
"438",NA,NA,NA,1,0,3,37,1,454.827100009425,1,578.92100000754,"失意",0
"439",NA,NA,NA,1,1,3,38,1,456.123300013132,1,680.186400015373,"羡慕",0
"440",NA,NA,NA,0,0,3,39,1,436.052400007611,1,1575.64310000453,"自卑",0
"441",NA,NA,NA,0,0,3,40,1,404.060800006846,1,621.386100014206,"胡涂",0
"442",NA,NA,NA,0,1,3,41,1,428.838200008613,1,2273.91610000632,"留恋",0
"443",NA,NA,NA,1,1,3,42,1,568.019200014533,1,503.026000005775,"优雅",0
"444",NA,NA,NA,1,0,3,43,1,652.126600005431,1,651.957500012941,"排斥",0
"445",NA,NA,NA,0,1,3,44,1,431.853200003388,1,635.628600008204,"清秀",0
"446",NA,NA,NA,1,0,3,45,1,554.878200011444,1,646.653200004948,"浪费",0
"447",NA,NA,NA,0,1,3,46,1,422.142900017207,1,528.234800003702,"爽朗",0
"448",NA,NA,NA,1,1,3,47,1,530.88600000774,1,483.84729999816,"振作",0
"449",NA,NA,NA,0,0,3,48,1,394.242700014729,1,784.884200009401,"黑暗",0
"450",NA,NA,NA,0,0,3,49,1,462.612500006799,1,550.799100019503,"焦躁",0
"451",NA,NA,NA,1,0,3,50,1,454.513300006511,1,545.757700005197,"丢失",0
"452",NA,NA,NA,1,0,3,51,1,770.268200009014,1,535.481400002027,"争吵",0
"453",NA,NA,NA,0,1,3,52,1,533.708000017214,1,549.848100010422,"前进",0
"454",NA,NA,NA,1,1,3,53,1,716.519300010987,1,513.398400013102,"典雅",0
"455",NA,NA,NA,1,0,3,54,1,479.703900011373,1,558.076400018763,"怀疑",0
"456",NA,NA,NA,0,1,3,55,1,470.338900006027,1,584.4505999994,"诚恳",0
"457",NA,NA,NA,1,1,3,56,1,681.032400010736,1,507.951200008392,"瑰丽",0
"458",NA,NA,NA,0,1,3,57,1,464.088800013997,1,470.331300020916,"富足",0
"459",NA,NA,NA,1,0,3,58,1,584.186900014174,1,506.257200016989,"罚款",0
"460",NA,NA,NA,1,1,3,59,1,458.352000001469,1,498.000300023705,"廉洁",0
"461",NA,NA,NA,1,1,3,60,1,470.202500000596,1,565.3544000088,"鲜艳",0
"462",NA,NA,NA,0,0,3,61,1,405.051200010348,1,602.699600014603,"假冒",0
"463",NA,NA,NA,1,0,3,62,1,684.119600002305,1,607.194400014123,"杂乱",0
"464",NA,NA,NA,0,1,3,63,1,408.75080000842,1,500.155800022185,"富丽",0
"465",NA,NA,NA,0,0,3,64,1,411.721000011312,1,2109.40880000999,"禁止",0
"466",NA,NA,NA,1,1,3,65,1,499.940100009553,1,689.951200009091,"如愿",0
"467",NA,NA,NA,0,0,3,66,1,396.903900007601,1,1070.38090001151,"孤单",0
"468",NA,NA,NA,0,0,3,67,1,395.394200008013,1,1194.59750001261,"慌忙",0
"469",NA,NA,NA,0,0,3,68,1,381.456100003561,1,668.505000008736,"伤心",0
"470",NA,NA,NA,1,1,3,69,1,467.294800022501,1,591.239100001985,"正直",0
"471",NA,NA,NA,1,1,3,70,1,483.765200013295,1,658.78710000834,"卓越",0
"472",NA,NA,NA,1,1,3,71,1,710.085100014112,1,640.509400007431,"精致",0
"473",NA,NA,NA,1,0,3,72,1,420.006700020167,1,661.516700012726,"烦恼",0
"474",NA,NA,NA,0,0,3,73,1,357.519200013485,1,621.059600016451,"堵塞",0
"475",NA,NA,NA,0,0,3,74,1,400.564100011252,1,529.413800002658,"撒谎",0
"476",NA,NA,NA,1,1,3,75,1,548.719800004619,1,711.116400008905,"俊秀",0
"477",NA,NA,NA,1,1,3,76,1,547.45160001039,1,536.070800008019,"敬佩",0
"478",NA,NA,NA,0,1,3,77,1,406.994700009818,1,555.643600018811,"公平",0
"479",NA,NA,NA,0,0,3,78,1,373.399500007508,1,556.963700000779,"闷热",0
"480",NA,NA,NA,0,0,3,79,1,408.880400005728,1,881.947600006242,"逃避",0
"481",1,1,1553.12570000024,NA,NA,NA,NA,NA,NA,NA,NA,"",1
"482",2,1,879.848099999435,NA,NA,NA,NA,NA,NA,NA,NA,"",1
"483",1,1,937.73020000117,NA,NA,NA,NA,NA,NA,NA,NA,"",1
"484",2,0,860.388600000078,NA,NA,NA,NA,NA,NA,NA,NA,"",1
"485",1,1,1262.38550000016,NA,NA,NA,NA,NA,NA,NA,NA,"",1
"486",2,1,1459.16439999928,NA,NA,NA,NA,NA,NA,NA,NA,"",1
"487",1,1,1032.35010000026,NA,NA,NA,NA,NA,NA,NA,NA,"",1
"488",2,1,633.859399998983,NA,NA,NA,NA,NA,NA,NA,NA,"",1
"489",1,1,962.964499998634,NA,NA,NA,NA,NA,NA,NA,NA,"",1
"490",2,1,944.750200000271,NA,NA,NA,NA,NA,NA,NA,NA,"",1
"491",1,1,1096.62969999954,NA,NA,NA,NA,NA,NA,NA,NA,"",1
"492",2,1,1234.46519999925,NA,NA,NA,NA,NA,NA,NA,NA,"",1
"493",1,1,1831.83749999989,NA,NA,NA,NA,NA,NA,NA,NA,"",1
"494",2,1,1145.93969999987,NA,NA,NA,NA,NA,NA,NA,NA,"",1
"495",1,1,1495.32030000046,NA,NA,NA,NA,NA,NA,NA,NA,"",1
"496",2,1,721.618999999919,NA,NA,NA,NA,NA,NA,NA,NA,"",1
"497",1,1,986.131899999236,NA,NA,NA,NA,NA,NA,NA,NA,"",1
"498",2,1,2254.31240000034,NA,NA,NA,NA,NA,NA,NA,NA,"",1
"499",1,1,1772.91109999896,NA,NA,NA,NA,NA,NA,NA,NA,"",1
"500",2,1,565.655899999911,NA,NA,NA,NA,NA,NA,NA,NA,"",1
"501",1,1,898.642899999686,NA,NA,NA,NA,NA,NA,NA,NA,"",1
"502",2,1,749.926399999822,NA,NA,NA,NA,NA,NA,NA,NA,"",1
"503",1,1,1473.79330000149,NA,NA,NA,NA,NA,NA,NA,NA,"",1
"504",2,1,595.960800001194,NA,NA,NA,NA,NA,NA,NA,NA,"",1
"505",1,1,1130.19730000087,NA,NA,NA,NA,NA,NA,NA,NA,"",1
"506",2,1,653.994199999943,NA,NA,NA,NA,NA,NA,NA,NA,"",1
"507",1,1,1566.64009999986,NA,NA,NA,NA,NA,NA,NA,NA,"",1
"508",2,1,622.577500000261,NA,NA,NA,NA,NA,NA,NA,NA,"",1
"509",1,1,1198.93670000056,NA,NA,NA,NA,NA,NA,NA,NA,"",1
"510",2,1,1366.04279999847,NA,NA,NA,NA,NA,NA,NA,NA,"",1
"511",1,1,839.693500000067,NA,NA,NA,NA,NA,NA,NA,NA,"",1
"512",2,1,758.368300001166,NA,NA,NA,NA,NA,NA,NA,NA,"",1
"513",1,1,834.157400000549,NA,NA,NA,NA,NA,NA,NA,NA,"",1
"514",2,1,608.433999999761,NA,NA,NA,NA,NA,NA,NA,NA,"",1
"515",1,1,2127.70219999948,NA,NA,NA,NA,NA,NA,NA,NA,"",1
"516",2,1,1412.84960000121,NA,NA,NA,NA,NA,NA,NA,NA,"",1
"517",1,1,1156.75069999998,NA,NA,NA,NA,NA,NA,NA,NA,"",1
"518",2,1,618.273700001737,NA,NA,NA,NA,NA,NA,NA,NA,"",1
"519",1,1,1826.08549999895,NA,NA,NA,NA,NA,NA,NA,NA,"",1
"520",2,1,586.680099999285,NA,NA,NA,NA,NA,NA,NA,NA,"",1
"521",1,1,670.084100000167,NA,NA,NA,NA,NA,NA,NA,NA,"",1
"522",2,1,613.547099999778,NA,NA,NA,NA,NA,NA,NA,NA,"",1
"523",1,1,1535.89120000106,NA,NA,NA,NA,NA,NA,NA,NA,"",1
"524",2,1,867.669599998408,NA,NA,NA,NA,NA,NA,NA,NA,"",1
"525",1,1,841.221500000756,NA,NA,NA,NA,NA,NA,NA,NA,"",1
"526",2,1,551.755700000285,NA,NA,NA,NA,NA,NA,NA,NA,"",1
"527",1,1,1287.46440000032,NA,NA,NA,NA,NA,NA,NA,NA,"",1
"528",2,1,565.7280000014,NA,NA,NA,NA,NA,NA,NA,NA,"",1
"529",1,1,608.422600000267,NA,NA,NA,NA,NA,NA,NA,NA,"",1
"530",2,1,415.223500000138,NA,NA,NA,NA,NA,NA,NA,NA,"",1
"531",1,1,941.770500001439,NA,NA,NA,NA,NA,NA,NA,NA,"",1
"532",2,1,837.499600000228,NA,NA,NA,NA,NA,NA,NA,NA,"",1
"533",1,1,779.210599999715,NA,NA,NA,NA,NA,NA,NA,NA,"",1
"534",2,1,608.830700000908,NA,NA,NA,NA,NA,NA,NA,NA,"",1
"535",1,1,897.49699999993,NA,NA,NA,NA,NA,NA,NA,NA,"",1
"536",2,1,490.739499999108,NA,NA,NA,NA,NA,NA,NA,NA,"",1
"537",1,1,1553.31889999979,NA,NA,NA,NA,NA,NA,NA,NA,"",1
"538",2,1,558.066199999303,NA,NA,NA,NA,NA,NA,NA,NA,"",1
"539",1,1,1743.30910000026,NA,NA,NA,NA,NA,NA,NA,NA,"",1
"540",2,1,655.046400001083,NA,NA,NA,NA,NA,NA,NA,NA,"",1
"541",1,1,1070.25939999949,NA,NA,NA,NA,NA,NA,NA,NA,"",1
"542",2,1,544.195500000569,NA,NA,NA,NA,NA,NA,NA,NA,"",1
"543",1,1,858.343400001104,NA,NA,NA,NA,NA,NA,NA,NA,"",1
"544",2,1,652.366300000722,NA,NA,NA,NA,NA,NA,NA,NA,"",1
"545",1,1,708.053100001052,NA,NA,NA,NA,NA,NA,NA,NA,"",1
"546",2,1,479.215700001077,NA,NA,NA,NA,NA,NA,NA,NA,"",1
"547",1,1,1501.05790000089,NA,NA,NA,NA,NA,NA,NA,NA,"",1
"548",2,1,614.327100000082,NA,NA,NA,NA,NA,NA,NA,NA,"",1
"549",1,1,670.866200000091,NA,NA,NA,NA,NA,NA,NA,NA,"",1
"550",2,1,539.493899999798,NA,NA,NA,NA,NA,NA,NA,NA,"",1
"551",1,1,1906.8696000013,NA,NA,NA,NA,NA,NA,NA,NA,"",1
"552",2,1,628.854100001263,NA,NA,NA,NA,NA,NA,NA,NA,"",1
"553",1,1,641.893500000151,NA,NA,NA,NA,NA,NA,NA,NA,"",1
"554",2,1,409.556200000225,NA,NA,NA,NA,NA,NA,NA,NA,"",1
"555",1,1,1593.99339999982,NA,NA,NA,NA,NA,NA,NA,NA,"",1
"556",2,1,583.868500001699,NA,NA,NA,NA,NA,NA,NA,NA,"",1
"557",1,1,570.065500000055,NA,NA,NA,NA,NA,NA,NA,NA,"",1
"558",2,1,385.557300000073,NA,NA,NA,NA,NA,NA,NA,NA,"",1
"559",1,1,562.817900001392,NA,NA,NA,NA,NA,NA,NA,NA,"",1
"560",2,1,672.199399999954,NA,NA,NA,NA,NA,NA,NA,NA,"",1
"561",1,1,533.820600001491,NA,NA,NA,NA,NA,NA,NA,NA,"",1
"562",2,1,540.714400001889,NA,NA,NA,NA,NA,NA,NA,NA,"",1
"563",1,1,1027.17409999968,NA,NA,NA,NA,NA,NA,NA,NA,"",1
"564",2,1,1828.13729999907,NA,NA,NA,NA,NA,NA,NA,NA,"",1
"565",1,1,658.372599998984,NA,NA,NA,NA,NA,NA,NA,NA,"",1
"566",2,1,666.083700001764,NA,NA,NA,NA,NA,NA,NA,NA,"",1
"567",1,0,684.401899998193,NA,NA,NA,NA,NA,NA,NA,NA,"",1
"568",2,1,1055.11099999785,NA,NA,NA,NA,NA,NA,NA,NA,"",1
"569",1,1,785.313700002007,NA,NA,NA,NA,NA,NA,NA,NA,"",1
"570",2,1,485.286600000109,NA,NA,NA,NA,NA,NA,NA,NA,"",1
"571",1,1,1801.13580000034,NA,NA,NA,NA,NA,NA,NA,NA,"",1
"572",2,1,484.886999998707,NA,NA,NA,NA,NA,NA,NA,NA,"",1
"573",1,1,940.275599998131,NA,NA,NA,NA,NA,NA,NA,NA,"",1
"574",2,1,1298.23559999932,NA,NA,NA,NA,NA,NA,NA,NA,"",1
"575",1,1,1377.18709999899,NA,NA,NA,NA,NA,NA,NA,NA,"",1
"576",2,1,439.376599999378,NA,NA,NA,NA,NA,NA,NA,NA,"",1
"577",1,1,882.304200000362,NA,NA,NA,NA,NA,NA,NA,NA,"",1
"578",2,1,845.588100000896,NA,NA,NA,NA,NA,NA,NA,NA,"",1
"579",1,1,1118.82119999791,NA,NA,NA,NA,NA,NA,NA,NA,"",1
"580",2,1,726.116699999693,NA,NA,NA,NA,NA,NA,NA,NA,"",1
"581",1,1,653.573700001289,NA,NA,NA,NA,NA,NA,NA,NA,"",1
"582",2,1,502.317200000107,NA,NA,NA,NA,NA,NA,NA,NA,"",1
"583",1,1,1644.52090000123,NA,NA,NA,NA,NA,NA,NA,NA,"",1
"584",2,1,574.39499999964,NA,NA,NA,NA,NA,NA,NA,NA,"",1
"585",1,1,609.504500000185,NA,NA,NA,NA,NA,NA,NA,NA,"",1
"586",2,1,574.94030000089,NA,NA,NA,NA,NA,NA,NA,NA,"",1
"587",1,1,708.705699998973,NA,NA,NA,NA,NA,NA,NA,NA,"",1
"588",2,1,744.033099999797,NA,NA,NA,NA,NA,NA,NA,NA,"",1
"589",1,1,576.375100001314,NA,NA,NA,NA,NA,NA,NA,NA,"",1
"590",2,1,753.761899999517,NA,NA,NA,NA,NA,NA,NA,NA,"",1
"591",1,1,604.900199999975,NA,NA,NA,NA,NA,NA,NA,NA,"",1
"592",2,1,820.512899997993,NA,NA,NA,NA,NA,NA,NA,NA,"",1
"593",1,1,526.203800000076,NA,NA,NA,NA,NA,NA,NA,NA,"",1
"594",2,1,723.409599999286,NA,NA,NA,NA,NA,NA,NA,NA,"",1
"595",1,1,672.555900000589,NA,NA,NA,NA,NA,NA,NA,NA,"",1
"596",2,1,638.721400002396,NA,NA,NA,NA,NA,NA,NA,NA,"",1
"597",1,1,1151.08959999998,NA,NA,NA,NA,NA,NA,NA,NA,"",1
"598",2,1,604.25799999939,NA,NA,NA,NA,NA,NA,NA,NA,"",1
"599",1,1,1189.19809999716,NA,NA,NA,NA,NA,NA,NA,NA,"",1
"600",2,1,480.862700002035,NA,NA,NA,NA,NA,NA,NA,NA,"",1
"601",1,1,1042.06110000086,NA,NA,NA,NA,NA,NA,NA,NA,"",1
"602",2,1,1096.37160000057,NA,NA,NA,NA,NA,NA,NA,NA,"",1
"603",1,1,538.878800001839,NA,NA,NA,NA,NA,NA,NA,NA,"",1
"604",2,1,734.918499998457,NA,NA,NA,NA,NA,NA,NA,NA,"",1
"605",1,1,1199.65660000162,NA,NA,NA,NA,NA,NA,NA,NA,"",1
"606",2,1,557.80749999758,NA,NA,NA,NA,NA,NA,NA,NA,"",1
"607",1,1,879.039899999043,NA,NA,NA,NA,NA,NA,NA,NA,"",1
"608",2,1,672.73429999841,NA,NA,NA,NA,NA,NA,NA,NA,"",1
"609",1,1,1388.80749999953,NA,NA,NA,NA,NA,NA,NA,NA,"",1
"610",2,1,573.898099999496,NA,NA,NA,NA,NA,NA,NA,NA,"",1
"611",1,0,1696.17170000129,NA,NA,NA,NA,NA,NA,NA,NA,"",1
"612",2,1,767.631900002016,NA,NA,NA,NA,NA,NA,NA,NA,"",1
"613",1,1,1067.91639999938,NA,NA,NA,NA,NA,NA,NA,NA,"",1
"614",2,1,553.689899999881,NA,NA,NA,NA,NA,NA,NA,NA,"",1
"615",1,1,1166.26650000035,NA,NA,NA,NA,NA,NA,NA,NA,"",1
"616",2,1,633.067500002653,NA,NA,NA,NA,NA,NA,NA,NA,"",1
"617",1,1,607.935799998813,NA,NA,NA,NA,NA,NA,NA,NA,"",1
"618",2,1,477.597500001139,NA,NA,NA,NA,NA,NA,NA,NA,"",1
"619",1,1,1354.20520000116,NA,NA,NA,NA,NA,NA,NA,NA,"",1
"620",2,1,680.604400000448,NA,NA,NA,NA,NA,NA,NA,NA,"",1
"621",1,1,599.120499999117,NA,NA,NA,NA,NA,NA,NA,NA,"",1
"622",2,1,751.417299998138,NA,NA,NA,NA,NA,NA,NA,NA,"",1
"623",1,1,656.906699998217,NA,NA,NA,NA,NA,NA,NA,NA,"",1
"624",2,1,2058.03419999938,NA,NA,NA,NA,NA,NA,NA,NA,"",1
"625",1,1,701.915199999348,NA,NA,NA,NA,NA,NA,NA,NA,"",1
"626",2,1,696.154900000693,NA,NA,NA,NA,NA,NA,NA,NA,"",1
"627",1,1,1260.27450000038,NA,NA,NA,NA,NA,NA,NA,NA,"",1
"628",2,1,686.2063999979,NA,NA,NA,NA,NA,NA,NA,NA,"",1
"629",1,1,774.193699999159,NA,NA,NA,NA,NA,NA,NA,NA,"",1
"630",2,1,510.338100000808,NA,NA,NA,NA,NA,NA,NA,NA,"",1
"631",1,1,1225.72299999956,NA,NA,NA,NA,NA,NA,NA,NA,"",1
"632",2,1,532.548499999393,NA,NA,NA,NA,NA,NA,NA,NA,"",1
"633",1,1,551.525899998524,NA,NA,NA,NA,NA,NA,NA,NA,"",1
"634",2,1,544.377100002748,NA,NA,NA,NA,NA,NA,NA,NA,"",1
"635",1,0,1020.63920000001,NA,NA,NA,NA,NA,NA,NA,NA,"",1
"636",2,1,1318.31130000137,NA,NA,NA,NA,NA,NA,NA,NA,"",1
"637",1,1,1033.51750000002,NA,NA,NA,NA,NA,NA,NA,NA,"",1
"638",2,1,489.45570000069,NA,NA,NA,NA,NA,NA,NA,NA,"",1
"639",1,1,806.433200003084,NA,NA,NA,NA,NA,NA,NA,NA,"",1
"640",2,1,632.214499997644,NA,NA,NA,NA,NA,NA,NA,NA,"",1
"641",NA,NA,NA,1,1,0,0,1,681.273599999258,1,1456.43700000073,"旺盛",1
"642",NA,NA,NA,0,1,0,1,1,555.979899996601,1,773.358300000837,"如愿",1
"643",NA,NA,NA,1,1,0,2,1,417.971999999281,1,673.819899999216,"清秀",1
"644",NA,NA,NA,1,1,0,3,1,519.769799997448,1,556.736900001852,"敬佩",1
"645",NA,NA,NA,1,0,0,4,1,473.005399999238,1,589.798199998768,"别扭",1
"646",NA,NA,NA,0,0,0,5,1,346.884700000373,0,540.916599999036,"怀疑",1
"647",NA,NA,NA,1,0,0,6,1,454.426100001001,1,618.995100001484,"沮丧",1
"648",NA,NA,NA,1,0,0,7,1,490.018599997711,1,577.118199998949,"冷笑",1
"649",NA,NA,NA,0,0,0,8,1,354.466900000261,1,580.563499999698,"黑暗",1
"650",NA,NA,NA,1,0,0,9,1,489.677800000209,1,536.138200001005,"悲观",1
"651",NA,NA,NA,1,1,0,10,1,468.046300000424,0,441.39290000021,"富足",1
"652",NA,NA,NA,0,1,0,11,1,482.34869999942,1,521.123999998963,"典雅",1
"653",NA,NA,NA,0,1,0,12,1,373.625800002628,1,471.972200000891,"羡慕",1
"654",NA,NA,NA,0,0,0,13,1,358.211900002061,1,567.94599999921,"厌恶",1
"655",NA,NA,NA,0,0,0,14,1,346.486499998719,1,539.078900001186,"撒谎",1
"656",NA,NA,NA,0,0,0,15,1,354.932900001586,1,653.810900003009,"慌忙",1
"657",NA,NA,NA,1,0,0,16,1,446.327300000121,1,572.903699998278,"烦恼",1
"658",NA,NA,NA,1,0,0,17,1,399.890500000765,1,450.997799998731,"消沉",1
"659",NA,NA,NA,0,0,0,18,1,425.88220000107,1,526.831899998797,"伤心",1
"660",NA,NA,NA,0,0,0,19,1,361.809199999698,1,536.393400001543,"堵塞",1
"661",NA,NA,NA,1,0,0,20,1,491.978400001244,1,574.022200002219,"杂乱",1
"662",NA,NA,NA,0,1,0,21,1,440.00810000216,1,566.033900002367,"诚恳",1
"663",NA,NA,NA,1,0,0,22,1,515.741100000014,1,488.47079999905,"鲁莽",1
"664",NA,NA,NA,0,1,0,23,1,355.607499997859,1,712.701899999956,"廉洁",1
"665",NA,NA,NA,0,0,0,24,1,287.264199996571,1,528.248800001165,"浪费",1
"666",NA,NA,NA,0,1,0,25,1,352.647899999283,1,542.69099999874,"前进",1
"667",NA,NA,NA,1,1,0,26,1,557.631799998489,1,440.676499998517,"热切",1
"668",NA,NA,NA,1,1,0,27,1,499.862099997699,1,537.956899999699,"充裕",1
"669",NA,NA,NA,1,1,0,28,1,517.604399999982,1,703.18540000153,"雄厚",1
"670",NA,NA,NA,1,1,0,29,1,428.53710000054,1,472.039800002676,"有利",1
"671",NA,NA,NA,0,1,0,30,1,464.412999997876,1,473.118599998998,"舒畅",1
"672",NA,NA,NA,0,0,0,31,1,356.853499997669,1,531.035500000144,"穷苦",1
"673",NA,NA,NA,0,1,0,32,1,369.175499999983,1,470.137199998135,"正直",1
"674",NA,NA,NA,1,1,0,33,1,465.666500000225,1,465.407799998502,"公平",1
"675",NA,NA,NA,0,1,0,34,1,417.847299999266,1,459.807399998681,"珍藏",1
"676",NA,NA,NA,0,1,0,35,1,319.924600000377,1,430.176199999551,"畅销",1
"677",NA,NA,NA,0,0,0,36,1,441.412099997251,0,430.80320000081,"轻率",1
"678",NA,NA,NA,0,0,0,37,1,504.102200000489,1,814.646899998479,"禁止",1
"679",NA,NA,NA,1,0,0,38,1,674.602099999902,1,538.813900002424,"自卑",1
"680",NA,NA,NA,1,1,0,39,1,537.165000001551,1,615.730000001349,"精致",1
"681",NA,NA,NA,1,0,0,40,1,501.483899999585,1,749.444900000526,"郁闷",1
"682",NA,NA,NA,1,0,0,41,1,601.043800001207,1,955.052200002683,"处罚",1
"683",NA,NA,NA,0,1,0,42,1,346.137900000031,1,497.808900003292,"赞成",1
"684",NA,NA,NA,0,0,0,43,1,395.814600000449,1,538.607399998,"罚款",1
"685",NA,NA,NA,0,0,0,44,1,304.470400002174,1,610.545399998955,"懒惰",1
"686",NA,NA,NA,0,1,0,45,1,369.098699997267,1,547.548300000926,"奉献",1
"687",NA,NA,NA,1,0,0,46,1,471.10690000045,1,562.200699998357,"嘲笑",1
"688",NA,NA,NA,1,1,0,47,1,515.720800001873,1,643.212399998447,"圣洁",1
"689",NA,NA,NA,1,0,0,48,1,481.091400000878,1,603.502399997524,"闷热",1
"690",NA,NA,NA,1,1,0,49,1,472.54029999749,1,578.610799999296,"鲜艳",1
"691",NA,NA,NA,1,1,0,50,1,467.008399999031,1,551.776599997538,"瑰丽",1
"692",NA,NA,NA,1,1,0,51,1,520.242000002327,1,676.879800001188,"生动",1
"693",NA,NA,NA,0,1,0,52,1,334.699600000022,1,690.434000000096,"豪放",1
"694",NA,NA,NA,1,0,0,53,1,496.887299999798,1,588.707799997792,"落后",1
"695",NA,NA,NA,0,0,0,54,1,371.60109999968,1,563.074699999561,"心慌",1
"696",NA,NA,NA,1,1,0,55,1,467.151600001671,1,581.657300001098,"吉祥",1
"697",NA,NA,NA,0,0,0,56,1,358.519500001421,1,584.243199999037,"争吵",1
"698",NA,NA,NA,0,1,0,57,1,385.515199999645,1,555.736300000717,"秀丽",1
"699",NA,NA,NA,1,1,0,58,1,440.600199999608,0,511.629799999355,"留恋",1
"700",NA,NA,NA,0,1,0,59,1,301.867400001356,1,475.737600001594,"爽朗",1
"701",NA,NA,NA,0,1,0,60,1,325.144899998122,1,577.590699998836,"俊秀",1
"702",NA,NA,NA,0,0,0,61,1,330.529099999694,1,480.641499998455,"焦躁",1
"703",NA,NA,NA,1,1,0,62,1,426.715300000069,1,459.921699999541,"富丽",1
"704",NA,NA,NA,0,0,0,63,1,726.616899999499,1,573.703300000489,"排斥",1
"705",NA,NA,NA,1,0,0,64,1,435.019100001227,1,718.951200000447,"逃避",1
"706",NA,NA,NA,1,0,0,65,1,664.389099998516,1,610.617499998625,"忧虑",1
"707",NA,NA,NA,1,1,0,66,1,482.937400000083,0,631.954000000405,"顽强",1
"708",NA,NA,NA,0,0,0,67,1,376.325000001088,1,565.264799999568,"胡涂",1
"709",NA,NA,NA,1,1,0,68,1,573.385399999097,1,592.908999999054,"永恒",1
"710",NA,NA,NA,0,0,0,69,1,499.94770000194,1,530.474700000923,"假冒",1
"711",NA,NA,NA,0,1,0,70,1,420.987199999217,1,590.710799999215,"丰满",1
"712",NA,NA,NA,1,0,0,71,1,514.446700002736,1,535.511199999746,"缺乏",1
"713",NA,NA,NA,0,1,0,72,1,345.113999999739,1,604.585600001883,"优雅",1
"714",NA,NA,NA,1,0,0,73,1,465.83660000033,1,590.176199999405,"损害",1
"715",NA,NA,NA,1,0,0,74,1,514.118600000074,1,679.246399999101,"丢失",1
"716",NA,NA,NA,1,0,0,75,1,482.489199999691,1,567.648899999767,"失意",1
"717",NA,NA,NA,0,1,0,76,1,349.66809999969,1,691.668300001766,"卓越",1
"718",NA,NA,NA,0,1,0,77,1,413.016899998183,1,816.210700002557,"享受",1
"719",NA,NA,NA,0,0,0,78,1,403.083799999877,1,536.903000000166,"孤单",1
"720",NA,NA,NA,1,1,0,79,1,434.818300000188,1,650.232699998014,"振作",1
"721",NA,NA,NA,0,0,1,0,1,346.891700002743,1,562.914800000726,"轻率",1
"722",NA,NA,NA,0,0,1,1,1,398.973299998033,1,466.611599997123,"穷苦",1
"723",NA,NA,NA,0,0,1,2,1,346.127500000875,1,477.541600001132,"冷笑",1
"724",NA,NA,NA,1,0,1,3,1,436.601899997186,1,671.521500000381,"别扭",1
"725",NA,NA,NA,1,1,1,4,1,434.445499999129,1,481.102900001133,"富足",1
"726",NA,NA,NA,0,1,1,5,1,500.628800000413,0,512.494200000219,"热切",1
"727",NA,NA,NA,1,1,1,6,1,489.040000000386,1,505.425700001069,"生动",1
"728",NA,NA,NA,0,0,1,7,1,446.477600002254,1,459.170499998436,"烦恼",1
"729",NA,NA,NA,0,0,1,8,1,448.146099999576,1,485.30970000138,"黑暗",1
"730",NA,NA,NA,0,0,1,9,1,368.035999999847,1,519.884499997715,"伤心",1
"731",NA,NA,NA,1,0,1,10,1,441.698300001008,1,424.20409999977,"厌恶",1
"732",NA,NA,NA,1,0,1,11,1,485.301799999434,1,662.969900000462,"焦躁",1
"733",NA,NA,NA,1,1,1,12,1,481.453899999906,1,630.104700001539,"留恋",1
"734",NA,NA,NA,0,1,1,13,1,363.719299999502,1,593.265899999096,"旺盛",1
"735",NA,NA,NA,1,1,1,14,1,456.436899999972,1,546.280900001875,"羡慕",1
"736",NA,NA,NA,0,0,1,15,1,665.391200000158,1,543.682899999112,"嘲笑",1
"737",NA,NA,NA,1,0,1,16,1,501.655200001551,1,452.882599998702,"消沉",1
"738",NA,NA,NA,1,0,1,17,1,419.372300002578,1,545.454499999323,"孤单",1
"739",NA,NA,NA,0,1,1,18,1,348.040999997465,1,494.458600001963,"富丽",1
"740",NA,NA,NA,1,1,1,19,1,501.381600002787,1,658.066299998609,"精致",1
"741",NA,NA,NA,0,1,1,20,1,442.931599998701,1,545.949600000313,"充裕",1
"742",NA,NA,NA,1,0,1,21,1,491.296800002601,1,532.353499998862,"禁止",1
"743",NA,NA,NA,0,0,1,22,1,314.685199999076,1,507.755599999655,"丢失",1
"744",NA,NA,NA,1,1,1,23,1,531.479699999181,1,681.888700000854,"俊秀",1
"745",NA,NA,NA,1,0,1,24,1,413.322000000335,1,548.827999999048,"沮丧",1
"746",NA,NA,NA,0,0,1,25,1,478.319000001648,1,571.883000000525,"怀疑",1
"747",NA,NA,NA,1,1,1,26,1,676.972699999169,1,516.857800001162,"敬佩",1
"748",NA,NA,NA,0,0,1,27,1,317.324200001167,1,547.079500000109,"鲁莽",1
"749",NA,NA,NA,1,0,1,28,1,419.4204000014,1,678.573799999867,"自卑",1
"750",NA,NA,NA,0,0,1,29,1,467.999199998303,1,612.355900000694,"闷热",1
"751",NA,NA,NA,0,1,1,30,1,361.042199998337,1,609.053899999708,"舒畅",1
"752",NA,NA,NA,0,0,1,31,1,347.815700002684,1,473.054199999751,"处罚",1
"753",NA,NA,NA,1,1,1,32,1,493.645800001104,1,621.233600002597,"典雅",1
"754",NA,NA,NA,1,0,1,33,1,604.879799997434,1,593.592200002604,"损害",1
"755",NA,NA,NA,1,0,1,34,1,412.674899998819,1,522.518599998875,"杂乱",1
"756",NA,NA,NA,1,1,1,35,1,455.75910000116,1,522.525000000314,"秀丽",1
"757",NA,NA,NA,0,1,1,36,1,377.922100000433,1,603.111599997646,"豪放",1
"758",NA,NA,NA,1,0,1,37,1,428.647500000807,1,648.820599999453,"忧虑",1
"759",NA,NA,NA,0,1,1,38,1,383.021300000109,1,551.130100000591,"有利",1
"760",NA,NA,NA,1,1,1,39,1,445.949100001599,1,511.321900001349,"享受",1
"761",NA,NA,NA,1,0,1,40,1,456.497600000148,1,480.025900000328,"逃避",1
"762",NA,NA,NA,1,1,1,41,1,436.747300002025,1,488.693399998738,"瑰丽",1
"763",NA,NA,NA,0,1,1,42,1,385.700100003305,1,641.441699997813,"圣洁",1
"764",NA,NA,NA,0,0,1,43,1,396.166200000152,1,442.468099998223,"排斥",1
"765",NA,NA,NA,0,1,1,44,1,356.053999999858,1,657.754399999249,"雄厚",1
"766",NA,NA,NA,0,0,1,45,1,365.707099997962,1,472.74760000073,"撒谎",1
"767",NA,NA,NA,1,0,1,46,1,541.669499998534,0,382.461999997759,"悲观",1
"768",NA,NA,NA,0,1,1,47,1,449.104900002567,1,521.547600001213,"赞成",1
"769",NA,NA,NA,1,1,1,48,1,639.828499999567,1,544.166300001962,"吉祥",1
"770",NA,NA,NA,1,0,1,49,1,490.838900001108,1,473.83279999849,"失意",1
"771",NA,NA,NA,1,1,1,50,1,504.022500001156,1,495.497299998533,"珍藏",1
"772",NA,NA,NA,1,1,1,51,1,459.16859999852,1,568.863099997543,"如愿",1
"773",NA,NA,NA,1,1,1,52,1,473.302599999442,1,499.256900002365,"卓越",1
"774",NA,NA,NA,1,1,1,53,1,548.970799998642,1,523.271800000657,"前进",1
"775",NA,NA,NA,1,0,1,54,1,484.761899999285,1,686.02699999974,"堵塞",1
"776",NA,NA,NA,1,0,1,55,1,468.672700000752,1,526.940299998387,"浪费",1
"777",NA,NA,NA,0,1,1,56,1,392.521699999634,0,447.936000000482,"公平",1
"778",NA,NA,NA,0,1,1,57,1,491.986499997438,1,642.406399998436,"顽强",1
"779",NA,NA,NA,1,0,1,58,1,400.902000001224,1,543.972100000246,"落后",1
"780",NA,NA,NA,0,0,1,59,1,606.320299997606,1,520.024900000863,"慌忙",1
"781",NA,NA,NA,0,0,1,60,1,601.597799999581,1,489.413899998908,"假冒",1
"782",NA,NA,NA,0,0,1,61,1,432.059699996898,1,521.734800000559,"胡涂",1
"783",NA,NA,NA,0,0,1,62,1,395.584599998983,1,587.221699999645,"懒惰",1
"784",NA,NA,NA,0,1,1,63,1,388.798600000882,1,599.433899998985,"丰满",1
"785",NA,NA,NA,0,1,1,64,1,269.53290000165,1,787.802200000442,"爽朗",1
"786",NA,NA,NA,1,1,1,65,1,434.219900002063,1,467.818400000397,"奉献",1
"787",NA,NA,NA,0,0,1,66,1,507.22450000103,1,441.449199999624,"缺乏",1
"788",NA,NA,NA,0,1,1,67,1,577.855599996838,1,561.851299997215,"清秀",1
"789",NA,NA,NA,0,1,1,68,1,1295.0165000002,1,660.49429999839,"诚恳",1
"790",NA,NA,NA,1,0,1,69,1,680.25100000159,1,595.363899999938,"罚款",1
"791",NA,NA,NA,0,1,1,70,1,456.833800002642,1,573.592699998699,"鲜艳",1
"792",NA,NA,NA,0,1,1,71,1,330.666499998188,1,598.692999999912,"正直",1
"793",NA,NA,NA,0,0,1,72,1,372.848599999998,1,497.881100000086,"争吵",1
"794",NA,NA,NA,0,1,1,73,1,362.143899998046,1,555.381099999067,"振作",1
"795",NA,NA,NA,1,0,1,74,1,498.204100000294,1,456.474099999468,"心慌",1
"796",NA,NA,NA,1,1,1,75,1,439.212599998427,0,418.142000002263,"畅销",1
"797",NA,NA,NA,1,1,1,76,1,414.236200002051,1,444.22730000224,"优雅",1
"798",NA,NA,NA,0,1,1,77,1,367.84290000287,1,839.899699996749,"廉洁",1
"799",NA,NA,NA,1,1,1,78,1,413.308099999995,1,499.375200000941,"永恒",1
"800",NA,NA,NA,1,0,1,79,1,381.567700002051,1,623.241600002075,"郁闷",1
"801",NA,NA,NA,0,0,2,0,1,351.986699999543,1,575.846499999898,"胡涂",1
"802",NA,NA,NA,0,1,2,1,1,477.746000000479,1,620.409900002414,"顽强",1
"803",NA,NA,NA,0,1,2,2,1,348.224900000787,1,576.273999999103,"清秀",1
"804",NA,NA,NA,1,1,2,3,1,473.515500001668,1,469.18899999946,"羡慕",1
"805",NA,NA,NA,0,1,2,4,1,300.83409999861,1,375.297599999612,"前进",1
"806",NA,NA,NA,1,1,2,5,0,264.83449999796,1,692.664700000023,"正直",1
"807",NA,NA,NA,1,0,2,6,1,519.217000000936,1,496.959299998707,"罚款",1
"808",NA,NA,NA,0,0,2,7,1,377.05079999796,1,701.349799997843,"鲁莽",1
"809",NA,NA,NA,1,1,2,8,1,503.041500000108,1,514.102599998296,"瑰丽",1
"810",NA,NA,NA,1,0,2,9,1,483.048300000519,1,465.114800001174,"假冒",1
"811",NA,NA,NA,0,0,2,10,1,381.621100001212,1,598.12100000272,"沮丧",1
"812",NA,NA,NA,0,0,2,11,1,477.175399999396,1,565.237599999818,"杂乱",1
"813",NA,NA,NA,0,0,2,12,1,313.55160000021,1,516.67880000241,"争吵",1
"814",NA,NA,NA,0,0,2,13,1,287.970699999278,1,539.69049999796,"心慌",1
"815",NA,NA,NA,0,1,2,14,1,490.211100001034,1,603.402500000811,"卓越",1
"816",NA,NA,NA,0,0,2,15,1,367.979700000433,1,616.81850000241,"懒惰",1
"817",NA,NA,NA,1,1,2,16,1,470.66999999879,1,529.22480000052,"圣洁",1
"818",NA,NA,NA,1,0,2,17,1,470.255799998995,1,491.540300001361,"黑暗",1
"819",NA,NA,NA,1,0,2,18,1,557.135700000799,1,525.29929999946,"怀疑",1
"820",NA,NA,NA,1,1,2,19,1,499.202100003458,1,562.265299999126,"舒畅",1
"821",NA,NA,NA,1,0,2,20,1,400.281999998697,1,677.702599998156,"失意",1
"822",NA,NA,NA,0,1,2,21,1,330.899199998385,1,568.852700002026,"典雅",1
"823",NA,NA,NA,1,1,2,22,1,462.347799999407,1,635.859199999686,"生动",1
"824",NA,NA,NA,1,1,2,23,1,467.290200002026,1,599.055299997417,"如愿",1
"825",NA,NA,NA,1,0,2,24,1,429.429600000731,1,533.489999997983,"排斥",1
"826",NA,NA,NA,0,0,2,25,1,400.746499999514,1,534.275199999684,"厌恶",1
"827",NA,NA,NA,0,0,2,26,1,797.06570000053,1,570.29859999966,"冷笑",1
"828",NA,NA,NA,1,0,2,27,1,475.287699999171,1,473.076899997977,"缺乏",1
"829",NA,NA,NA,0,1,2,28,1,390.670999997383,1,568.392100001802,"吉祥",1
"830",NA,NA,NA,1,0,2,29,1,583.879600002547,1,491.003600000113,"忧虑",1
"831",NA,NA,NA,0,1,2,30,1,369.628000000375,1,536.456599998928,"富足",1
"832",NA,NA,NA,0,0,2,31,1,462.519400000019,1,510.972599997331,"孤单",1
"833",NA,NA,NA,1,1,2,32,1,594.734499998594,1,885.073099998408,"有利",1
"834",NA,NA,NA,1,1,2,33,1,414.3828999986,1,441.833999997471,"永恒",1
"835",NA,NA,NA,1,1,2,34,1,497.476700002153,1,741.034200000286,"廉洁",1
"836",NA,NA,NA,1,0,2,35,1,508.796499998425,1,533.80709999692,"别扭",1
"837",NA,NA,NA,0,1,2,36,1,361.32759999964,1,647.397699998692,"留恋",1
"838",NA,NA,NA,1,0,2,37,1,411.115400002018,1,521.137199997611,"堵塞",1
"839",NA,NA,NA,0,0,2,38,1,398.214299999381,1,611.630700001115,"落后",1
"840",NA,NA,NA,1,1,2,39,1,430.355800002872,1,483.70100000102,"诚恳",1
"841",NA,NA,NA,0,0,2,40,1,347.062599998026,1,495.214300000953,"自卑",1
"842",NA,NA,NA,0,1,2,41,1,348.2019999974,1,730.48320000089,"畅销",1
"843",NA,NA,NA,1,0,2,42,1,684.244899999612,1,427.598599999328,"焦躁",1
"844",NA,NA,NA,0,0,2,43,1,416.762000000745,1,452.246900000318,"穷苦",1
"845",NA,NA,NA,1,0,2,44,1,557.818599998427,1,439.227400001982,"撒谎",1
"846",NA,NA,NA,1,1,2,45,1,453.143199996703,1,527.614399998129,"秀丽",1
"847",NA,NA,NA,1,1,2,46,1,462.697000002663,1,673.084000001836,"公平",1
"848",NA,NA,NA,0,0,2,47,1,377.867800001695,1,575.530300000537,"浪费",1
"849",NA,NA,NA,0,1,2,48,1,365.811400002713,1,664.693199996691,"旺盛",1
"850",NA,NA,NA,0,1,2,49,1,326.314900001307,1,527.25780000037,"珍藏",1
"851",NA,NA,NA,0,1,2,50,1,446.500900001411,1,592.792000003101,"俊秀",1
"852",NA,NA,NA,0,0,2,51,1,302.107100000285,1,455.80770000015,"损害",1
"853",NA,NA,NA,0,1,2,52,1,388.359599997784,1,579.476500002784,"优雅",1
"854",NA,NA,NA,1,0,2,53,1,447.646600001463,1,759.185000002617,"丢失",1
"855",NA,NA,NA,0,0,2,54,1,372.7386999999,1,676.772499999061,"烦恼",1
"856",NA,NA,NA,0,1,2,55,1,321.07509999696,1,646.932599996944,"充裕",1
"857",NA,NA,NA,0,0,2,56,1,362.100900001678,1,464.678000000276,"轻率",1
"858",NA,NA,NA,1,0,2,57,1,419.895099999849,1,397.638500002358,"伤心",1
"859",NA,NA,NA,0,1,2,58,1,346.936600002664,0,418.901299999561,"奉献",1
"860",NA,NA,NA,0,0,2,59,1,356.664499999169,1,457.596800002648,"逃避",1
"861",NA,NA,NA,0,1,2,60,1,305.656900000031,1,435.256000000663,"丰满",1
"862",NA,NA,NA,0,1,2,61,1,337.29669999957,1,611.817800003337,"精致",1
"863",NA,NA,NA,0,1,2,62,1,291.98610000094,1,455.93369999915,"赞成",1
"864",NA,NA,NA,1,1,2,63,1,452.26669999829,1,455.245500001183,"享受",1
"865",NA,NA,NA,1,0,2,64,1,506.90399999803,1,555.295899997873,"消沉",1
"866",NA,NA,NA,1,1,2,65,1,474.360600001091,1,564.355300000898,"雄厚",1
"867",NA,NA,NA,1,1,2,66,0,NA,1,844.1378000025,"热切",1
"868",NA,NA,NA,1,0,2,67,1,499.809499997355,1,643.365699997958,"郁闷",1
"869",NA,NA,NA,1,0,2,68,1,479.672000001301,1,624.729700000898,"嘲笑",1
"870",NA,NA,NA,1,0,2,69,1,412.290500000381,1,556.325400000787,"禁止",1
"871",NA,NA,NA,0,1,2,70,1,498.589400001947,1,511.389100000088,"豪放",1
"872",NA,NA,NA,1,1,2,71,1,415.798199999699,1,599.831800001994,"鲜艳",1
"873",NA,NA,NA,0,0,2,72,1,537.744600002043,1,593.255400002818,"悲观",1
"874",NA,NA,NA,0,0,2,73,1,675.293500000407,1,608.810900001117,"慌忙",1
"875",NA,NA,NA,1,1,2,74,1,519.0539000032,1,845.26029999688,"振作",1
"876",NA,NA,NA,1,0,2,75,1,578.357200000028,1,623.445500001253,"闷热",1
"877",NA,NA,NA,1,1,2,76,1,415.95579999921,1,616.147000000637,"敬佩",1
"878",NA,NA,NA,1,0,2,77,1,431.402900001558,1,515.529500000412,"处罚",1
"879",NA,NA,NA,0,1,2,78,1,412.19799999817,1,495.846199999505,"富丽",1
"880",NA,NA,NA,1,1,2,79,1,511.35350000186,1,604.735299999447,"爽朗",1
"881",NA,NA,NA,1,0,3,0,1,457.957899998291,1,548.034100000223,"逃避",1
"882",NA,NA,NA,0,0,3,1,1,506.027899999026,1,512.79649999924,"自卑",1
"883",NA,NA,NA,0,0,3,2,1,452.780999999959,1,555.776199998945,"闷热",1
"884",NA,NA,NA,0,1,3,3,1,442.631099998835,1,401.996000000509,"诚恳",1
"885",NA,NA,NA,0,0,3,4,1,310.686400000122,1,371.855099998356,"撒谎",1
"886",NA,NA,NA,0,0,3,5,1,352.404100001877,1,393.464500000846,"浪费",1
"887",NA,NA,NA,0,0,3,6,1,380.294999999023,1,396.927400001005,"焦躁",1
"888",NA,NA,NA,1,1,3,7,1,430.317699996522,1,499.229199998808,"珍藏",1
"889",NA,NA,NA,1,0,3,8,1,428.540100001555,1,549.10960000052,"厌恶",1
"890",NA,NA,NA,0,1,3,9,1,324.703500002215,1,630.319699997926,"前进",1
"891",NA,NA,NA,0,0,3,10,1,273.413100003381,1,385.37340000039,"孤单",1
"892",NA,NA,NA,1,0,3,11,1,386.247200000071,1,403.44130000085,"冷笑",1
"893",NA,NA,NA,1,0,3,12,1,436.504299999797,1,471.093899999687,"别扭",1
"894",NA,NA,NA,1,0,3,13,1,424.386099999538,1,507.517999998527,"烦恼",1
"895",NA,NA,NA,1,1,3,14,1,508.200999996916,0,344.254499999806,"畅销",1
"896",NA,NA,NA,1,1,3,15,1,429.217700002482,1,507.704799998464,"热切",1
"897",NA,NA,NA,0,1,3,16,1,375.62909999906,1,521.035300000221,"公平",1
"898",NA,NA,NA,0,1,3,17,1,334.718300000532,1,653.016899999784,"有利",1
"899",NA,NA,NA,1,1,3,18,1,403.499399999419,1,696.782200000598,"廉洁",1
"900",NA,NA,NA,1,0,3,19,1,354.110799999034,1,543.364900000597,"堵塞",1
"901",NA,NA,NA,1,0,3,20,1,394.636000000901,1,493.094699999347,"落后",1
"902",NA,NA,NA,1,1,3,21,1,628.992300000391,1,604.941800000233,"豪放",1
"903",NA,NA,NA,1,0,3,22,1,639.545499998349,1,518.020100000285,"胡涂",1
"904",NA,NA,NA,1,1,3,23,1,399.053900000581,1,726.87230000156,"顽强",1
"905",NA,NA,NA,1,0,3,24,1,588.420599997335,1,530.733700001292,"悲观",1
"906",NA,NA,NA,1,0,3,25,1,448.703000001842,1,479.407899998478,"缺乏",1
"907",NA,NA,NA,1,1,3,26,1,455.739799999719,1,453.128600001946,"生动",1
"908",NA,NA,NA,0,1,3,27,1,489.945799999987,1,572.350200000074,"奉献",1
"909",NA,NA,NA,0,1,3,28,1,373.120500000368,1,510.5212999988,"充裕",1
"910",NA,NA,NA,0,0,3,29,1,399.708000000828,1,499.352400001953,"伤心",1
"911",NA,NA,NA,1,1,3,30,1,390.47969999956,1,654.415400000289,"如愿",1
"912",NA,NA,NA,1,0,3,31,1,422.961899999791,1,536.669200002507,"心慌",1
"913",NA,NA,NA,1,0,3,32,1,437.777900002402,1,405.825100002403,"罚款",1
"914",NA,NA,NA,1,1,3,33,1,483.242499998596,1,631.968300000153,"卓越",1
"915",NA,NA,NA,1,1,3,34,1,438.747199998033,1,478.020300000935,"圣洁",1
"916",NA,NA,NA,0,1,3,35,1,481.127200000628,1,549.216300001717,"振作",1
"917",NA,NA,NA,1,0,3,36,1,392.504800001916,1,476.351000001159,"丢失",1
"918",NA,NA,NA,0,0,3,37,1,566.21559999985,1,820.945700001175,"争吵",1
"919",NA,NA,NA,1,0,3,38,1,975.418899997749,1,517.011399999319,"慌忙",1
"920",NA,NA,NA,1,0,3,39,1,593.946199998754,1,576.507600002515,"忧虑",1
"921",NA,NA,NA,0,1,3,40,1,337.462600000435,1,545.726899999863,"俊秀",1
"922",NA,NA,NA,1,1,3,41,1,417.137100001128,1,378.701499997987,"留恋",1
"923",NA,NA,NA,0,1,3,42,1,319.501699999819,1,477.47420000087,"精致",1
"924",NA,NA,NA,1,1,3,43,1,467.840599998453,1,740.561799997522,"享受",1
"925",NA,NA,NA,0,1,3,44,1,523.102600000129,1,454.086700003245,"鲜艳",1
"926",NA,NA,NA,0,1,3,45,1,395.106300002226,1,496.41320000228,"吉祥",1
"927",NA,NA,NA,0,0,3,46,1,353.862599997228,1,525.633699999162,"黑暗",1
"928",NA,NA,NA,0,1,3,47,1,654.384499997832,1,542.32779999802,"赞成",1
"929",NA,NA,NA,0,1,3,48,1,316.287500001636,1,497.850399999152,"永恒",1
"930",NA,NA,NA,1,0,3,49,0,278.879900000902,1,1342.60749999885,"损害",1
"931",NA,NA,NA,1,1,3,50,1,448.568799998611,1,583.582200000819,"典雅",1
"932",NA,NA,NA,0,0,3,51,1,413.606999998592,1,651.965499997459,"假冒",1
"933",NA,NA,NA,0,0,3,52,1,351.544500001182,1,628.708699998242,"杂乱",1
"934",NA,NA,NA,0,0,3,53,1,364.4123999984,1,536.7989999977,"懒惰",1
"935",NA,NA,NA,0,0,3,54,1,332.278900001256,1,476.843899999949,"失意",1
"936",NA,NA,NA,0,1,3,55,1,373.706300000777,1,596.506000001682,"旺盛",1
"937",NA,NA,NA,1,1,3,56,1,642.976999999519,1,498.114100002567,"爽朗",1
"938",NA,NA,NA,0,0,3,57,1,371.486299998651,1,500.718700001016,"禁止",1
"939",NA,NA,NA,1,1,3,58,1,448.525100000552,0,650.53110000008,"富足",1
"940",NA,NA,NA,0,0,3,59,1,468.430899996747,1,661.501099999441,"排斥",1
"941",NA,NA,NA,1,1,3,60,1,499.842400000489,1,488.297899999452,"瑰丽",1
"942",NA,NA,NA,0,1,3,61,1,410.65399999934,1,765.364999999292,"清秀",1
"943",NA,NA,NA,0,1,3,62,1,448.072800001682,1,434.893400000874,"羡慕",1
"944",NA,NA,NA,0,1,3,63,1,343.503600000986,1,467.812499999127,"雄厚",1
"945",NA,NA,NA,0,0,3,64,1,346.257899996999,0,397.965399999521,"鲁莽",1
"946",NA,NA,NA,0,1,3,65,1,411.959699998988,1,544.168500000524,"秀丽",1
"947",NA,NA,NA,0,1,3,66,1,306.405800001812,1,488.837500000955,"敬佩",1
"948",NA,NA,NA,1,1,3,67,1,626.029099999869,1,731.360300000233,"舒畅",1
"949",NA,NA,NA,0,0,3,68,1,312.108599999192,1,529.626700001245,"沮丧",1
"950",NA,NA,NA,1,0,3,69,1,465.317700000014,1,209.70760000273,"郁闷",1
"951",NA,NA,NA,1,1,3,70,1,653.250900002604,1,535.856100003002,"丰满",1
"952",NA,NA,NA,1,1,3,71,1,466.201400002319,1,732.257199997548,"优雅",1
"953",NA,NA,NA,1,0,3,72,1,521.409799999674,1,622.28309999773,"消沉",1
"954",NA,NA,NA,1,1,3,73,1,504.621600000974,1,568.991799998912,"正直",1
"955",NA,NA,NA,0,1,3,74,1,469.914400000562,1,552.421100001084,"富丽",1
"956",NA,NA,NA,1,0,3,75,1,457.034600000043,1,790.477200000169,"处罚",1
"957",NA,NA,NA,0,0,3,76,1,492.966599998908,1,588.472899999033,"穷苦",1
"958",NA,NA,NA,0,0,3,77,1,438.578500001313,1,683.039300001838,"轻率",1
"959",NA,NA,NA,0,0,3,78,1,343.612500000745,1,607.174600001599,"嘲笑",1
"960",NA,NA,NA,1,0,3,79,1,480.650400000741,1,448.739199997362,"怀疑",1
"961",1,1,850.147100005415,NA,NA,NA,NA,NA,NA,NA,NA,"",2
"962",2,1,1253.31230000302,NA,NA,NA,NA,NA,NA,NA,NA,"",2
"963",1,1,944.953300000634,NA,NA,NA,NA,NA,NA,NA,NA,"",2
"964",2,1,595.778300004895,NA,NA,NA,NA,NA,NA,NA,NA,"",2
"965",1,1,1672.27919999277,NA,NA,NA,NA,NA,NA,NA,NA,"",2
"966",2,1,713.273900008062,NA,NA,NA,NA,NA,NA,NA,NA,"",2
"967",1,1,810.844499996165,NA,NA,NA,NA,NA,NA,NA,NA,"",2
"968",2,1,612.750200001756,NA,NA,NA,NA,NA,NA,NA,NA,"",2
"969",1,1,742.483100009849,NA,NA,NA,NA,NA,NA,NA,NA,"",2
"970",2,1,669.263300005696,NA,NA,NA,NA,NA,NA,NA,NA,"",2
"971",1,0,1920.95999998855,NA,NA,NA,NA,NA,NA,NA,NA,"",2
"972",2,0,1111.0905999958,NA,NA,NA,NA,NA,NA,NA,NA,"",2
"973",1,0,NA,NA,NA,NA,NA,NA,NA,NA,NA,"",2
"974",2,1,1291.65499999363,NA,NA,NA,NA,NA,NA,NA,NA,"",2
"975",1,1,1257.0085000043,NA,NA,NA,NA,NA,NA,NA,NA,"",2
"976",2,1,572.091100009857,NA,NA,NA,NA,NA,NA,NA,NA,"",2
"977",1,1,1319.07150000916,NA,NA,NA,NA,NA,NA,NA,NA,"",2
"978",2,1,587.129799998365,NA,NA,NA,NA,NA,NA,NA,NA,"",2
"979",1,1,627.94859999849,NA,NA,NA,NA,NA,NA,NA,NA,"",2
"980",2,1,940.691900003003,NA,NA,NA,NA,NA,NA,NA,NA,"",2
"981",1,1,796.376099999179,NA,NA,NA,NA,NA,NA,NA,NA,"",2
"982",2,1,652.249200007645,NA,NA,NA,NA,NA,NA,NA,NA,"",2
"983",1,1,1129.48449999385,NA,NA,NA,NA,NA,NA,NA,NA,"",2
"984",2,1,581.465000010212,NA,NA,NA,NA,NA,NA,NA,NA,"",2
"985",1,1,845.252699989942,NA,NA,NA,NA,NA,NA,NA,NA,"",2
"986",2,1,449.372200004291,NA,NA,NA,NA,NA,NA,NA,NA,"",2
"987",1,1,1278.26419999474,NA,NA,NA,NA,NA,NA,NA,NA,"",2
"988",2,1,817.129199989722,NA,NA,NA,NA,NA,NA,NA,NA,"",2
"989",1,0,1340.54190000461,NA,NA,NA,NA,NA,NA,NA,NA,"",2
"990",2,0,1684.31009999767,NA,NA,NA,NA,NA,NA,NA,NA,"",2
"991",1,0,2992.02470001183,NA,NA,NA,NA,NA,NA,NA,NA,"",2
"992",2,0,703.595700004371,NA,NA,NA,NA,NA,NA,NA,NA,"",2
"993",1,0,2536.97939999984,NA,NA,NA,NA,NA,NA,NA,NA,"",2
"994",2,1,1051.24529999739,NA,NA,NA,NA,NA,NA,NA,NA,"",2
"995",1,0,582.08900000318,NA,NA,NA,NA,NA,NA,NA,NA,"",2
"996",2,0,601.000899987412,NA,NA,NA,NA,NA,NA,NA,NA,"",2
"997",1,1,2869.12129999837,NA,NA,NA,NA,NA,NA,NA,NA,"",2
"998",2,1,1299.79999999341,NA,NA,NA,NA,NA,NA,NA,NA,"",2
"999",1,1,837.739099995815,NA,NA,NA,NA,NA,NA,NA,NA,"",2
"1000",2,1,710.682400007499,NA,NA,NA,NA,NA,NA,NA,NA,"",2
"1001",1,1,841.629000002285,NA,NA,NA,NA,NA,NA,NA,NA,"",2
"1002",2,1,582.247399986954,NA,NA,NA,NA,NA,NA,NA,NA,"",2
"1003",1,1,1541.91499999433,NA,NA,NA,NA,NA,NA,NA,NA,"",2
"1004",2,1,637.798299998394,NA,NA,NA,NA,NA,NA,NA,NA,"",2
"1005",1,1,1159.77549999661,NA,NA,NA,NA,NA,NA,NA,NA,"",2
"1006",2,1,584.734900010517,NA,NA,NA,NA,NA,NA,NA,NA,"",2
"1007",1,1,1349.77830000571,NA,NA,NA,NA,NA,NA,NA,NA,"",2
"1008",2,1,950.343000004068,NA,NA,NA,NA,NA,NA,NA,NA,"",2
"1009",1,1,1099.10099999979,NA,NA,NA,NA,NA,NA,NA,NA,"",2
"1010",2,1,478.635199993732,NA,NA,NA,NA,NA,NA,NA,NA,"",2
"1011",1,1,1108.30540000461,NA,NA,NA,NA,NA,NA,NA,NA,"",2
"1012",2,1,731.530699995346,NA,NA,NA,NA,NA,NA,NA,NA,"",2
"1013",1,1,933.339700000943,NA,NA,NA,NA,NA,NA,NA,NA,"",2
"1014",2,1,1509.17290001235,NA,NA,NA,NA,NA,NA,NA,NA,"",2
"1015",1,1,1112.92559999856,NA,NA,NA,NA,NA,NA,NA,NA,"",2
"1016",2,1,614.910200005397,NA,NA,NA,NA,NA,NA,NA,NA,"",2
"1017",1,1,2309.69219999679,NA,NA,NA,NA,NA,NA,NA,NA,"",2
"1018",2,1,520.490800001426,NA,NA,NA,NA,NA,NA,NA,NA,"",2
"1019",1,1,934.684100007871,NA,NA,NA,NA,NA,NA,NA,NA,"",2
"1020",2,1,1704.44209998823,NA,NA,NA,NA,NA,NA,NA,NA,"",2
"1021",1,1,746.142100004363,NA,NA,NA,NA,NA,NA,NA,NA,"",2
"1022",2,1,848.446200005128,NA,NA,NA,NA,NA,NA,NA,NA,"",2
"1023",1,1,1450.29239999712,NA,NA,NA,NA,NA,NA,NA,NA,"",2
"1024",2,1,607.818200005568,NA,NA,NA,NA,NA,NA,NA,NA,"",2
"1025",1,1,611.654899999849,NA,NA,NA,NA,NA,NA,NA,NA,"",2
"1026",2,1,548.466199994436,NA,NA,NA,NA,NA,NA,NA,NA,"",2
"1027",1,0,1308.41130000772,NA,NA,NA,NA,NA,NA,NA,NA,"",2
"1028",2,1,905.254699988291,NA,NA,NA,NA,NA,NA,NA,NA,"",2
"1029",1,1,1294.95419999876,NA,NA,NA,NA,NA,NA,NA,NA,"",2
"1030",2,1,654.483899998013,NA,NA,NA,NA,NA,NA,NA,NA,"",2
"1031",1,1,1273.92279999913,NA,NA,NA,NA,NA,NA,NA,NA,"",2
"1032",2,1,579.688600002555,NA,NA,NA,NA,NA,NA,NA,NA,"",2
"1033",1,1,680.646699998761,NA,NA,NA,NA,NA,NA,NA,NA,"",2
"1034",2,1,565.88360000751,NA,NA,NA,NA,NA,NA,NA,NA,"",2
"1035",1,0,583.564999993541,NA,NA,NA,NA,NA,NA,NA,NA,"",2
"1036",2,1,974.695099997916,NA,NA,NA,NA,NA,NA,NA,NA,"",2
"1037",1,1,1054.28459998802,NA,NA,NA,NA,NA,NA,NA,NA,"",2
"1038",2,1,628.620799994678,NA,NA,NA,NA,NA,NA,NA,NA,"",2
"1039",1,1,1166.6128999932,NA,NA,NA,NA,NA,NA,NA,NA,"",2
"1040",2,1,684.987700005877,NA,NA,NA,NA,NA,NA,NA,NA,"",2
"1041",1,1,1104.47299999942,NA,NA,NA,NA,NA,NA,NA,NA,"",2
"1042",2,1,504.471300009754,NA,NA,NA,NA,NA,NA,NA,NA,"",2
"1043",1,1,1627.43199999386,NA,NA,NA,NA,NA,NA,NA,NA,"",2
"1044",2,1,1043.9972000022,NA,NA,NA,NA,NA,NA,NA,NA,"",2
"1045",1,1,696.585000012419,NA,NA,NA,NA,NA,NA,NA,NA,"",2
"1046",2,1,593.341999992845,NA,NA,NA,NA,NA,NA,NA,NA,"",2
"1047",1,1,1501.19280000217,NA,NA,NA,NA,NA,NA,NA,NA,"",2
"1048",2,1,571.938699999009,NA,NA,NA,NA,NA,NA,NA,NA,"",2
"1049",1,1,610.634700002265,NA,NA,NA,NA,NA,NA,NA,NA,"",2
"1050",2,1,650.763099998585,NA,NA,NA,NA,NA,NA,NA,NA,"",2
"1051",1,1,1657.71769999992,NA,NA,NA,NA,NA,NA,NA,NA,"",2
"1052",2,1,710.785999996006,NA,NA,NA,NA,NA,NA,NA,NA,"",2
"1053",1,1,910.450900002616,NA,NA,NA,NA,NA,NA,NA,NA,"",2
"1054",2,1,1467.05199999269,NA,NA,NA,NA,NA,NA,NA,NA,"",2
"1055",1,1,749.193499999819,NA,NA,NA,NA,NA,NA,NA,NA,"",2
"1056",2,1,606.168300000718,NA,NA,NA,NA,NA,NA,NA,NA,"",2
"1057",1,1,759.681800001999,NA,NA,NA,NA,NA,NA,NA,NA,"",2
"1058",2,1,775.58560000034,NA,NA,NA,NA,NA,NA,NA,NA,"",2
"1059",1,1,881.012500001816,NA,NA,NA,NA,NA,NA,NA,NA,"",2
"1060",2,1,646.418599993922,NA,NA,NA,NA,NA,NA,NA,NA,"",2
"1061",1,1,1616.58760000137,NA,NA,NA,NA,NA,NA,NA,NA,"",2
"1062",2,1,655.169499994372,NA,NA,NA,NA,NA,NA,NA,NA,"",2
"1063",1,1,1256.71330001205,NA,NA,NA,NA,NA,NA,NA,NA,"",2
"1064",2,1,794.570300000487,NA,NA,NA,NA,NA,NA,NA,NA,"",2
"1065",1,1,1017.32100000663,NA,NA,NA,NA,NA,NA,NA,NA,"",2
"1066",2,1,583.083599995007,NA,NA,NA,NA,NA,NA,NA,NA,"",2
"1067",1,1,1200.4556000029,NA,NA,NA,NA,NA,NA,NA,NA,"",2
"1068",2,1,790.51459999755,NA,NA,NA,NA,NA,NA,NA,NA,"",2
"1069",1,1,633.601800000179,NA,NA,NA,NA,NA,NA,NA,NA,"",2
"1070",2,1,1221.52279999864,NA,NA,NA,NA,NA,NA,NA,NA,"",2
"1071",1,1,1108.93870001019,NA,NA,NA,NA,NA,NA,NA,NA,"",2
"1072",2,1,750.160199997481,NA,NA,NA,NA,NA,NA,NA,NA,"",2
"1073",1,1,1037.99760001129,NA,NA,NA,NA,NA,NA,NA,NA,"",2
"1074",2,1,602.005499997176,NA,NA,NA,NA,NA,NA,NA,NA,"",2
"1075",1,1,1465.59009999328,NA,NA,NA,NA,NA,NA,NA,NA,"",2
"1076",2,1,672.028000000864,NA,NA,NA,NA,NA,NA,NA,NA,"",2
"1077",1,1,866.573499995866,NA,NA,NA,NA,NA,NA,NA,NA,"",2
"1078",2,1,606.776200002059,NA,NA,NA,NA,NA,NA,NA,NA,"",2
"1079",1,1,766.556100003072,NA,NA,NA,NA,NA,NA,NA,NA,"",2
"1080",2,1,1494.9798000016,NA,NA,NA,NA,NA,NA,NA,NA,"",2
"1081",1,1,1812.08979999064,NA,NA,NA,NA,NA,NA,NA,NA,"",2
"1082",2,1,1109.67900000105,NA,NA,NA,NA,NA,NA,NA,NA,"",2
"1083",1,1,1027.37619999971,NA,NA,NA,NA,NA,NA,NA,NA,"",2
"1084",2,1,891.947800002526,NA,NA,NA,NA,NA,NA,NA,NA,"",2
"1085",1,1,2417.09119999723,NA,NA,NA,NA,NA,NA,NA,NA,"",2
"1086",2,1,589.730699997745,NA,NA,NA,NA,NA,NA,NA,NA,"",2
"1087",1,1,623.055300005944,NA,NA,NA,NA,NA,NA,NA,NA,"",2
"1088",2,1,549.245600006543,NA,NA,NA,NA,NA,NA,NA,NA,"",2
"1089",1,1,1636.51229999959,NA,NA,NA,NA,NA,NA,NA,NA,"",2
"1090",2,1,1654.80429999297,NA,NA,NA,NA,NA,NA,NA,NA,"",2
"1091",1,1,1016.5374000062,NA,NA,NA,NA,NA,NA,NA,NA,"",2
"1092",2,1,1976.36950000015,NA,NA,NA,NA,NA,NA,NA,NA,"",2
"1093",1,1,1028.43109999958,NA,NA,NA,NA,NA,NA,NA,NA,"",2
"1094",2,1,894.455500005279,NA,NA,NA,NA,NA,NA,NA,NA,"",2
"1095",1,1,1226.7739999952,NA,NA,NA,NA,NA,NA,NA,NA,"",2
"1096",2,1,497.098499996355,NA,NA,NA,NA,NA,NA,NA,NA,"",2
"1097",1,1,741.134400013834,NA,NA,NA,NA,NA,NA,NA,NA,"",2
"1098",2,1,426.262299995869,NA,NA,NA,NA,NA,NA,NA,NA,"",2
"1099",1,1,493.800600001123,NA,NA,NA,NA,NA,NA,NA,NA,"",2
"1100",2,1,547.186099996907,NA,NA,NA,NA,NA,NA,NA,NA,"",2
"1101",1,1,779.248599996208,NA,NA,NA,NA,NA,NA,NA,NA,"",2
"1102",2,1,519.488899997668,NA,NA,NA,NA,NA,NA,NA,NA,"",2
"1103",1,1,614.746899998863,NA,NA,NA,NA,NA,NA,NA,NA,"",2
"1104",2,1,733.868800001801,NA,NA,NA,NA,NA,NA,NA,NA,"",2
"1105",1,1,866.546200006269,NA,NA,NA,NA,NA,NA,NA,NA,"",2
"1106",2,1,593.179500006954,NA,NA,NA,NA,NA,NA,NA,NA,"",2
"1107",1,0,1743.19280000054,NA,NA,NA,NA,NA,NA,NA,NA,"",2
"1108",2,1,833.345999999437,NA,NA,NA,NA,NA,NA,NA,NA,"",2
"1109",1,1,1526.80279999913,NA,NA,NA,NA,NA,NA,NA,NA,"",2
"1110",2,1,439.907899999525,NA,NA,NA,NA,NA,NA,NA,NA,"",2
"1111",1,1,1978.26170000189,NA,NA,NA,NA,NA,NA,NA,NA,"",2
"1112",2,1,774.493999997503,NA,NA,NA,NA,NA,NA,NA,NA,"",2
"1113",1,1,2083.43959999911,NA,NA,NA,NA,NA,NA,NA,NA,"",2
"1114",2,1,483.376399992267,NA,NA,NA,NA,NA,NA,NA,NA,"",2
"1115",1,1,1531.9993999874,NA,NA,NA,NA,NA,NA,NA,NA,"",2
"1116",2,1,551.807799987728,NA,NA,NA,NA,NA,NA,NA,NA,"",2
"1117",1,1,1289.44350000529,NA,NA,NA,NA,NA,NA,NA,NA,"",2
"1118",2,1,593.788700003643,NA,NA,NA,NA,NA,NA,NA,NA,"",2
"1119",1,0,1558.63169999793,NA,NA,NA,NA,NA,NA,NA,NA,"",2
"1120",2,0,981.634399999166,NA,NA,NA,NA,NA,NA,NA,NA,"",2
"1121",NA,NA,NA,1,1,0,0,1,573.708700001589,1,774.977299995953,"生动",2
"1122",NA,NA,NA,1,0,0,1,1,562.857500000973,1,777.304299990647,"逃避",2
"1123",NA,NA,NA,0,0,0,2,1,553.781000009621,1,824.758799994015,"争吵",2
"1124",NA,NA,NA,1,0,0,3,1,523.000300003332,1,604.976900009206,"浪费",2
"1125",NA,NA,NA,0,0,0,4,1,359.569699998247,1,715.338699999847,"黑暗",2
"1126",NA,NA,NA,0,1,0,5,1,395.757099991897,1,570.689300002414,"鲜艳",2
"1127",NA,NA,NA,0,0,0,6,1,392.868800001452,1,619.777999992948,"堵塞",2
"1128",NA,NA,NA,0,1,0,7,1,505.931199993938,1,637.33549999597,"正直",2
"1129",NA,NA,NA,1,1,0,8,1,541.733799997019,1,607.554999995045,"公平",2
"1130",NA,NA,NA,1,0,0,9,1,505.899600000703,1,720.277899992652,"别扭",2
"1131",NA,NA,NA,0,0,0,10,1,500.768800004153,1,710.72699999786,"自卑",2
"1132",NA,NA,NA,0,0,0,11,1,432.588800002122,1,697.672700000112,"轻率",2
"1133",NA,NA,NA,0,1,0,12,1,386.941499993554,1,924.360699995304,"雄厚",2
"1134",NA,NA,NA,1,0,0,13,1,570.459199996549,1,564.373700006399,"处罚",2
"1135",NA,NA,NA,1,1,0,14,1,647.907399994438,1,617.543300002581,"秀丽",2
"1136",NA,NA,NA,1,0,0,15,1,562.888900007238,1,615.717399996356,"消沉",2
"1137",NA,NA,NA,0,1,0,16,1,411.361399994348,1,612.48440000054,"珍藏",2
"1138",NA,NA,NA,0,0,0,17,1,666.229700000258,1,660.820200006128,"烦恼",2
"1139",NA,NA,NA,0,1,0,18,1,430.092700000387,1,625.112800000352,"爽朗",2
"1140",NA,NA,NA,1,0,0,19,1,718.227100005606,1,1288.29080000287,"厌恶",2
"1141",NA,NA,NA,0,0,0,20,1,531.1958000093,1,707.662799992249,"伤心",2
"1142",NA,NA,NA,1,0,0,21,1,592.889600011404,1,649.134100007359,"排斥",2
"1143",NA,NA,NA,1,1,0,22,1,564.93120000232,1,738.809300004505,"永恒",2
"1144",NA,NA,NA,1,0,0,23,1,801.718300004723,1,710.477599990554,"冷笑",2
"1145",NA,NA,NA,0,0,0,24,1,493.436799995834,1,604.834999990999,"悲观",2
"1146",NA,NA,NA,0,0,0,25,1,374.259899996105,1,539.395600004354,"假冒",2
"1147",NA,NA,NA,0,1,0,26,1,343.062300002202,1,536.771099999896,"瑰丽",2
"1148",NA,NA,NA,0,0,0,27,1,417.34539999743,1,532.630200003041,"穷苦",2
"1149",NA,NA,NA,0,0,0,28,1,405.838999999105,1,702.156100000138,"郁闷",2
"1150",NA,NA,NA,0,1,0,29,1,324.980300007155,1,523.142899997765,"俊秀",2
"1151",NA,NA,NA,0,1,0,30,1,432.838799999445,1,519.446000005701,"精致",2
"1152",NA,NA,NA,1,1,0,31,1,568.133299995679,1,598.438600005466,"豪放",2
"1153",NA,NA,NA,0,1,0,32,1,459.38830000523,1,527.524300006917,"享受",2
"1154",NA,NA,NA,1,1,0,33,1,624.766200009617,1,576.605700000073,"留恋",2
"1155",NA,NA,NA,0,0,0,34,1,415.764499994111,1,613.726800002041,"落后",2
"1156",NA,NA,NA,1,0,0,35,1,614.270500009297,1,688.469499989878,"嘲笑",2
"1157",NA,NA,NA,1,1,0,36,1,619.034999996074,1,514.264199999161,"吉祥",2
"1158",NA,NA,NA,1,1,0,37,1,528.960499999812,1,542.547100005322,"圣洁",2
"1159",NA,NA,NA,0,1,0,38,1,450.449299998581,1,520.863699988695,"富丽",2
"1160",NA,NA,NA,0,0,0,39,1,483.290799995302,1,550.546400001622,"懒惰",2
"1161",NA,NA,NA,0,1,0,40,1,364.086300003692,1,475.655400005053,"旺盛",2
"1162",NA,NA,NA,1,0,0,41,1,590.384799987078,1,643.7314000068,"焦躁",2
"1163",NA,NA,NA,1,1,0,42,1,574.176599999191,1,451.066200010246,"前进",2
"1164",NA,NA,NA,0,0,0,43,1,333.39500000875,1,462.630699999863,"损害",2
"1165",NA,NA,NA,0,1,0,44,1,442.236199989566,0,530.472200000077,"廉洁",2
"1166",NA,NA,NA,1,1,0,45,1,724.054400008754,1,554.827200001455,"充裕",2
"1167",NA,NA,NA,0,0,0,46,1,347.569899997325,1,500.288399998681,"杂乱",2
"1168",NA,NA,NA,1,1,0,47,1,583.732200000668,1,483.783899995615,"卓越",2
"1169",NA,NA,NA,1,1,0,48,1,582.498399991891,1,595.457400006126,"热切",2
"1170",NA,NA,NA,1,0,0,49,1,587.629499990726,1,591.032600001199,"丢失",2
"1171",NA,NA,NA,1,0,0,50,1,1063.40439998894,1,732.288899991545,"心慌",2
"1172",NA,NA,NA,1,0,0,51,1,643.693499994697,1,497.491700007231,"失意",2
"1173",NA,NA,NA,0,1,0,52,1,495.967499999097,1,492.70639999304,"丰满",2
"1174",NA,NA,NA,0,1,0,53,1,538.438199990196,1,681.418899999699,"富足",2
"1175",NA,NA,NA,1,0,0,54,1,571.186900007888,1,485.587200004375,"怀疑",2
"1176",NA,NA,NA,0,1,0,55,1,366.858900000807,1,641.544199999771,"振作",2
"1177",NA,NA,NA,0,0,0,56,1,398.064499997417,1,753.061700001126,"鲁莽",2
"1178",NA,NA,NA,0,1,0,57,1,582.558699999936,1,531.64500001003,"舒畅",2
"1179",NA,NA,NA,1,0,0,58,1,733.325100009097,1,579.90479998989,"胡涂",2
"1180",NA,NA,NA,0,0,0,59,1,465.704299989739,1,665.076600009343,"闷热",2
"1181",NA,NA,NA,1,0,0,60,1,567.987700007507,0,456.425500000478,"禁止",2
"1182",NA,NA,NA,0,1,0,61,1,322.376700001769,1,683.473199998843,"顽强",2
"1183",NA,NA,NA,1,0,0,62,1,670.211999997264,1,672.116200003074,"撒谎",2
"1184",NA,NA,NA,1,0,0,63,1,588.241499994183,1,645.475799989072,"慌忙",2
"1185",NA,NA,NA,0,1,0,64,1,446.043899995857,1,528.86999999464,"清秀",2
"1186",NA,NA,NA,1,1,0,65,1,688.655399993877,1,500.693699999829,"畅销",2
"1187",NA,NA,NA,1,1,0,66,1,382.21650000196,1,463.062499999069,"赞成",2
"1188",NA,NA,NA,0,1,0,67,1,873.283399996581,1,753.82399999944,"敬佩",2
"1189",NA,NA,NA,1,1,0,68,1,491.005499992752,1,521.347299989429,"如愿",2
"1190",NA,NA,NA,1,1,0,69,1,626.222300008521,1,564.36119999853,"典雅",2
"1191",NA,NA,NA,0,0,0,70,1,432.366700013517,1,537.867499995627,"缺乏",2
"1192",NA,NA,NA,0,0,0,71,1,447.969600005308,1,571.143299996038,"沮丧",2
"1193",NA,NA,NA,0,0,0,72,1,423.606700001983,1,507.8710999951,"罚款",2
"1194",NA,NA,NA,1,1,0,73,1,553.660500008846,1,493.326600000728,"有利",2
"1195",NA,NA,NA,1,0,0,74,1,566.953699992155,1,574.115600000368,"孤单",2
"1196",NA,NA,NA,0,1,0,75,1,520.095099986065,1,535.67959999782,"羡慕",2
"1197",NA,NA,NA,1,1,0,76,1,589.707800012548,1,526.670099992771,"奉献",2
"1198",NA,NA,NA,1,0,0,77,1,628.119999993942,1,548.13200001081,"忧虑",2
"1199",NA,NA,NA,1,1,0,78,1,627.500599992345,1,526.760699998704,"优雅",2
"1200",NA,NA,NA,1,1,0,79,1,578.088000009302,1,573.504599989974,"诚恳",2
"1201",NA,NA,NA,1,1,1,0,1,568.238000007113,1,551.613100004033,"振作",2
"1202",NA,NA,NA,1,0,1,1,1,1226.36430000421,1,886.080299998866,"忧虑",2
"1203",NA,NA,NA,1,1,1,2,1,569.274199995562,1,494.36969999806,"富丽",2
"1204",NA,NA,NA,1,1,1,3,1,430.509899990284,1,539.66880000371,"雄厚",2
"1205",NA,NA,NA,0,1,1,4,1,370.549200000823,1,468.229899997823,"羡慕",2
"1206",NA,NA,NA,1,0,1,5,1,498.397499992279,1,467.146800001501,"懒惰",2
"1207",NA,NA,NA,1,0,1,6,1,562.003800005186,1,722.943500004476,"撒谎",2
"1208",NA,NA,NA,0,1,1,7,1,529.991999996128,1,509.54400000046,"丰满",2
"1209",NA,NA,NA,0,0,1,8,1,470.781199997873,1,521.48959999613,"郁闷",2
"1210",NA,NA,NA,0,1,1,9,1,344.072599997162,1,482.334700005595,"诚恳",2
"1211",NA,NA,NA,1,0,1,10,1,546.455899995635,1,493.624599999748,"鲁莽",2
"1212",NA,NA,NA,0,0,1,11,1,472.735799994553,1,523.91049999278,"落后",2
"1213",NA,NA,NA,0,1,1,12,1,537.748799994006,1,586.883099997067,"享受",2
"1214",NA,NA,NA,1,0,1,13,1,491.008400000283,1,509.402999989106,"处罚",2
"1215",NA,NA,NA,0,1,1,14,1,415.22100000293,1,511.852499999804,"圣洁",2
"1216",NA,NA,NA,1,0,1,15,1,616.609000004246,1,461.207900007139,"别扭",2
"1217",NA,NA,NA,1,1,1,16,1,537.024999997811,1,462.618399993517,"畅销",2
"1218",NA,NA,NA,1,1,1,17,1,716.729400010081,1,525.322300003609,"典雅",2
"1219",NA,NA,NA,1,1,1,18,1,730.239500000607,1,489.211199994315,"如愿",2
"1220",NA,NA,NA,1,0,1,19,1,559.397099990747,1,471.963200005121,"消沉",2
"1221",NA,NA,NA,1,0,1,20,1,761.117900008685,1,611.732600009418,"争吵",2
"1222",NA,NA,NA,1,0,1,21,1,540.137299991329,1,579.954200002248,"罚款",2
"1223",NA,NA,NA,1,0,1,22,1,650.844400006463,1,533.635500003584,"闷热",2
"1224",NA,NA,NA,0,1,1,23,1,454.722299997229,1,460.73210000759,"鲜艳",2
"1225",NA,NA,NA,0,1,1,24,1,471.555800002534,1,625.383100006729,"热切",2
"1226",NA,NA,NA,0,0,1,25,1,326.519900001585,1,484.432799989008,"杂乱",2
"1227",NA,NA,NA,0,0,1,26,1,975.334600007045,1,545.219799998449,"伤心",2
"1228",NA,NA,NA,0,0,1,27,1,374.478800003999,1,510.710000002291,"焦躁",2
"1229",NA,NA,NA,0,0,1,28,1,687.057799994363,1,534.091800000169,"孤单",2
"1230",NA,NA,NA,0,0,1,29,1,573.264399994514,1,544.92339999706,"自卑",2
"1231",NA,NA,NA,0,1,1,30,1,446.182500003488,1,488.459500003955,"豪放",2
"1232",NA,NA,NA,0,0,1,31,1,447.647100008908,1,547.306599997682,"厌恶",2
"1233",NA,NA,NA,1,1,1,32,1,757.916500006104,1,574.315799996839,"吉祥",2
"1234",NA,NA,NA,0,1,1,33,1,425.116200000048,1,512.354299993603,"俊秀",2
"1235",NA,NA,NA,0,1,1,34,1,380.867200001376,1,514.936200008378,"清秀",2
"1236",NA,NA,NA,1,1,1,35,1,721.224299995811,1,453.704300001846,"前进",2
"1237",NA,NA,NA,1,1,1,36,1,661.01979999803,1,574.176699999953,"卓越",2
"1238",NA,NA,NA,0,1,1,37,1,691.671000007773,1,617.469600008917,"赞成",2
"1239",NA,NA,NA,1,0,1,38,1,617.492599994875,1,533.114899997599,"胡涂",2
"1240",NA,NA,NA,0,0,1,39,1,416.851400004816,0,559.588100004476,"心慌",2
"1241",NA,NA,NA,1,0,1,40,1,579.993100007414,1,583.314699993934,"假冒",2
"1242",NA,NA,NA,0,0,1,41,1,395.242200000212,1,963.84979999857,"失意",2
"1243",NA,NA,NA,1,1,1,42,1,599.273300002096,1,615.565000000061,"旺盛",2
"1244",NA,NA,NA,0,1,1,43,1,487.079400001676,1,530.638700001873,"公平",2
"1245",NA,NA,NA,0,0,1,44,1,710.270499999751,1,714.239900000393,"黑暗",2
"1246",NA,NA,NA,1,1,1,45,1,796.021900008782,1,574.733399989782,"正直",2
"1247",NA,NA,NA,0,1,1,46,1,393.258900003275,1,515.482399991015,"廉洁",2
"1248",NA,NA,NA,1,0,1,47,1,1289.34420000587,1,615.623300007428,"穷苦",2
"1249",NA,NA,NA,0,0,1,48,1,372.025300006499,1,853.975999998511,"沮丧",2
"1250",NA,NA,NA,1,1,1,49,1,587.456499997643,1,530.972299995483,"充裕",2
"1251",NA,NA,NA,0,1,1,50,1,399.743399990257,1,485.622800013516,"富足",2
"1252",NA,NA,NA,0,0,1,51,1,472.306899988325,1,467.653300001984,"损害",2
"1253",NA,NA,NA,0,0,1,52,1,654.124299995601,1,519.79439999559,"禁止",2
"1254",NA,NA,NA,1,0,1,53,1,715.926500008209,1,537.040399998659,"缺乏",2
"1255",NA,NA,NA,1,1,1,54,1,657.465399999637,1,982.754099997692,"有利",2
"1256",NA,NA,NA,0,1,1,55,1,413.63700000511,1,558.709600009024,"奉献",2
"1257",NA,NA,NA,1,1,1,56,1,619.699799994123,1,546.019200002775,"秀丽",2
"1258",NA,NA,NA,0,1,1,57,1,544.957500009332,1,910.031899999012,"精致",2
"1259",NA,NA,NA,0,0,1,58,1,336.278999995557,1,558.858699994744,"排斥",2
"1260",NA,NA,NA,0,0,1,59,1,429.205399996135,1,615.572499998962,"堵塞",2
"1261",NA,NA,NA,0,0,1,60,1,435.899999996764,1,623.46260000777,"轻率",2
"1262",NA,NA,NA,0,1,1,61,1,384.63739999861,1,557.743700002902,"瑰丽",2
"1263",NA,NA,NA,1,0,1,62,1,689.580099991872,1,1023.83200000622,"浪费",2
"1264",NA,NA,NA,1,0,1,63,1,697.815100007574,1,1197.03219999792,"丢失",2
"1265",NA,NA,NA,0,1,1,64,1,383.795699992334,1,681.550699999207,"爽朗",2
"1266",NA,NA,NA,1,0,1,65,1,612.111299997196,1,565.216899994994,"烦恼",2
"1267",NA,NA,NA,1,0,1,66,1,629.220399991027,1,671.981299994513,"怀疑",2
"1268",NA,NA,NA,1,0,1,67,1,575.884299993049,1,558.224499996868,"嘲笑",2
"1269",NA,NA,NA,1,1,1,68,1,573.062600000412,1,720.429799999692,"顽强",2
"1270",NA,NA,NA,1,0,1,69,1,509.870099995169,1,573.9370000083,"悲观",2
"1271",NA,NA,NA,0,0,1,70,1,524.667299992871,1,742.830600007437,"逃避",2
"1272",NA,NA,NA,1,1,1,71,1,489.552699989872,1,637.270800012629,"永恒",2
"1273",NA,NA,NA,1,1,1,72,1,524.533500007237,1,650.342199995066,"珍藏",2
"1274",NA,NA,NA,0,1,1,73,1,335.948199994164,1,762.734500007355,"留恋",2
"1275",NA,NA,NA,0,1,1,74,1,509.943800003384,1,506.871999998111,"生动",2
"1276",NA,NA,NA,1,1,1,75,1,613.790499992319,1,455.571600003168,"优雅",2
"1277",NA,NA,NA,0,0,1,76,1,379.502600000706,1,682.849200005876,"冷笑",2
"1278",NA,NA,NA,0,0,1,77,1,519.77060000354,1,822.53029999265,"慌忙",2
"1279",NA,NA,NA,1,1,1,78,1,645.875200003502,1,605.629500001669,"舒畅",2
"1280",NA,NA,NA,1,1,1,79,1,460.747300006915,1,531.225799990352,"敬佩",2
"1281",NA,NA,NA,1,1,2,0,1,583.172500002547,1,502.226700002211,"圣洁",2
"1282",NA,NA,NA,0,0,2,1,1,348.758000007365,1,565.245699996012,"悲观",2
"1283",NA,NA,NA,0,0,2,2,1,400.30530000513,1,691.143699994427,"懒惰",2
"1284",NA,NA,NA,1,0,2,3,1,574.144800004433,1,605.664900009288,"落后",2
"1285",NA,NA,NA,1,0,2,4,1,712.439800001448,1,545.128699988709,"黑暗",2
"1286",NA,NA,NA,1,0,2,5,1,532.563900007517,1,528.026599989971,"杂乱",2
"1287",NA,NA,NA,1,0,2,6,1,563.911499993992,1,550.939899985678,"嘲笑",2
"1288",NA,NA,NA,1,1,2,7,1,577.267799992114,1,568.173199993907,"富丽",2
"1289",NA,NA,NA,1,0,2,8,1,496.921600002679,1,536.841200009803,"忧虑",2
"1290",NA,NA,NA,0,0,2,9,1,466.258599990397,1,551.776299995254,"孤单",2
"1291",NA,NA,NA,0,1,2,10,1,429.162399988854,1,570.320000013453,"卓越",2
"1292",NA,NA,NA,1,0,2,11,1,509.011899994221,1,527.042900008382,"心慌",2
"1293",NA,NA,NA,0,1,2,12,1,475.99540000374,1,672.457799999393,"俊秀",2
"1294",NA,NA,NA,0,0,2,13,1,463.98020000197,1,564.463999995496,"胡涂",2
"1295",NA,NA,NA,1,1,2,14,1,716.186900011962,1,522.898800001713,"爽朗",2
"1296",NA,NA,NA,0,1,2,15,1,488.099499998498,1,737.296499995864,"正直",2
"1297",NA,NA,NA,1,1,2,16,1,508.161699995981,1,538.00620000402,"畅销",2
"1298",NA,NA,NA,0,0,2,17,1,403.588400004082,1,636.225499998545,"冷笑",2
"1299",NA,NA,NA,1,1,2,18,1,695.621199993184,1,493.82639999385,"瑰丽",2
"1300",NA,NA,NA,0,1,2,19,1,385.330399993109,1,532.275200006552,"振作",2
"1301",NA,NA,NA,1,1,2,20,1,554.493999996339,1,414.824200008297,"清秀",2
"1302",NA,NA,NA,1,0,2,21,1,435.259400008363,1,515.625,"沮丧",2
"1303",NA,NA,NA,0,0,2,22,1,493.057300001965,1,757.856299998821,"争吵",2
"1304",NA,NA,NA,0,1,2,23,1,626.146099995822,1,515.468099998543,"豪放",2
"1305",NA,NA,NA,0,1,2,24,1,471.303099999204,1,761.406000005081,"旺盛",2
"1306",NA,NA,NA,1,0,2,25,1,541.162200010149,1,572.178400005214,"缺乏",2
"1307",NA,NA,NA,1,0,2,26,1,517.450999992434,1,817.561500007287,"处罚",2
"1308",NA,NA,NA,0,0,2,27,1,332.523000004585,1,582.392500000424,"郁闷",2
"1309",NA,NA,NA,0,1,2,28,1,450.235600001179,1,486.418599990429,"敬佩",2
"1310",NA,NA,NA,0,0,2,29,1,347.009200006141,1,483.442400000058,"烦恼",2
"1311",NA,NA,NA,1,0,2,30,1,499.250799999572,1,489.802099997178,"焦躁",2
"1312",NA,NA,NA,0,1,2,31,1,352.538999999524,1,507.348299986916,"留恋",2
"1313",NA,NA,NA,1,1,2,32,1,725.969699997222,1,563.027800002601,"优雅",2
"1314",NA,NA,NA,0,0,2,33,1,468.249099998502,1,515.740000002552,"损害",2
"1315",NA,NA,NA,0,0,2,34,1,418.772000004537,1,549.564200002351,"轻率",2
"1316",NA,NA,NA,0,1,2,35,1,370.697999998811,1,529.745500010904,"廉洁",2
"1317",NA,NA,NA,0,1,2,36,1,465.228300003218,1,593.282500005444,"前进",2
"1318",NA,NA,NA,1,0,2,37,1,727.239599989844,1,549.296400000458,"堵塞",2
"1319",NA,NA,NA,0,1,2,38,1,327.819500002079,1,471.366899990244,"秀丽",2
"1320",NA,NA,NA,1,1,2,39,1,511.668800012558,1,489.815399996587,"典雅",2
"1321",NA,NA,NA,1,1,2,40,1,554.627900011837,1,466.488799997023,"奉献",2
"1322",NA,NA,NA,0,1,2,41,1,443.656000003102,1,921.127200010233,"珍藏",2
"1323",NA,NA,NA,1,1,2,42,1,525.6315000006,1,575.811800008523,"舒畅",2
"1324",NA,NA,NA,0,1,2,43,1,323.950199992396,1,516.749199989135,"赞成",2
"1325",NA,NA,NA,0,0,2,44,1,448.879899995518,1,804.505000007339,"伤心",2
"1326",NA,NA,NA,1,1,2,45,1,1312.83539999276,1,560.447099996964,"永恒",2
"1327",NA,NA,NA,0,1,2,46,1,685.578199991141,1,576.959400001215,"丰满",2
"1328",NA,NA,NA,1,0,2,47,1,792.805000004591,1,633.487699989928,"浪费",2
"1329",NA,NA,NA,1,0,2,48,1,615.133300001617,1,642.907799992827,"鲁莽",2
"1330",NA,NA,NA,1,0,2,49,1,576.249299992924,1,649.120000001858,"排斥",2
"1331",NA,NA,NA,0,0,2,50,1,519.73210000142,1,885.218399998848,"罚款",2
"1332",NA,NA,NA,0,0,2,51,1,513.588400004664,1,587.966200007941,"怀疑",2
"1333",NA,NA,NA,1,1,2,52,1,442.520999989938,1,554.106700001284,"吉祥",2
"1334",NA,NA,NA,1,1,2,53,1,522.803900006693,1,475.61740000674,"鲜艳",2
"1335",NA,NA,NA,1,1,2,54,1,654.594999999972,1,610.504500000388,"精致",2
"1336",NA,NA,NA,1,1,2,55,1,630.156900006114,1,472.594000006211,"公平",2
"1337",NA,NA,NA,0,0,2,56,1,357.928600002197,1,600.272900002892,"禁止",2
"1338",NA,NA,NA,1,1,2,57,1,603.647800002364,1,574.999699994805,"富足",2
"1339",NA,NA,NA,1,1,2,58,1,462.085600011051,1,513.373399997363,"诚恳",2
"1340",NA,NA,NA,0,0,2,59,1,367.09189999965,1,566.892299990286,"撒谎",2
"1341",NA,NA,NA,0,0,2,60,1,581.425199998193,1,555.975199997192,"自卑",2
"1342",NA,NA,NA,1,0,2,61,1,692.111799988197,1,561.550700003863,"丢失",2
"1343",NA,NA,NA,1,1,2,62,1,562.397999994573,1,508.971300005214,"雄厚",2
"1344",NA,NA,NA,0,0,2,63,1,530.311900001834,1,542.060800013132,"假冒",2
"1345",NA,NA,NA,0,1,2,64,1,379.250800004229,1,500.564599991776,"有利",2
"1346",NA,NA,NA,1,0,2,65,1,572.621100000106,1,511.549100003322,"慌忙",2
"1347",NA,NA,NA,0,1,2,66,1,486.152799989213,1,747.344500006875,"热切",2
"1348",NA,NA,NA,1,0,2,67,1,707.310099998722,1,522.202699998161,"逃避",2
"1349",NA,NA,NA,0,0,2,68,1,373.452200001338,1,556.38049999834,"消沉",2
"1350",NA,NA,NA,1,0,2,69,1,573.256700008642,1,668.266100008623,"穷苦",2
"1351",NA,NA,NA,1,1,2,70,1,799.790000004577,1,499.336399996537,"羡慕",2
"1352",NA,NA,NA,1,1,2,71,1,540.592700010166,1,508.082200001809,"享受",2
"1353",NA,NA,NA,0,1,2,72,1,391.209399997024,1,492.43430000206,"顽强",2
"1354",NA,NA,NA,1,0,2,73,1,696.60969999677,1,802.190800008248,"闷热",2
"1355",NA,NA,NA,1,0,2,74,1,544.729100001859,1,569.812499990803,"厌恶",2
"1356",NA,NA,NA,0,0,2,75,1,373.474199994234,1,583.610499990755,"失意",2
"1357",NA,NA,NA,0,1,2,76,1,453.086900000926,1,541.345899997395,"如愿",2
"1358",NA,NA,NA,0,1,2,77,1,283.03569999116,1,491.972100004205,"充裕",2
"1359",NA,NA,NA,0,0,2,78,1,581.382200005464,1,676.222000009147,"别扭",2
"1360",NA,NA,NA,0,1,2,79,1,309.507400001166,1,524.650099992868,"生动",2
"1361",NA,NA,NA,0,0,3,0,1,505.099500005599,1,648.838299995987,"争吵",2
"1362",NA,NA,NA,1,1,3,1,1,618.89890000748,1,594.330799998716,"卓越",2
"1363",NA,NA,NA,1,0,3,2,1,460.832299999311,1,646.353899996029,"烦恼",2
"1364",NA,NA,NA,1,0,3,3,1,535.678200001712,1,658.450999995694,"罚款",2
"1365",NA,NA,NA,1,1,3,4,1,594.270600005984,1,863.522900006501,"奉献",2
"1366",NA,NA,NA,0,0,3,5,1,396.117600001162,1,575.725599992438,"闷热",2
"1367",NA,NA,NA,0,1,3,6,1,441.107799997553,1,461.101099994266,"富丽",2
"1368",NA,NA,NA,0,0,3,7,1,464.763299998594,1,538.411900008214,"慌忙",2
"1369",NA,NA,NA,0,0,3,8,1,277.147200002219,1,583.740799993393,"怀疑",2
"1370",NA,NA,NA,0,0,3,9,1,309.455199996592,1,567.492900008801,"处罚",2
"1371",NA,NA,NA,0,1,3,10,1,298.433300005854,1,585.685600002762,"畅销",2
"1372",NA,NA,NA,1,0,3,11,1,747.872200008715,1,562.26270001207,"消沉",2
"1373",NA,NA,NA,0,1,3,12,1,545.4533000011,1,592.462800006615,"前进",2
"1374",NA,NA,NA,1,0,3,13,1,663.187400001334,1,554.05449999671,"杂乱",2
"1375",NA,NA,NA,0,1,3,14,1,340.628699996159,1,552.018400005181,"赞成",2
"1376",NA,NA,NA,0,1,3,15,1,389.963299996452,1,908.597799993004,"热切",2
"1377",NA,NA,NA,0,0,3,16,1,362.632899996242,1,540.149099993869,"假冒",2
"1378",NA,NA,NA,0,0,3,17,1,591.189200000372,1,852.060699995491,"禁止",2
"1379",NA,NA,NA,1,0,3,18,1,740.70050001319,1,688.529300008668,"胡涂",2
"1380",NA,NA,NA,1,0,3,19,1,503.781700012041,1,594.819300007657,"焦躁",2
"1381",NA,NA,NA,0,1,3,20,1,483.345300002838,1,590.386800002307,"俊秀",2
"1382",NA,NA,NA,1,0,3,21,1,526.676400011638,1,601.404700006242,"别扭",2
"1383",NA,NA,NA,0,1,3,22,1,298.747099994216,1,700.255100004142,"充裕",2
"1384",NA,NA,NA,1,1,3,23,1,508.561900001951,1,607.226699998137,"永恒",2
"1385",NA,NA,NA,0,1,3,24,1,379.645799999707,1,602.297400007956,"典雅",2
"1386",NA,NA,NA,1,1,3,25,1,720.476799993776,1,816.194500002894,"正直",2
"1387",NA,NA,NA,0,0,3,26,1,400.317099993117,1,570.374899994931,"撒谎",2
"1388",NA,NA,NA,1,1,3,27,1,617.874400006258,1,1090.23010000237,"羡慕",2
"1389",NA,NA,NA,1,0,3,28,1,519.686100000399,1,676.459399997839,"伤心",2
"1390",NA,NA,NA,0,0,3,29,1,574.792899991735,1,573.249499997473,"失意",2
"1391",NA,NA,NA,1,0,3,30,1,567.9925000004,1,766.483500003233,"懒惰",2
"1392",NA,NA,NA,0,0,3,31,1,432.124300001306,1,566.809000010835,"黑暗",2
"1393",NA,NA,NA,1,0,3,32,1,641.408099996625,1,693.904200001271,"鲁莽",2
"1394",NA,NA,NA,0,1,3,33,1,480.540700009442,1,657.583799998974,"富足",2
"1395",NA,NA,NA,1,1,3,34,1,793.603899990558,1,553.995700000087,"享受",2
"1396",NA,NA,NA,1,1,3,35,1,546.318699998665,1,584.102200009511,"珍藏",2
"1397",NA,NA,NA,0,0,3,36,1,442.767999993521,1,644.80779999576,"冷笑",2
"1398",NA,NA,NA,0,1,3,37,1,430.441999997129,1,535.223900005803,"有利",2
"1399",NA,NA,NA,1,1,3,38,1,580.305099996622,1,523.593799996888,"公平",2
"1400",NA,NA,NA,1,1,3,39,1,592.729299998609,1,477.044799990836,"秀丽",2
"1401",NA,NA,NA,0,1,3,40,1,559.674299991457,1,493.16959999851,"鲜艳",2
"1402",NA,NA,NA,0,0,3,41,1,369.906599997194,1,538.437300012447,"落后",2
"1403",NA,NA,NA,1,1,3,42,1,739.155600007507,1,774.066199999652,"旺盛",2
"1404",NA,NA,NA,1,1,3,43,1,468.250899997656,1,531.616799999028,"生动",2
"1405",NA,NA,NA,1,0,3,44,1,496.384600002784,1,508.421400008956,"丢失",2
"1406",NA,NA,NA,1,0,3,45,1,535.401600005571,1,757.233900003484,"缺乏",2
"1407",NA,NA,NA,0,0,3,46,1,422.100499999942,1,545.54740000458,"厌恶",2
"1408",NA,NA,NA,1,1,3,47,1,470.735599999898,1,517.793600010918,"豪放",2
"1409",NA,NA,NA,1,0,3,48,1,523.834599996917,1,538.772200001404,"忧虑",2
"1410",NA,NA,NA,0,1,3,49,1,442.49430000491,1,525.376700010384,"精致",2
"1411",NA,NA,NA,1,1,3,50,1,496.13529999624,1,463.284800003748,"优雅",2
"1412",NA,NA,NA,0,0,3,51,1,460.281699997722,1,1265.77169999655,"穷苦",2
"1413",NA,NA,NA,1,0,3,52,1,543.371899999329,1,552.999199993792,"郁闷",2
"1414",NA,NA,NA,1,1,3,53,1,450.979300003382,1,466.807799995877,"吉祥",2
"1415",NA,NA,NA,0,1,3,54,1,1093.55370000412,1,527.104199994938,"诚恳",2
"1416",NA,NA,NA,1,0,3,55,1,631.744099999196,1,556.863599995268,"自卑",2
"1417",NA,NA,NA,0,1,3,56,1,349.615600003744,1,481.010899995454,"瑰丽",2
"1418",NA,NA,NA,0,1,3,57,1,403.198899992276,1,478.347700001905,"清秀",2
"1419",NA,NA,NA,0,0,3,58,1,333.498300009524,1,668.120699992869,"轻率",2
"1420",NA,NA,NA,1,1,3,59,1,679.71789999865,1,627.583299996331,"留恋",2
"1421",NA,NA,NA,1,0,3,60,1,583.180300003733,1,610.626800000318,"损害",2
"1422",NA,NA,NA,0,0,3,61,1,393.834100003005,1,746.995499997865,"堵塞",2
"1423",NA,NA,NA,0,0,3,62,1,466.489699989324,1,573.187999994843,"浪费",2
"1424",NA,NA,NA,1,1,3,63,1,628.532900009304,1,579.081799995038,"圣洁",2
"1425",NA,NA,NA,1,0,3,64,1,749.168499998632,1,533.08300000208,"心慌",2
"1426",NA,NA,NA,0,1,3,65,1,332.35880000575,1,601.208299995051,"丰满",2
"1427",NA,NA,NA,1,0,3,66,1,531.398199993419,1,511.222799992538,"逃避",2
"1428",NA,NA,NA,0,0,3,67,1,285.788900000625,1,527.208499988774,"悲观",2
"1429",NA,NA,NA,1,1,3,68,1,545.197499988717,1,646.258799999487,"振作",2
"1430",NA,NA,NA,1,1,3,69,1,574.700700002722,1,577.276000010897,"雄厚",2
"1431",NA,NA,NA,1,0,3,70,1,509.944699995685,1,533.842100005131,"排斥",2
"1432",NA,NA,NA,0,1,3,71,1,394.450799998594,1,463.148800001363,"廉洁",2
"1433",NA,NA,NA,0,0,3,72,1,296.345199996722,1,503.798300007475,"嘲笑",2
"1434",NA,NA,NA,1,1,3,73,1,1063.45610000426,1,531.259800001862,"如愿",2
"1435",NA,NA,NA,1,1,3,74,1,505.044300007285,1,546.526599995559,"舒畅",2
"1436",NA,NA,NA,0,1,3,75,1,461.139000006369,1,508.138799996232,"爽朗",2
"1437",NA,NA,NA,0,1,3,76,1,330.498099996476,1,607.980900007533,"顽强",2
"1438",NA,NA,NA,0,0,3,77,1,918.006399995647,1,661.227200005669,"沮丧",2
"1439",NA,NA,NA,1,0,3,78,1,597.468099993421,1,590.660100002424,"孤单",2
"1440",NA,NA,NA,0,1,3,79,1,396.136100011063,1,542.144599996391,"敬佩",2
"1441",1,1,1025.59199999996,NA,NA,NA,NA,NA,NA,NA,NA,"",3
"1442",2,1,1193.78270000016,NA,NA,NA,NA,NA,NA,NA,NA,"",3
"1443",1,1,1502.26250000014,NA,NA,NA,NA,NA,NA,NA,NA,"",3
"1444",2,1,705.60420000038,NA,NA,NA,NA,NA,NA,NA,NA,"",3
"1445",1,0,1098.69460000027,NA,NA,NA,NA,NA,NA,NA,NA,"",3
"1446",2,1,795.201800000541,NA,NA,NA,NA,NA,NA,NA,NA,"",3
"1447",1,1,1362.8034000003,NA,NA,NA,NA,NA,NA,NA,NA,"",3
"1448",2,1,907.142099999874,NA,NA,NA,NA,NA,NA,NA,NA,"",3
"1449",1,1,1127.28020000031,NA,NA,NA,NA,NA,NA,NA,NA,"",3
"1450",2,1,659.955999999511,NA,NA,NA,NA,NA,NA,NA,NA,"",3
"1451",1,0,1003.67370000004,NA,NA,NA,NA,NA,NA,NA,NA,"",3
"1452",2,1,2340.39010000015,NA,NA,NA,NA,NA,NA,NA,NA,"",3
"1453",1,1,1330.46279999962,NA,NA,NA,NA,NA,NA,NA,NA,"",3
"1454",2,1,1571.59260000026,NA,NA,NA,NA,NA,NA,NA,NA,"",3
"1455",1,1,1170.49020000013,NA,NA,NA,NA,NA,NA,NA,NA,"",3
"1456",2,1,927.353800000674,NA,NA,NA,NA,NA,NA,NA,NA,"",3
"1457",1,1,1494.10799999987,NA,NA,NA,NA,NA,NA,NA,NA,"",3
"1458",2,1,1280.15409999989,NA,NA,NA,NA,NA,NA,NA,NA,"",3
"1459",1,0,1530.65220000008,NA,NA,NA,NA,NA,NA,NA,NA,"",3
"1460",2,1,1382.6054000001,NA,NA,NA,NA,NA,NA,NA,NA,"",3
"1461",1,1,1886.41840000037,NA,NA,NA,NA,NA,NA,NA,NA,"",3
"1462",2,1,1037.51219999958,NA,NA,NA,NA,NA,NA,NA,NA,"",3
"1463",1,1,1105.61510000025,NA,NA,NA,NA,NA,NA,NA,NA,"",3
"1464",2,1,712.67220000027,NA,NA,NA,NA,NA,NA,NA,NA,"",3
"1465",1,1,1597.26589999991,NA,NA,NA,NA,NA,NA,NA,NA,"",3
"1466",2,1,585.25869999994,NA,NA,NA,NA,NA,NA,NA,NA,"",3
"1467",1,1,1183.00929999987,NA,NA,NA,NA,NA,NA,NA,NA,"",3
"1468",2,1,694.250599999577,NA,NA,NA,NA,NA,NA,NA,NA,"",3
"1469",1,1,1987.48369999976,NA,NA,NA,NA,NA,NA,NA,NA,"",3
"1470",2,1,547.007899999699,NA,NA,NA,NA,NA,NA,NA,NA,"",3
"1471",1,1,990.002900000036,NA,NA,NA,NA,NA,NA,NA,NA,"",3
"1472",2,1,673.004999999648,NA,NA,NA,NA,NA,NA,NA,NA,"",3
"1473",1,1,1251.77480000002,NA,NA,NA,NA,NA,NA,NA,NA,"",3
"1474",2,1,777.75389999988,NA,NA,NA,NA,NA,NA,NA,NA,"",3
"1475",1,0,1582.46500000041,NA,NA,NA,NA,NA,NA,NA,NA,"",3
"1476",2,1,1410.0641999994,NA,NA,NA,NA,NA,NA,NA,NA,"",3
"1477",1,1,2524.23420000014,NA,NA,NA,NA,NA,NA,NA,NA,"",3
"1478",2,1,838.848999999755,NA,NA,NA,NA,NA,NA,NA,NA,"",3
"1479",1,0,1300.54999999993,NA,NA,NA,NA,NA,NA,NA,NA,"",3
"1480",2,1,1185.98939999993,NA,NA,NA,NA,NA,NA,NA,NA,"",3
"1481",1,1,1262.91159999982,NA,NA,NA,NA,NA,NA,NA,NA,"",3
"1482",2,1,886.303999999654,NA,NA,NA,NA,NA,NA,NA,NA,"",3
"1483",1,1,2224.50340000069,NA,NA,NA,NA,NA,NA,NA,NA,"",3
"1484",2,1,797.074799999791,NA,NA,NA,NA,NA,NA,NA,NA,"",3
"1485",1,1,834.386300000006,NA,NA,NA,NA,NA,NA,NA,NA,"",3
"1486",2,1,565.152500000295,NA,NA,NA,NA,NA,NA,NA,NA,"",3
"1487",1,1,1094.1914999994,NA,NA,NA,NA,NA,NA,NA,NA,"",3
"1488",2,1,804.29710000044,NA,NA,NA,NA,NA,NA,NA,NA,"",3
"1489",1,1,712.308599999233,NA,NA,NA,NA,NA,NA,NA,NA,"",3
"1490",2,1,572.341799999776,NA,NA,NA,NA,NA,NA,NA,NA,"",3
"1491",1,1,1085.02510000017,NA,NA,NA,NA,NA,NA,NA,NA,"",3
"1492",2,1,856.866199999786,NA,NA,NA,NA,NA,NA,NA,NA,"",3
"1493",1,1,1156.06819999994,NA,NA,NA,NA,NA,NA,NA,NA,"",3
"1494",2,1,1075.63019999998,NA,NA,NA,NA,NA,NA,NA,NA,"",3
"1495",1,1,1109.17470000004,NA,NA,NA,NA,NA,NA,NA,NA,"",3
"1496",2,1,1134.62249999975,NA,NA,NA,NA,NA,NA,NA,NA,"",3
"1497",1,1,1574.53439999972,NA,NA,NA,NA,NA,NA,NA,NA,"",3
"1498",2,1,692.76600000012,NA,NA,NA,NA,NA,NA,NA,NA,"",3
"1499",1,1,1297.58839999977,NA,NA,NA,NA,NA,NA,NA,NA,"",3
"1500",2,1,690.715600000658,NA,NA,NA,NA,NA,NA,NA,NA,"",3
"1501",1,1,1210.96920000036,NA,NA,NA,NA,NA,NA,NA,NA,"",3
"1502",2,1,899.265699999887,NA,NA,NA,NA,NA,NA,NA,NA,"",3
"1503",1,1,1038.29850000056,NA,NA,NA,NA,NA,NA,NA,NA,"",3
"1504",2,1,878.267400000368,NA,NA,NA,NA,NA,NA,NA,NA,"",3
"1505",1,1,861.562399999457,NA,NA,NA,NA,NA,NA,NA,NA,"",3
"1506",2,1,566.424599999664,NA,NA,NA,NA,NA,NA,NA,NA,"",3
"1507",1,0,1456.58749999984,NA,NA,NA,NA,NA,NA,NA,NA,"",3
"1508",2,1,1193.93409999975,NA,NA,NA,NA,NA,NA,NA,NA,"",3
"1509",1,1,976.890900000399,NA,NA,NA,NA,NA,NA,NA,NA,"",3
"1510",2,1,1057.54890000026,NA,NA,NA,NA,NA,NA,NA,NA,"",3
"1511",1,1,1331.25909999944,NA,NA,NA,NA,NA,NA,NA,NA,"",3
"1512",2,1,803.232399999615,NA,NA,NA,NA,NA,NA,NA,NA,"",3
"1513",1,1,1505.60359999963,NA,NA,NA,NA,NA,NA,NA,NA,"",3
"1514",2,1,675.326499999755,NA,NA,NA,NA,NA,NA,NA,NA,"",3
"1515",1,1,1484.57239999971,NA,NA,NA,NA,NA,NA,NA,NA,"",3
"1516",2,1,1472.36539999994,NA,NA,NA,NA,NA,NA,NA,NA,"",3
"1517",1,1,870.175900000504,NA,NA,NA,NA,NA,NA,NA,NA,"",3
"1518",2,1,556.65560000034,NA,NA,NA,NA,NA,NA,NA,NA,"",3
"1519",1,1,889.393800000107,NA,NA,NA,NA,NA,NA,NA,NA,"",3
"1520",2,1,698.945099999946,NA,NA,NA,NA,NA,NA,NA,NA,"",3
"1521",1,1,661.706500000037,NA,NA,NA,NA,NA,NA,NA,NA,"",3
"1522",2,1,559.052200000224,NA,NA,NA,NA,NA,NA,NA,NA,"",3
"1523",1,1,832.753600000615,NA,NA,NA,NA,NA,NA,NA,NA,"",3
"1524",2,1,952.115899999626,NA,NA,NA,NA,NA,NA,NA,NA,"",3
"1525",1,1,1298.54929999965,NA,NA,NA,NA,NA,NA,NA,NA,"",3
"1526",2,1,619.424900000013,NA,NA,NA,NA,NA,NA,NA,NA,"",3
"1527",1,1,1111.02559999927,NA,NA,NA,NA,NA,NA,NA,NA,"",3
"1528",2,1,719.941100000142,NA,NA,NA,NA,NA,NA,NA,NA,"",3
"1529",1,1,1392.03569999972,NA,NA,NA,NA,NA,NA,NA,NA,"",3
"1530",2,1,696.267599999373,NA,NA,NA,NA,NA,NA,NA,NA,"",3
"1531",1,1,1592.97700000025,NA,NA,NA,NA,NA,NA,NA,NA,"",3
"1532",2,1,1880.00360000024,NA,NA,NA,NA,NA,NA,NA,NA,"",3
"1533",1,1,674.098800000138,NA,NA,NA,NA,NA,NA,NA,NA,"",3
"1534",2,1,739.766900000177,NA,NA,NA,NA,NA,NA,NA,NA,"",3
"1535",1,1,1578.25169999978,NA,NA,NA,NA,NA,NA,NA,NA,"",3
"1536",2,1,746.014399999694,NA,NA,NA,NA,NA,NA,NA,NA,"",3
"1537",1,1,632.25760000023,NA,NA,NA,NA,NA,NA,NA,NA,"",3
"1538",2,1,734.10259999946,NA,NA,NA,NA,NA,NA,NA,NA,"",3
"1539",1,1,1288.83510000014,NA,NA,NA,NA,NA,NA,NA,NA,"",3
"1540",2,1,1115.13689999992,NA,NA,NA,NA,NA,NA,NA,NA,"",3
"1541",1,1,999.553300000116,NA,NA,NA,NA,NA,NA,NA,NA,"",3
"1542",2,1,615.369299999657,NA,NA,NA,NA,NA,NA,NA,NA,"",3
"1543",1,1,2279.29920000042,NA,NA,NA,NA,NA,NA,NA,NA,"",3
"1544",2,0,1060.53729999985,NA,NA,NA,NA,NA,NA,NA,NA,"",3
"1545",1,1,1570.21559999976,NA,NA,NA,NA,NA,NA,NA,NA,"",3
"1546",2,1,684.322799999791,NA,NA,NA,NA,NA,NA,NA,NA,"",3
"1547",1,1,1382.3551000005,NA,NA,NA,NA,NA,NA,NA,NA,"",3
"1548",2,1,825.018900000032,NA,NA,NA,NA,NA,NA,NA,NA,"",3
"1549",1,1,1094.78779999972,NA,NA,NA,NA,NA,NA,NA,NA,"",3
"1550",2,1,697.334299999966,NA,NA,NA,NA,NA,NA,NA,NA,"",3
"1551",1,1,2016.02469999943,NA,NA,NA,NA,NA,NA,NA,NA,"",3
"1552",2,1,730.316999999559,NA,NA,NA,NA,NA,NA,NA,NA,"",3
"1553",1,1,720.079700000497,NA,NA,NA,NA,NA,NA,NA,NA,"",3
"1554",2,1,745.449699999881,NA,NA,NA,NA,NA,NA,NA,NA,"",3
"1555",1,1,837.459200000012,NA,NA,NA,NA,NA,NA,NA,NA,"",3
"1556",2,1,807.056999999986,NA,NA,NA,NA,NA,NA,NA,NA,"",3
"1557",1,1,676.724699999795,NA,NA,NA,NA,NA,NA,NA,NA,"",3
"1558",2,1,1753.03770000028,NA,NA,NA,NA,NA,NA,NA,NA,"",3
"1559",1,1,1218.33600000082,NA,NA,NA,NA,NA,NA,NA,NA,"",3
