target,反应类型,条件,truetarget,CorAns,Position,congruency,AffValue,flankerPic,targetPic,corAnsF,corAnsA,RestPic,returnPractice.thisRepN,returnPractice.thisTrialN,returnPractice.thisN,returnPractice.thisIndex,pracNum.thisRepN,pracNum.thisTrialN,pracNum.thisN,pracNum.thisIndex,NumBlock1.thisRepN,NumBlock1.thisTrialN,NumBlock1.thisN,NumBlock1.thisIndex,NumBlock2.thisRepN,NumBlock2.thisTrialN,NumBlock2.thisN,NumBlock2.thisIndex,returnPrac.thisRepN,returnPrac.thisTrialN,returnPrac.thisN,returnPrac.thisIndex,PracAff.thisRepN,PracAff.thisTrialN,PracAff.thisN,PracAff.thisIndex,AffBlocks.thisRepN,AffBlocks.thisTrialN,AffBlocks.thisN,AffBlocks.thisIndex,AffBlock1.thisRepN,AffBlock1.thisTrialN,AffBlock1.thisN,AffBlock1.thisIndex,respNum2word.keys,respNum2word.corr,respNum2word.rt,text.started,text.stopped,blank.started,blank.stopped,respFlanker.keys,respFlanker.corr,respFlanker.rt,thisWord,respAffWord.keys,respAffWord.corr,respAffWord.rt,姓名,性别,年龄（周岁）,date,expName,psychopyVersion,frameRate,
2A,1,1,A,a,"[0.2, 0.2]",,,,,,,,0,0,0,0,0,0,0,0,,,,,,,,,,,,,,,,,,,,,,,,,None,0,,,,,,,,,,,,,dhn,f,20,2024_Apr_14_1016,mian,2021.2.3,60.633216938352135,
A9,1,2,A,a,"[-0.2, 0.2]",,,,,,,,0,0,0,0,0,1,1,1,,,,,,,,,,,,,,,,,,,,,,,,,a,1,1.5022720000124536,,,,,,,,,,,,dhn,f,20,2024_Apr_14_1016,mian,2021.2.3,60.633216938352135,
7e,2,1,7.0,a,"[-0.2, -0.2]",,,,,,,,0,0,0,0,0,2,2,2,,,,,,,,,,,,,,,,,,,,,,,,,l,0,1.3103778999939095,,,,,,,,,,,,dhn,f,20,2024_Apr_14_1016,mian,2021.2.3,60.633216938352135,
9H,2,2,9.0,a,"[0.2, -0.2]",,,,,,,,0,0,0,0,0,3,3,3,,,,,,,,,,,,,,,,,,,,,,,,,a,1,1.1290651000017533,,,,,,,,,,,,dhn,f,20,2024_Apr_14_1016,mian,2021.2.3,60.633216938352135,
h4,1,1,h,l,"[0.2, 0.2]",,,,,,,,0,0,0,0,0,4,4,4,,,,,,,,,,,,,,,,,,,,,,,,,l,1,1.4581202999979723,,,,,,,,,,,,dhn,f,20,2024_Apr_14_1016,mian,2021.2.3,60.633216938352135,
4H,1,2,H,a,"[-0.2, 0.2]",,,,,,,,0,0,0,0,0,5,5,5,,,,,,,,,,,,,,,,,,,,,,,,,a,1,2.188399600010598,,,,,,,,,,,,dhn,f,20,2024_Apr_14_1016,mian,2021.2.3,60.633216938352135,
F8,2,1,8.0,l,"[-0.2, -0.2]",,,,,,,,0,0,0,0,0,6,6,6,,,,,,,,,,,,,,,,,,,,,,,,,a,0,1.4490961999981664,,,,,,,,,,,,dhn,f,20,2024_Apr_14_1016,mian,2021.2.3,60.633216938352135,
h7,2,2,7.0,a,"[0.2, -0.2]",,,,,,,,0,0,0,0,0,7,7,7,,,,,,,,,,,,,,,,,,,,,,,,,a,1,1.3765496999985771,,,,,,,,,,,,dhn,f,20,2024_Apr_14_1016,mian,2021.2.3,60.633216938352135,
5e,1,1,e,l,"[0.2, 0.2]",,,,,,,,0,0,0,0,0,8,8,8,,,,,,,,,,,,,,,,,,,,,,,,,l,1,1.276512399999774,,,,,,,,,,,,dhn,f,20,2024_Apr_14_1016,mian,2021.2.3,60.633216938352135,
e8,1,2,e,l,"[-0.2, 0.2]",,,,,,,,0,0,0,0,0,9,9,9,,,,,,,,,,,,,,,,,,,,,,,,,l,1,1.3120360000029905,,,,,,,,,,,,dhn,f,20,2024_Apr_14_1016,mian,2021.2.3,60.633216938352135,
4E,2,1,4.0,l,"[-0.2, -0.2]",,,,,,,,0,0,0,0,0,10,10,10,,,,,,,,,,,,,,,,,,,,,,,,,l,1,1.2522720999986632,,,,,,,,,,,,dhn,f,20,2024_Apr_14_1016,mian,2021.2.3,60.633216938352135,
5H,2,2,5.0,a,"[0.2, -0.2]",,,,,,,,0,0,0,0,0,11,11,11,,,,,,,,,,,,,,,,,,,,,,,,,a,1,0.880246899992926,,,,,,,,,,,,dhn,f,20,2024_Apr_14_1016,mian,2021.2.3,60.633216938352135,
9E,1,1,E,a,"[0.2, 0.2]",,,,,,,,0,0,0,0,0,12,12,12,,,,,,,,,,,,,,,,,,,,,,,,,a,1,1.203487100006896,,,,,,,,,,,,dhn,f,20,2024_Apr_14_1016,mian,2021.2.3,60.633216938352135,
h9,1,2,h,l,"[-0.2, 0.2]",,,,,,,,0,0,0,0,0,13,13,13,,,,,,,,,,,,,,,,,,,,,,,,,l,1,1.3395617999922251,,,,,,,,,,,,dhn,f,20,2024_Apr_14_1016,mian,2021.2.3,60.633216938352135,
2a,2,1,2.0,l,"[-0.2, -0.2]",,,,,,,,0,0,0,0,0,14,14,14,,,,,,,,,,,,,,,,,,,,,,,,,l,1,2.0075795000011567,,,,,,,,,,,,dhn,f,20,2024_Apr_14_1016,mian,2021.2.3,60.633216938352135,
e5,2,2,5.0,a,"[0.2, -0.2]",,,,,,,,0,0,0,0,0,15,15,15,,,,,,,,,,,,,,,,,,,,,,,,,a,1,0.6717919999937294,,,,,,,,,,,,dhn,f,20,2024_Apr_14_1016,mian,2021.2.3,60.633216938352135,
A5,1,1,A,a,"[0.2, 0.2]",,,,,,,,0,0,0,0,0,16,16,16,,,,,,,,,,,,,,,,,,,,,,,,,a,1,1.4864834000036353,,,,,,,,,,,,dhn,f,20,2024_Apr_14_1016,mian,2021.2.3,60.633216938352135,
a6,1,2,a,l,"[-0.2, 0.2]",,,,,,,,0,0,0,0,0,17,17,17,,,,,,,,,,,,,,,,,,,,,,,,,a,0,0.9530375000031199,,,,,,,,,,,,dhn,f,20,2024_Apr_14_1016,mian,2021.2.3,60.633216938352135,
2F,2,1,2.0,l,"[-0.2, -0.2]",,,,,,,,0,0,0,0,0,18,18,18,,,,,,,,,,,,,,,,,,,,,,,,,l,1,1.608689599990612,,,,,,,,,,,,dhn,f,20,2024_Apr_14_1016,mian,2021.2.3,60.633216938352135,
e4,2,2,4.0,l,"[0.2, -0.2]",,,,,,,,0,0,0,0,0,19,19,19,,,,,,,,,,,,,,,,,,,,,,,,,l,1,0.7321593000087887,,,,,,,,,,,,dhn,f,20,2024_Apr_14_1016,mian,2021.2.3,60.633216938352135,
,,,,,,,,,,,,,0,0,0,0,,,,,,,,,,,,,,,,,,,,,,,,,,,,,,,,,,,,,,,,,,,dhn,f,20,2024_Apr_14_1016,mian,2021.2.3,60.633216938352135,
2A,1,1,A,a,"[0.2, 0.2]",,,,,,,,1,0,1,0,0,0,0,0,,,,,,,,,,,,,,,,,,,,,,,,,a,1,0.922298099991167,,,,,,,,,,,,dhn,f,20,2024_Apr_14_1016,mian,2021.2.3,60.633216938352135,
A9,1,2,A,a,"[-0.2, 0.2]",,,,,,,,1,0,1,0,0,1,1,1,,,,,,,,,,,,,,,,,,,,,,,,,a,1,0.9901509000046644,,,,,,,,,,,,dhn,f,20,2024_Apr_14_1016,mian,2021.2.3,60.633216938352135,
7e,2,1,7.0,a,"[-0.2, -0.2]",,,,,,,,1,0,1,0,0,2,2,2,,,,,,,,,,,,,,,,,,,,,,,,,a,1,1.3643214000039734,,,,,,,,,,,,dhn,f,20,2024_Apr_14_1016,mian,2021.2.3,60.633216938352135,
9H,2,2,9.0,a,"[0.2, -0.2]",,,,,,,,1,0,1,0,0,3,3,3,,,,,,,,,,,,,,,,,,,,,,,,,a,1,0.7338163999957033,,,,,,,,,,,,dhn,f,20,2024_Apr_14_1016,mian,2021.2.3,60.633216938352135,
h4,1,1,h,l,"[0.2, 0.2]",,,,,,,,1,0,1,0,0,4,4,4,,,,,,,,,,,,,,,,,,,,,,,,,l,1,0.8893580000003567,,,,,,,,,,,,dhn,f,20,2024_Apr_14_1016,mian,2021.2.3,60.633216938352135,
4H,1,2,H,a,"[-0.2, 0.2]",,,,,,,,1,0,1,0,0,5,5,5,,,,,,,,,,,,,,,,,,,,,,,,,a,1,1.4168403999938164,,,,,,,,,,,,dhn,f,20,2024_Apr_14_1016,mian,2021.2.3,60.633216938352135,
F8,2,1,8.0,l,"[-0.2, -0.2]",,,,,,,,1,0,1,0,0,6,6,6,,,,,,,,,,,,,,,,,,,,,,,,,l,1,2.087738400005037,,,,,,,,,,,,dhn,f,20,2024_Apr_14_1016,mian,2021.2.3,60.633216938352135,
h7,2,2,7.0,a,"[0.2, -0.2]",,,,,,,,1,0,1,0,0,7,7,7,,,,,,,,,,,,,,,,,,,,,,,,,a,1,0.8537779000034789,,,,,,,,,,,,dhn,f,20,2024_Apr_14_1016,mian,2021.2.3,60.633216938352135,
5e,1,1,e,l,"[0.2, 0.2]",,,,,,,,1,0,1,0,0,8,8,8,,,,,,,,,,,,,,,,,,,,,,,,,l,1,0.9428922000079183,,,,,,,,,,,,dhn,f,20,2024_Apr_14_1016,mian,2021.2.3,60.633216938352135,
e8,1,2,e,l,"[-0.2, 0.2]",,,,,,,,1,0,1,0,0,9,9,9,,,,,,,,,,,,,,,,,,,,,,,,,l,1,1.3438518999901135,,,,,,,,,,,,dhn,f,20,2024_Apr_14_1016,mian,2021.2.3,60.633216938352135,
4E,2,1,4.0,l,"[-0.2, -0.2]",,,,,,,,1,0,1,0,0,10,10,10,,,,,,,,,,,,,,,,,,,,,,,,,l,1,1.6166866999992635,,,,,,,,,,,,dhn,f,20,2024_Apr_14_1016,mian,2021.2.3,60.633216938352135,
5H,2,2,5.0,a,"[0.2, -0.2]",,,,,,,,1,0,1,0,0,11,11,11,,,,,,,,,,,,,,,,,,,,,,,,,a,1,0.6777875999978278,,,,,,,,,,,,dhn,f,20,2024_Apr_14_1016,mian,2021.2.3,60.633216938352135,
9E,1,1,E,a,"[0.2, 0.2]",,,,,,,,1,0,1,0,0,12,12,12,,,,,,,,,,,,,,,,,,,,,,,,,a,1,0.8224677999969572,,,,,,,,,,,,dhn,f,20,2024_Apr_14_1016,mian,2021.2.3,60.633216938352135,
h9,1,2,h,l,"[-0.2, 0.2]",,,,,,,,1,0,1,0,0,13,13,13,,,,,,,,,,,,,,,,,,,,,,,,,l,1,0.5569866000005277,,,,,,,,,,,,dhn,f,20,2024_Apr_14_1016,mian,2021.2.3,60.633216938352135,
2a,2,1,2.0,l,"[-0.2, -0.2]",,,,,,,,1,0,1,0,0,14,14,14,,,,,,,,,,,,,,,,,,,,,,,,,l,1,0.9778630000073463,,,,,,,,,,,,dhn,f,20,2024_Apr_14_1016,mian,2021.2.3,60.633216938352135,
e5,2,2,5.0,a,"[0.2, -0.2]",,,,,,,,1,0,1,0,0,15,15,15,,,,,,,,,,,,,,,,,,,,,,,,,a,1,1.1538340999977663,,,,,,,,,,,,dhn,f,20,2024_Apr_14_1016,mian,2021.2.3,60.633216938352135,
A5,1,1,A,a,"[0.2, 0.2]",,,,,,,,1,0,1,0,0,16,16,16,,,,,,,,,,,,,,,,,,,,,,,,,a,1,1.5576360000122804,,,,,,,,,,,,dhn,f,20,2024_Apr_14_1016,mian,2021.2.3,60.633216938352135,
a6,1,2,a,l,"[-0.2, 0.2]",,,,,,,,1,0,1,0,0,17,17,17,,,,,,,,,,,,,,,,,,,,,,,,,l,1,0.8108263000031002,,,,,,,,,,,,dhn,f,20,2024_Apr_14_1016,mian,2021.2.3,60.633216938352135,
2F,2,1,2.0,l,"[-0.2, -0.2]",,,,,,,,1,0,1,0,0,18,18,18,,,,,,,,,,,,,,,,,,,,,,,,,l,1,1.2606595000106608,,,,,,,,,,,,dhn,f,20,2024_Apr_14_1016,mian,2021.2.3,60.633216938352135,
e4,2,2,4.0,l,"[0.2, -0.2]",,,,,,,,1,0,1,0,0,19,19,19,,,,,,,,,,,,,,,,,,,,,,,,,l,1,0.5777457000076538,,,,,,,,,,,,dhn,f,20,2024_Apr_14_1016,mian,2021.2.3,60.633216938352135,
,,,,,,,,,,,,,1,0,1,0,,,,,,,,,,,,,,,,,,,,,,,,,,,,,,,,,,,,,,,,,,,dhn,f,20,2024_Apr_14_1016,mian,2021.2.3,60.633216938352135,
7h,1,1,h,l,"[0.2, 0.2]",,,,,,,,,,,,,,,,0,0,0,0,,,,,,,,,,,,,,,,,,,,,l,1,0.8501471000054153,,,,,,,,,,,,dhn,f,20,2024_Apr_14_1016,mian,2021.2.3,60.633216938352135,
8F,1,2,F,a,"[-0.2, 0.2]",,,,,,,,,,,,,,,,0,1,1,1,,,,,,,,,,,,,,,,,,,,,a,1,1.2533123000030173,,,,,,,,,,,,dhn,f,20,2024_Apr_14_1016,mian,2021.2.3,60.633216938352135,
8h,2,1,8.0,l,"[-0.2, -0.2]",,,,,,,,,,,,,,,,0,2,2,2,,,,,,,,,,,,,,,,,,,,,l,1,0.944953300000634,,,,,,,,,,,,dhn,f,20,2024_Apr_14_1016,mian,2021.2.3,60.633216938352135,
a2,2,2,2.0,l,"[0.2, -0.2]",,,,,,,,,,,,,,,,0,3,3,3,,,,,,,,,,,,,,,,,,,,,l,1,0.5957783000048948,,,,,,,,,,,,dhn,f,20,2024_Apr_14_1016,mian,2021.2.3,60.633216938352135,
8f,1,1,f,l,"[0.2, 0.2]",,,,,,,,,,,,,,,,0,4,4,4,,,,,,,,,,,,,,,,,,,,,l,1,1.6722791999927722,,,,,,,,,,,,dhn,f,20,2024_Apr_14_1016,mian,2021.2.3,60.633216938352135,
6a,1,2,a,l,"[-0.2, 0.2]",,,,,,,,,,,,,,,,0,5,5,5,,,,,,,,,,,,,,,,,,,,,l,1,0.7132739000080619,,,,,,,,,,,,dhn,f,20,2024_Apr_14_1016,mian,2021.2.3,60.633216938352135,
h6,2,1,6.0,l,"[-0.2, -0.2]",,,,,,,,,,,,,,,,0,6,6,6,,,,,,,,,,,,,,,,,,,,,l,1,0.8108444999961648,,,,,,,,,,,,dhn,f,20,2024_Apr_14_1016,mian,2021.2.3,60.633216938352135,
f9,2,2,9.0,a,"[0.2, -0.2]",,,,,,,,,,,,,,,,0,7,7,7,,,,,,,,,,,,,,,,,,,,,a,1,0.6127502000017557,,,,,,,,,,,,dhn,f,20,2024_Apr_14_1016,mian,2021.2.3,60.633216938352135,
E4,1,1,E,a,"[0.2, 0.2]",,,,,,,,,,,,,,,,0,8,8,8,,,,,,,,,,,,,,,,,,,,,a,1,0.7424831000098493,,,,,,,,,,,,dhn,f,20,2024_Apr_14_1016,mian,2021.2.3,60.633216938352135,
6e,1,2,e,l,"[-0.2, 0.2]",,,,,,,,,,,,,,,,0,9,9,9,,,,,,,,,,,,,,,,,,,,,l,1,0.6692633000056958,,,,,,,,,,,,dhn,f,20,2024_Apr_14_1016,mian,2021.2.3,60.633216938352135,
5G,2,1,5.0,a,"[-0.2, -0.2]",,,,,,,,,,,,,,,,0,10,10,10,,,,,,,,,,,,,,,,,,,,,l,0,1.920959999988554,,,,,,,,,,,,dhn,f,20,2024_Apr_14_1016,mian,2021.2.3,60.633216938352135,
h3,2,2,3.0,a,"[0.2, -0.2]",,,,,,,,,,,,,,,,0,11,11,11,,,,,,,,,,,,,,,,,,,,,l,0,1.111090599995805,,,,,,,,,,,,dhn,f,20,2024_Apr_14_1016,mian,2021.2.3,60.633216938352135,
9e,1,1,e,l,"[0.2, 0.2]",,,,,,,,,,,,,,,,0,12,12,12,,,,,,,,,,,,,,,,,,,,,None,0,,,,,,,,,,,,,dhn,f,20,2024_Apr_14_1016,mian,2021.2.3,60.633216938352135,
a8,1,2,a,l,"[-0.2, 0.2]",,,,,,,,,,,,,,,,0,13,13,13,,,,,,,,,,,,,,,,,,,,,l,1,1.291654999993625,,,,,,,,,,,,dhn,f,20,2024_Apr_14_1016,mian,2021.2.3,60.633216938352135,
e8,2,1,8.0,l,"[-0.2, -0.2]",,,,,,,,,,,,,,,,0,14,14,14,,,,,,,,,,,,,,,,,,,,,l,1,1.2570085000043036,,,,,,,,,,,,dhn,f,20,2024_Apr_14_1016,mian,2021.2.3,60.633216938352135,
3f,2,2,3.0,a,"[0.2, -0.2]",,,,,,,,,,,,,,,,0,15,15,15,,,,,,,,,,,,,,,,,,,,,a,1,0.5720911000098567,,,,,,,,,,,,dhn,f,20,2024_Apr_14_1016,mian,2021.2.3,60.633216938352135,
7f,1,1,f,l,"[0.2, 0.2]",,,,,,,,,,,,,,,,0,16,16,16,,,,,,,,,,,,,,,,,,,,,l,1,1.3190715000091586,,,,,,,,,,,,dhn,f,20,2024_Apr_14_1016,mian,2021.2.3,60.633216938352135,
a7,1,2,a,l,"[-0.2, 0.2]",,,,,,,,,,,,,,,,0,17,17,17,,,,,,,,,,,,,,,,,,,,,l,1,0.5871297999983653,,,,,,,,,,,,dhn,f,20,2024_Apr_14_1016,mian,2021.2.3,60.633216938352135,
5A,2,1,5.0,a,"[-0.2, -0.2]",,,,,,,,,,,,,,,,0,18,18,18,,,,,,,,,,,,,,,,,,,,,a,1,0.62794859999849,,,,,,,,,,,,dhn,f,20,2024_Apr_14_1016,mian,2021.2.3,60.633216938352135,
8g,2,2,8.0,l,"[0.2, -0.2]",,,,,,,,,,,,,,,,0,19,19,19,,,,,,,,,,,,,,,,,,,,,l,1,0.940691900003003,,,,,,,,,,,,dhn,f,20,2024_Apr_14_1016,mian,2021.2.3,60.633216938352135,
9a,1,1,a,l,"[0.2, 0.2]",,,,,,,,,,,,,,,,0,20,20,20,,,,,,,,,,,,,,,,,,,,,l,1,0.7963760999991791,,,,,,,,,,,,dhn,f,20,2024_Apr_14_1016,mian,2021.2.3,60.633216938352135,
f7,1,2,f,l,"[-0.2, 0.2]",,,,,,,,,,,,,,,,0,21,21,21,,,,,,,,,,,,,,,,,,,,,l,1,0.6522492000076454,,,,,,,,,,,,dhn,f,20,2024_Apr_14_1016,mian,2021.2.3,60.633216938352135,
g9,2,1,9.0,a,"[-0.2, -0.2]",,,,,,,,,,,,,,,,0,22,22,22,,,,,,,,,,,,,,,,,,,,,a,1,1.1294844999938505,,,,,,,,,,,,dhn,f,20,2024_Apr_14_1016,mian,2021.2.3,60.633216938352135,
3h,2,2,3.0,a,"[0.2, -0.2]",,,,,,,,,,,,,,,,0,23,23,23,,,,,,,,,,,,,,,,,,,,,a,1,0.581465000010212,,,,,,,,,,,,dhn,f,20,2024_Apr_14_1016,mian,2021.2.3,60.633216938352135,
E6,1,1,E,a,"[0.2, 0.2]",,,,,,,,,,,,,,,,0,24,24,24,,,,,,,,,,,,,,,,,,,,,a,1,0.8452526999899419,,,,,,,,,,,,dhn,f,20,2024_Apr_14_1016,mian,2021.2.3,60.633216938352135,
F6,1,2,F,a,"[-0.2, 0.2]",,,,,,,,,,,,,,,,0,25,25,25,,,,,,,,,,,,,,,,,,,,,a,1,0.4493722000042908,,,,,,,,,,,,dhn,f,20,2024_Apr_14_1016,mian,2021.2.3,60.633216938352135,
3A,2,1,3.0,a,"[-0.2, -0.2]",,,,,,,,,,,,,,,,0,26,26,26,,,,,,,,,,,,,,,,,,,,,a,1,1.2782641999947373,,,,,,,,,,,,dhn,f,20,2024_Apr_14_1016,mian,2021.2.3,60.633216938352135,
8H,2,2,8.0,l,"[0.2, -0.2]",,,,,,,,,,,,,,,,0,27,27,27,,,,,,,,,,,,,,,,,,,,,l,1,0.8171291999897221,,,,,,,,,,,,dhn,f,20,2024_Apr_14_1016,mian,2021.2.3,60.633216938352135,
5a,1,1,a,l,"[0.2, 0.2]",,,,,,,,,,,,,,,,0,28,28,28,,,,,,,,,,,,,,,,,,,,,a,0,1.3405419000046095,,,,,,,,,,,,dhn,f,20,2024_Apr_14_1016,mian,2021.2.3,60.633216938352135,
2h,1,2,h,l,"[-0.2, 0.2]",,,,,,,,,,,,,,,,0,29,29,29,,,,,,,,,,,,,,,,,,,,,a,0,1.6843100999976741,,,,,,,,,,,,dhn,f,20,2024_Apr_14_1016,mian,2021.2.3,60.633216938352135,
e5,2,1,5.0,a,"[-0.2, -0.2]",,,,,,,,,,,,,,,,0,30,30,30,,,,,,,,,,,,,,,,,,,,,l,0,2.992024700011825,,,,,,,,,,,,dhn,f,20,2024_Apr_14_1016,mian,2021.2.3,60.633216938352135,
a3,2,2,3.0,a,"[0.2, -0.2]",,,,,,,,,,,,,,,,0,31,31,31,,,,,,,,,,,,,,,,,,,,,l,0,0.7035957000043709,,,,,,,,,,,,dhn,f,20,2024_Apr_14_1016,mian,2021.2.3,60.633216938352135,
f3,1,1,f,l,"[0.2, 0.2]",,,,,,,,,,,,,,,,0,32,32,32,,,,,,,,,,,,,,,,,,,,,a,0,2.5369793999998365,,,,,,,,,,,,dhn,f,20,2024_Apr_14_1016,mian,2021.2.3,60.633216938352135,
2E,1,2,E,a,"[-0.2, 0.2]",,,,,,,,,,,,,,,,0,33,33,33,,,,,,,,,,,,,,,,,,,,,a,1,1.0512452999973902,,,,,,,,,,,,dhn,f,20,2024_Apr_14_1016,mian,2021.2.3,60.633216938352135,
2H,2,1,2.0,l,"[-0.2, -0.2]",,,,,,,,,,,,,,,,0,34,34,34,,,,,,,,,,,,,,,,,,,,,a,0,0.5820890000031795,,,,,,,,,,,,dhn,f,20,2024_Apr_14_1016,mian,2021.2.3,60.633216938352135,
H8,2,2,8.0,l,"[0.2, -0.2]",,,,,,,,,,,,,,,,0,35,35,35,,,,,,,,,,,,,,,,,,,,,a,0,0.6010008999874117,,,,,,,,,,,,dhn,f,20,2024_Apr_14_1016,mian,2021.2.3,60.633216938352135,
9g,1,1,g,l,"[0.2, 0.2]",,,,,,,,,,,,,,,,0,36,36,36,,,,,,,,,,,,,,,,,,,,,l,1,2.869121299998369,,,,,,,,,,,,dhn,f,20,2024_Apr_14_1016,mian,2021.2.3,60.633216938352135,
5h,1,2,h,l,"[-0.2, 0.2]",,,,,,,,,,,,,,,,0,37,37,37,,,,,,,,,,,,,,,,,,,,,l,1,1.299799999993411,,,,,,,,,,,,dhn,f,20,2024_Apr_14_1016,mian,2021.2.3,60.633216938352135,
e4,2,1,4.0,l,"[-0.2, -0.2]",,,,,,,,,,,,,,,,0,38,38,38,,,,,,,,,,,,,,,,,,,,,l,1,0.8377390999958152,,,,,,,,,,,,dhn,f,20,2024_Apr_14_1016,mian,2021.2.3,60.633216938352135,
9h,2,2,9.0,a,"[0.2, -0.2]",,,,,,,,,,,,,,,,0,39,39,39,,,,,,,,,,,,,,,,,,,,,a,1,0.7106824000074994,,,,,,,,,,,,dhn,f,20,2024_Apr_14_1016,mian,2021.2.3,60.633216938352135,
G3,1,1,G,a,"[0.2, 0.2]",,,,,,,,,,,,,,,,0,40,40,40,,,,,,,,,,,,,,,,,,,,,a,1,0.8416290000022855,,,,,,,,,,,,dhn,f,20,2024_Apr_14_1016,mian,2021.2.3,60.633216938352135,
9A,1,2,A,a,"[-0.2, 0.2]",,,,,,,,,,,,,,,,0,41,41,41,,,,,,,,,,,,,,,,,,,,,a,1,0.5822473999869544,,,,,,,,,,,,dhn,f,20,2024_Apr_14_1016,mian,2021.2.3,60.633216938352135,
H5,2,1,5.0,a,"[-0.2, -0.2]",,,,,,,,,,,,,,,,0,42,42,42,,,,,,,,,,,,,,,,,,,,,a,1,1.541914999994333,,,,,,,,,,,,dhn,f,20,2024_Apr_14_1016,mian,2021.2.3,60.633216938352135,
4e,2,2,4.0,l,"[0.2, -0.2]",,,,,,,,,,,,,,,,0,43,43,43,,,,,,,,,,,,,,,,,,,,,l,1,0.6377982999983942,,,,,,,,,,,,dhn,f,20,2024_Apr_14_1016,mian,2021.2.3,60.633216938352135,
E2,1,1,E,a,"[0.2, 0.2]",,,,,,,,,,,,,,,,0,44,44,44,,,,,,,,,,,,,,,,,,,,,a,1,1.1597754999966128,,,,,,,,,,,,dhn,f,20,2024_Apr_14_1016,mian,2021.2.3,60.633216938352135,
A5,1,2,A,a,"[-0.2, 0.2]",,,,,,,,,,,,,,,,0,45,45,45,,,,,,,,,,,,,,,,,,,,,a,1,0.5847349000105169,,,,,,,,,,,,dhn,f,20,2024_Apr_14_1016,mian,2021.2.3,60.633216938352135,
2A,2,1,2.0,l,"[-0.2, -0.2]",,,,,,,,,,,,,,,,0,46,46,46,,,,,,,,,,,,,,,,,,,,,l,1,1.3497783000057098,,,,,,,,,,,,dhn,f,20,2024_Apr_14_1016,mian,2021.2.3,60.633216938352135,
6G,2,2,6.0,l,"[0.2, -0.2]",,,,,,,,,,,,,,,,0,47,47,47,,,,,,,,,,,,,,,,,,,,,l,1,0.950343000004068,,,,,,,,,,,,dhn,f,20,2024_Apr_14_1016,mian,2021.2.3,60.633216938352135,
H3,1,1,H,a,"[0.2, 0.2]",,,,,,,,,,,,,,,,0,48,48,48,,,,,,,,,,,,,,,,,,,,,a,1,1.0991009999997914,,,,,,,,,,,,dhn,f,20,2024_Apr_14_1016,mian,2021.2.3,60.633216938352135,
H2,1,2,H,a,"[-0.2, 0.2]",,,,,,,,,,,,,,,,0,49,49,49,,,,,,,,,,,,,,,,,,,,,a,1,0.4786351999937324,,,,,,,,,,,,dhn,f,20,2024_Apr_14_1016,mian,2021.2.3,60.633216938352135,
e9,2,1,9.0,a,"[-0.2, -0.2]",,,,,,,,,,,,,,,,0,50,50,50,,,,,,,,,,,,,,,,,,,,,a,1,1.1083054000046104,,,,,,,,,,,,dhn,f,20,2024_Apr_14_1016,mian,2021.2.3,60.633216938352135,
2G,2,2,2.0,l,"[0.2, -0.2]",,,,,,,,,,,,,,,,0,51,51,51,,,,,,,,,,,,,,,,,,,,,l,1,0.7315306999953464,,,,,,,,,,,,dhn,f,20,2024_Apr_14_1016,mian,2021.2.3,60.633216938352135,
4f,1,1,f,l,"[0.2, 0.2]",,,,,,,,,,,,,,,,0,52,52,52,,,,,,,,,,,,,,,,,,,,,l,1,0.9333397000009427,,,,,,,,,,,,dhn,f,20,2024_Apr_14_1016,mian,2021.2.3,60.633216938352135,
H6,1,2,H,a,"[-0.2, 0.2]",,,,,,,,,,,,,,,,0,53,53,53,,,,,,,,,,,,,,,,,,,,,a,1,1.509172900012345,,,,,,,,,,,,dhn,f,20,2024_Apr_14_1016,mian,2021.2.3,60.633216938352135,
A4,2,1,4.0,l,"[-0.2, -0.2]",,,,,,,,,,,,,,,,0,54,54,54,,,,,,,,,,,,,,,,,,,,,l,1,1.1129255999985617,,,,,,,,,,,,dhn,f,20,2024_Apr_14_1016,mian,2021.2.3,60.633216938352135,
3F,2,2,3.0,a,"[0.2, -0.2]",,,,,,,,,,,,,,,,0,55,55,55,,,,,,,,,,,,,,,,,,,,,a,1,0.6149102000053972,,,,,,,,,,,,dhn,f,20,2024_Apr_14_1016,mian,2021.2.3,60.633216938352135,
7e,1,1,e,l,"[0.2, 0.2]",,,,,,,,,,,,,,,,0,56,56,56,,,,,,,,,,,,,,,,,,,,,l,1,2.309692199996789,,,,,,,,,,,,dhn,f,20,2024_Apr_14_1016,mian,2021.2.3,60.633216938352135,
F9,1,2,F,a,"[-0.2, 0.2]",,,,,,,,,,,,,,,,0,57,57,57,,,,,,,,,,,,,,,,,,,,,a,1,0.5204908000014257,,,,,,,,,,,,dhn,f,20,2024_Apr_14_1016,mian,2021.2.3,60.633216938352135,
e2,2,1,2.0,l,"[-0.2, -0.2]",,,,,,,,,,,,,,,,0,58,58,58,,,,,,,,,,,,,,,,,,,,,l,1,0.9346841000078712,,,,,,,,,,,,dhn,f,20,2024_Apr_14_1016,mian,2021.2.3,60.633216938352135,
5F,2,2,5.0,a,"[0.2, -0.2]",,,,,,,,,,,,,,,,0,59,59,59,,,,,,,,,,,,,,,,,,,,,a,1,1.7044420999882277,,,,,,,,,,,,dhn,f,20,2024_Apr_14_1016,mian,2021.2.3,60.633216938352135,
f6,1,1,f,l,"[0.2, 0.2]",,,,,,,,,,,,,,,,0,60,60,60,,,,,,,,,,,,,,,,,,,,,l,1,0.7461421000043629,,,,,,,,,,,,dhn,f,20,2024_Apr_14_1016,mian,2021.2.3,60.633216938352135,
7G,1,2,G,a,"[-0.2, 0.2]",,,,,,,,,,,,,,,,0,61,61,61,,,,,,,,,,,,,,,,,,,,,a,1,0.848446200005128,,,,,,,,,,,,dhn,f,20,2024_Apr_14_1016,mian,2021.2.3,60.633216938352135,
e6,2,1,6.0,l,"[-0.2, -0.2]",,,,,,,,,,,,,,,,0,62,62,62,,,,,,,,,,,,,,,,,,,,,l,1,1.4502923999971244,,,,,,,,,,,,dhn,f,20,2024_Apr_14_1016,mian,2021.2.3,60.633216938352135,
3G,2,2,3.0,a,"[0.2, -0.2]",,,,,,,,,,,,,,,,0,63,63,63,,,,,,,,,,,,,,,,,,,,,a,1,0.6078182000055676,,,,,,,,,,,,dhn,f,20,2024_Apr_14_1016,mian,2021.2.3,60.633216938352135,
5E,1,1,E,a,"[0.2, 0.2]",,,,,,,,,,,,,,,,0,64,64,64,,,,,,,,,,,,,,,,,,,,,a,1,0.6116548999998486,,,,,,,,,,,,dhn,f,20,2024_Apr_14_1016,mian,2021.2.3,60.633216938352135,
A6,1,2,A,a,"[-0.2, 0.2]",,,,,,,,,,,,,,,,0,65,65,65,,,,,,,,,,,,,,,,,,,,,a,1,0.5484661999944365,,,,,,,,,,,,dhn,f,20,2024_Apr_14_1016,mian,2021.2.3,60.633216938352135,
E3,2,1,3.0,a,"[-0.2, -0.2]",,,,,,,,,,,,,,,,0,66,66,66,,,,,,,,,,,,,,,,,,,,,l,0,1.3084113000077195,,,,,,,,,,,,dhn,f,20,2024_Apr_14_1016,mian,2021.2.3,60.633216938352135,
2f,2,2,2.0,l,"[0.2, -0.2]",,,,,,,,,,,,,,,,0,67,67,67,,,,,,,,,,,,,,,,,,,,,l,1,0.9052546999882907,,,,,,,,,,,,dhn,f,20,2024_Apr_14_1016,mian,2021.2.3,60.633216938352135,
g3,1,1,g,l,"[0.2, 0.2]",,,,,,,,,,,,,,,,0,68,68,68,,,,,,,,,,,,,,,,,,,,,l,1,1.294954199998756,,,,,,,,,,,,dhn,f,20,2024_Apr_14_1016,mian,2021.2.3,60.633216938352135,
E8,1,2,E,a,"[-0.2, 0.2]",,,,,,,,,,,,,,,,0,69,69,69,,,,,,,,,,,,,,,,,,,,,a,1,0.6544838999980129,,,,,,,,,,,,dhn,f,20,2024_Apr_14_1016,mian,2021.2.3,60.633216938352135,
6g,2,1,6.0,l,"[-0.2, -0.2]",,,,,,,,,,,,,,,,0,70,70,70,,,,,,,,,,,,,,,,,,,,,l,1,1.2739227999991272,,,,,,,,,,,,dhn,f,20,2024_Apr_14_1016,mian,2021.2.3,60.633216938352135,
5H,2,2,5.0,a,"[0.2, -0.2]",,,,,,,,,,,,,,,,0,71,71,71,,,,,,,,,,,,,,,,,,,,,a,1,0.5796886000025552,,,,,,,,,,,,dhn,f,20,2024_Apr_14_1016,mian,2021.2.3,60.633216938352135,
4A,1,1,A,a,"[0.2, 0.2]",,,,,,,,,,,,,,,,0,72,72,72,,,,,,,,,,,,,,,,,,,,,a,1,0.6806466999987606,,,,,,,,,,,,dhn,f,20,2024_Apr_14_1016,mian,2021.2.3,60.633216938352135,
7F,1,2,F,a,"[-0.2, 0.2]",,,,,,,,,,,,,,,,0,73,73,73,,,,,,,,,,,,,,,,,,,,,a,1,0.5658836000075098,,,,,,,,,,,,dhn,f,20,2024_Apr_14_1016,mian,2021.2.3,60.633216938352135,
6H,2,1,6.0,l,"[-0.2, -0.2]",,,,,,,,,,,,,,,,0,74,74,74,,,,,,,,,,,,,,,,,,,,,a,0,0.5835649999935413,,,,,,,,,,,,dhn,f,20,2024_Apr_14_1016,mian,2021.2.3,60.633216938352135,
3a,2,2,3.0,a,"[0.2, -0.2]",,,,,,,,,,,,,,,,0,75,75,75,,,,,,,,,,,,,,,,,,,,,a,1,0.9746950999979163,,,,,,,,,,,,dhn,f,20,2024_Apr_14_1016,mian,2021.2.3,60.633216938352135,
9F,1,1,F,a,"[0.2, 0.2]",,,,,,,,,,,,,,,,0,76,76,76,,,,,,,,,,,,,,,,,,,,,a,1,1.0542845999880228,,,,,,,,,,,,dhn,f,20,2024_Apr_14_1016,mian,2021.2.3,60.633216938352135,
G7,1,2,G,a,"[-0.2, 0.2]",,,,,,,,,,,,,,,,0,77,77,77,,,,,,,,,,,,,,,,,,,,,a,1,0.6286207999946782,,,,,,,,,,,,dhn,f,20,2024_Apr_14_1016,mian,2021.2.3,60.633216938352135,
a6,2,1,6.0,l,"[-0.2, -0.2]",,,,,,,,,,,,,,,,0,78,78,78,,,,,,,,,,,,,,,,,,,,,l,1,1.166612899993197,,,,,,,,,,,,dhn,f,20,2024_Apr_14_1016,mian,2021.2.3,60.633216938352135,
4h,2,2,4.0,l,"[0.2, -0.2]",,,,,,,,,,,,,,,,0,79,79,79,,,,,,,,,,,,,,,,,,,,,l,1,0.6849877000058768,,,,,,,,,,,,dhn,f,20,2024_Apr_14_1016,mian,2021.2.3,60.633216938352135,
6A,1,1,A,a,"[0.2, 0.2]",,,,,,,,,,,,,,,,,,,,0,0,0,0,,,,,,,,,,,,,,,,,a,1,1.104472999999416,,,,,,,,,,,,dhn,f,20,2024_Apr_14_1016,mian,2021.2.3,60.633216938352135,
4H,1,2,H,a,"[-0.2, 0.2]",,,,,,,,,,,,,,,,,,,,0,1,1,1,,,,,,,,,,,,,,,,,a,1,0.5044713000097545,,,,,,,,,,,,dhn,f,20,2024_Apr_14_1016,mian,2021.2.3,60.633216938352135,
3H,2,1,3.0,a,"[-0.2, -0.2]",,,,,,,,,,,,,,,,,,,,0,2,2,2,,,,,,,,,,,,,,,,,a,1,1.6274319999938598,,,,,,,,,,,,dhn,f,20,2024_Apr_14_1016,mian,2021.2.3,60.633216938352135,
a9,2,2,9.0,a,"[0.2, -0.2]",,,,,,,,,,,,,,,,,,,,0,3,3,3,,,,,,,,,,,,,,,,,a,1,1.0439972000021953,,,,,,,,,,,,dhn,f,20,2024_Apr_14_1016,mian,2021.2.3,60.633216938352135,
E7,1,1,E,a,"[0.2, 0.2]",,,,,,,,,,,,,,,,,,,,0,4,4,4,,,,,,,,,,,,,,,,,a,1,0.6965850000124192,,,,,,,,,,,,dhn,f,20,2024_Apr_14_1016,mian,2021.2.3,60.633216938352135,
6h,1,2,h,l,"[-0.2, 0.2]",,,,,,,,,,,,,,,,,,,,0,5,5,5,,,,,,,,,,,,,,,,,l,1,0.5933419999928446,,,,,,,,,,,,dhn,f,20,2024_Apr_14_1016,mian,2021.2.3,60.633216938352135,
8A,2,1,8.0,l,"[-0.2, -0.2]",,,,,,,,,,,,,,,,,,,,0,6,6,6,,,,,,,,,,,,,,,,,l,1,1.5011928000021726,,,,,,,,,,,,dhn,f,20,2024_Apr_14_1016,mian,2021.2.3,60.633216938352135,
f5,2,2,5.0,a,"[0.2, -0.2]",,,,,,,,,,,,,,,,,,,,0,7,7,7,,,,,,,,,,,,,,,,,a,1,0.5719386999990093,,,,,,,,,,,,dhn,f,20,2024_Apr_14_1016,mian,2021.2.3,60.633216938352135,
2a,1,1,a,l,"[0.2, 0.2]",,,,,,,,,,,,,,,,,,,,0,8,8,8,,,,,,,,,,,,,,,,,l,1,0.6106347000022652,,,,,,,,,,,,dhn,f,20,2024_Apr_14_1016,mian,2021.2.3,60.633216938352135,
F7,1,2,F,a,"[-0.2, 0.2]",,,,,,,,,,,,,,,,,,,,0,9,9,9,,,,,,,,,,,,,,,,,a,1,0.650763099998585,,,,,,,,,,,,dhn,f,20,2024_Apr_14_1016,mian,2021.2.3,60.633216938352135,
h2,2,1,2.0,l,"[-0.2, -0.2]",,,,,,,,,,,,,,,,,,,,0,10,10,10,,,,,,,,,,,,,,,,,l,1,1.657717699999921,,,,,,,,,,,,dhn,f,20,2024_Apr_14_1016,mian,2021.2.3,60.633216938352135,
F5,2,2,5.0,a,"[0.2, -0.2]",,,,,,,,,,,,,,,,,,,,0,11,11,11,,,,,,,,,,,,,,,,,a,1,0.7107859999960056,,,,,,,,,,,,dhn,f,20,2024_Apr_14_1016,mian,2021.2.3,60.633216938352135,
A9,1,1,A,a,"[0.2, 0.2]",,,,,,,,,,,,,,,,,,,,0,12,12,12,,,,,,,,,,,,,,,,,a,1,0.9104509000026155,,,,,,,,,,,,dhn,f,20,2024_Apr_14_1016,mian,2021.2.3,60.633216938352135,
3e,1,2,e,l,"[-0.2, 0.2]",,,,,,,,,,,,,,,,,,,,0,13,13,13,,,,,,,,,,,,,,,,,l,1,1.467051999992691,,,,,,,,,,,,dhn,f,20,2024_Apr_14_1016,mian,2021.2.3,60.633216938352135,
f8,2,1,8.0,l,"[-0.2, -0.2]",,,,,,,,,,,,,,,,,,,,0,14,14,14,,,,,,,,,,,,,,,,,l,1,0.7491934999998193,,,,,,,,,,,,dhn,f,20,2024_Apr_14_1016,mian,2021.2.3,60.633216938352135,
G2,2,2,2.0,l,"[0.2, -0.2]",,,,,,,,,,,,,,,,,,,,0,15,15,15,,,,,,,,,,,,,,,,,l,1,0.6061683000007179,,,,,,,,,,,,dhn,f,20,2024_Apr_14_1016,mian,2021.2.3,60.633216938352135,
F2,1,1,F,a,"[0.2, 0.2]",,,,,,,,,,,,,,,,,,,,0,16,16,16,,,,,,,,,,,,,,,,,a,1,0.7596818000019994,,,,,,,,,,,,dhn,f,20,2024_Apr_14_1016,mian,2021.2.3,60.633216938352135,
5e,1,2,e,l,"[-0.2, 0.2]",,,,,,,,,,,,,,,,,,,,0,17,17,17,,,,,,,,,,,,,,,,,l,1,0.7755856000003405,,,,,,,,,,,,dhn,f,20,2024_Apr_14_1016,mian,2021.2.3,60.633216938352135,
A3,2,1,3.0,a,"[-0.2, -0.2]",,,,,,,,,,,,,,,,,,,,0,18,18,18,,,,,,,,,,,,,,,,,a,1,0.8810125000018161,,,,,,,,,,,,dhn,f,20,2024_Apr_14_1016,mian,2021.2.3,60.633216938352135,
4g,2,2,4.0,l,"[0.2, -0.2]",,,,,,,,,,,,,,,,,,,,0,19,19,19,,,,,,,,,,,,,,,,,l,1,0.6464185999939218,,,,,,,,,,,,dhn,f,20,2024_Apr_14_1016,mian,2021.2.3,60.633216938352135,
h7,1,1,h,l,"[0.2, 0.2]",,,,,,,,,,,,,,,,,,,,0,20,20,20,,,,,,,,,,,,,,,,,l,1,1.6165876000013668,,,,,,,,,,,,dhn,f,20,2024_Apr_14_1016,mian,2021.2.3,60.633216938352135,
3g,1,2,g,l,"[-0.2, 0.2]",,,,,,,,,,,,,,,,,,,,0,21,21,21,,,,,,,,,,,,,,,,,l,1,0.655169499994372,,,,,,,,,,,,dhn,f,20,2024_Apr_14_1016,mian,2021.2.3,60.633216938352135,
8a,2,1,8.0,l,"[-0.2, -0.2]",,,,,,,,,,,,,,,,,,,,0,22,22,22,,,,,,,,,,,,,,,,,l,1,1.256713300012052,,,,,,,,,,,,dhn,f,20,2024_Apr_14_1016,mian,2021.2.3,60.633216938352135,
4E,2,2,4.0,l,"[0.2, -0.2]",,,,,,,,,,,,,,,,,,,,0,23,23,23,,,,,,,,,,,,,,,,,l,1,0.7945703000004869,,,,,,,,,,,,dhn,f,20,2024_Apr_14_1016,mian,2021.2.3,60.633216938352135,
E5,1,1,E,a,"[0.2, 0.2]",,,,,,,,,,,,,,,,,,,,0,24,24,24,,,,,,,,,,,,,,,,,a,1,1.017321000006632,,,,,,,,,,,,dhn,f,20,2024_Apr_14_1016,mian,2021.2.3,60.633216938352135,
g6,1,2,g,l,"[-0.2, 0.2]",,,,,,,,,,,,,,,,,,,,0,25,25,25,,,,,,,,,,,,,,,,,l,1,0.5830835999950068,,,,,,,,,,,,dhn,f,20,2024_Apr_14_1016,mian,2021.2.3,60.633216938352135,
2e,2,1,2.0,l,"[-0.2, -0.2]",,,,,,,,,,,,,,,,,,,,0,26,26,26,,,,,,,,,,,,,,,,,l,1,1.200455600002897,,,,,,,,,,,,dhn,f,20,2024_Apr_14_1016,mian,2021.2.3,60.633216938352135,
h8,2,2,8.0,l,"[0.2, -0.2]",,,,,,,,,,,,,,,,,,,,0,27,27,27,,,,,,,,,,,,,,,,,l,1,0.7905145999975502,,,,,,,,,,,,dhn,f,20,2024_Apr_14_1016,mian,2021.2.3,60.633216938352135,
G6,1,1,G,a,"[0.2, 0.2]",,,,,,,,,,,,,,,,,,,,0,28,28,28,,,,,,,,,,,,,,,,,a,1,0.6336018000001786,,,,,,,,,,,,dhn,f,20,2024_Apr_14_1016,mian,2021.2.3,60.633216938352135,
a4,1,2,a,l,"[-0.2, 0.2]",,,,,,,,,,,,,,,,,,,,0,29,29,29,,,,,,,,,,,,,,,,,l,1,1.2215227999986382,,,,,,,,,,,,dhn,f,20,2024_Apr_14_1016,mian,2021.2.3,60.633216938352135,
9H,2,1,9.0,a,"[-0.2, -0.2]",,,,,,,,,,,,,,,,,,,,0,30,30,30,,,,,,,,,,,,,,,,,a,1,1.1089387000101851,,,,,,,,,,,,dhn,f,20,2024_Apr_14_1016,mian,2021.2.3,60.633216938352135,
7H,2,2,7.0,a,"[0.2, -0.2]",,,,,,,,,,,,,,,,,,,,0,31,31,31,,,,,,,,,,,,,,,,,a,1,0.750160199997481,,,,,,,,,,,,dhn,f,20,2024_Apr_14_1016,mian,2021.2.3,60.633216938352135,
9f,1,1,f,l,"[0.2, 0.2]",,,,,,,,,,,,,,,,,,,,0,32,32,32,,,,,,,,,,,,,,,,,l,1,1.0379976000112947,,,,,,,,,,,,dhn,f,20,2024_Apr_14_1016,mian,2021.2.3,60.633216938352135,
8E,1,2,E,a,"[-0.2, 0.2]",,,,,,,,,,,,,,,,,,,,0,33,33,33,,,,,,,,,,,,,,,,,a,1,0.6020054999971762,,,,,,,,,,,,dhn,f,20,2024_Apr_14_1016,mian,2021.2.3,60.633216938352135,
A2,2,1,2.0,l,"[-0.2, -0.2]",,,,,,,,,,,,,,,,,,,,0,34,34,34,,,,,,,,,,,,,,,,,l,1,1.4655900999932783,,,,,,,,,,,,dhn,f,20,2024_Apr_14_1016,mian,2021.2.3,60.633216938352135,
H7,2,2,7.0,a,"[0.2, -0.2]",,,,,,,,,,,,,,,,,,,,0,35,35,35,,,,,,,,,,,,,,,,,a,1,0.6720280000008643,,,,,,,,,,,,dhn,f,20,2024_Apr_14_1016,mian,2021.2.3,60.633216938352135,
h9,1,1,h,l,"[0.2, 0.2]",,,,,,,,,,,,,,,,,,,,0,36,36,36,,,,,,,,,,,,,,,,,l,1,0.8665734999958659,,,,,,,,,,,,dhn,f,20,2024_Apr_14_1016,mian,2021.2.3,60.633216938352135,
8G,1,2,G,a,"[-0.2, 0.2]",,,,,,,,,,,,,,,,,,,,0,37,37,37,,,,,,,,,,,,,,,,,a,1,0.6067762000020593,,,,,,,,,,,,dhn,f,20,2024_Apr_14_1016,mian,2021.2.3,60.633216938352135,
H4,2,1,4.0,l,"[-0.2, -0.2]",,,,,,,,,,,,,,,,,,,,0,38,38,38,,,,,,,,,,,,,,,,,l,1,0.7665561000030721,,,,,,,,,,,,dhn,f,20,2024_Apr_14_1016,mian,2021.2.3,60.633216938352135,
A8,2,2,8.0,l,"[0.2, -0.2]",,,,,,,,,,,,,,,,,,,,0,39,39,39,,,,,,,,,,,,,,,,,l,1,1.4949798000016017,,,,,,,,,,,,dhn,f,20,2024_Apr_14_1016,mian,2021.2.3,60.633216938352135,
g7,1,1,g,l,"[0.2, 0.2]",,,,,,,,,,,,,,,,,,,,0,40,40,40,,,,,,,,,,,,,,,,,l,1,1.8120897999906447,,,,,,,,,,,,dhn,f,20,2024_Apr_14_1016,mian,2021.2.3,60.633216938352135,
H9,1,2,H,a,"[-0.2, 0.2]",,,,,,,,,,,,,,,,,,,,0,41,41,41,,,,,,,,,,,,,,,,,a,1,1.1096790000010515,,,,,,,,,,,,dhn,f,20,2024_Apr_14_1016,mian,2021.2.3,60.633216938352135,
9E,2,1,9.0,a,"[-0.2, -0.2]",,,,,,,,,,,,,,,,,,,,0,42,42,42,,,,,,,,,,,,,,,,,a,1,1.0273761999997078,,,,,,,,,,,,dhn,f,20,2024_Apr_14_1016,mian,2021.2.3,60.633216938352135,
a5,2,2,5.0,a,"[0.2, -0.2]",,,,,,,,,,,,,,,,,,,,0,43,43,43,,,,,,,,,,,,,,,,,a,1,0.8919478000025265,,,,,,,,,,,,dhn,f,20,2024_Apr_14_1016,mian,2021.2.3,60.633216938352135,
3E,1,1,E,a,"[0.2, 0.2]",,,,,,,,,,,,,,,,,,,,0,44,44,44,,,,,,,,,,,,,,,,,a,1,2.4170911999972304,,,,,,,,,,,,dhn,f,20,2024_Apr_14_1016,mian,2021.2.3,60.633216938352135,
6f,1,2,f,l,"[-0.2, 0.2]",,,,,,,,,,,,,,,,,,,,0,45,45,45,,,,,,,,,,,,,,,,,l,1,0.5897306999977445,,,,,,,,,,,,dhn,f,20,2024_Apr_14_1016,mian,2021.2.3,60.633216938352135,
g8,2,1,8.0,l,"[-0.2, -0.2]",,,,,,,,,,,,,,,,,,,,0,46,46,46,,,,,,,,,,,,,,,,,l,1,0.6230553000059444,,,,,,,,,,,,dhn,f,20,2024_Apr_14_1016,mian,2021.2.3,60.633216938352135,
4F,2,2,4.0,l,"[0.2, -0.2]",,,,,,,,,,,,,,,,,,,,0,47,47,47,,,,,,,,,,,,,,,,,l,1,0.5492456000065431,,,,,,,,,,,,dhn,f,20,2024_Apr_14_1016,mian,2021.2.3,60.633216938352135,
4a,1,1,a,l,"[0.2, 0.2]",,,,,,,,,,,,,,,,,,,,0,48,48,48,,,,,,,,,,,,,,,,,l,1,1.6365122999995947,,,,,,,,,,,,dhn,f,20,2024_Apr_14_1016,mian,2021.2.3,60.633216938352135,
e3,1,2,e,l,"[-0.2, 0.2]",,,,,,,,,,,,,,,,,,,,0,49,49,49,,,,,,,,,,,,,,,,,l,1,1.6548042999929748,,,,,,,,,,,,dhn,f,20,2024_Apr_14_1016,mian,2021.2.3,60.633216938352135,
5g,2,1,5.0,a,"[-0.2, -0.2]",,,,,,,,,,,,,,,,,,,,0,50,50,50,,,,,,,,,,,,,,,,,a,1,1.0165374000062002,,,,,,,,,,,,dhn,f,20,2024_Apr_14_1016,mian,2021.2.3,60.633216938352135,
f4,2,2,4.0,l,"[0.2, -0.2]",,,,,,,,,,,,,,,,,,,,0,51,51,51,,,,,,,,,,,,,,,,,l,1,1.9763695000001462,,,,,,,,,,,,dhn,f,20,2024_Apr_14_1016,mian,2021.2.3,60.633216938352135,
6E,1,1,E,a,"[0.2, 0.2]",,,,,,,,,,,,,,,,,,,,0,52,52,52,,,,,,,,,,,,,,,,,a,1,1.0284310999995796,,,,,,,,,,,,dhn,f,20,2024_Apr_14_1016,mian,2021.2.3,60.633216938352135,
7A,1,2,A,a,"[-0.2, 0.2]",,,,,,,,,,,,,,,,,,,,0,53,53,53,,,,,,,,,,,,,,,,,a,1,0.8944555000052787,,,,,,,,,,,,dhn,f,20,2024_Apr_14_1016,mian,2021.2.3,60.633216938352135,
F4,2,1,4.0,l,"[-0.2, -0.2]",,,,,,,,,,,,,,,,,,,,0,54,54,54,,,,,,,,,,,,,,,,,l,1,1.2267739999952028,,,,,,,,,,,,dhn,f,20,2024_Apr_14_1016,mian,2021.2.3,60.633216938352135,
2g,2,2,2.0,l,"[0.2, -0.2]",,,,,,,,,,,,,,,,,,,,0,55,55,55,,,,,,,,,,,,,,,,,l,1,0.4970984999963548,,,,,,,,,,,,dhn,f,20,2024_Apr_14_1016,mian,2021.2.3,60.633216938352135,
7E,1,1,E,a,"[0.2, 0.2]",,,,,,,,,,,,,,,,,,,,0,56,56,56,,,,,,,,,,,,,,,,,a,1,0.7411344000138342,,,,,,,,,,,,dhn,f,20,2024_Apr_14_1016,mian,2021.2.3,60.633216938352135,
G4,1,2,G,a,"[-0.2, 0.2]",,,,,,,,,,,,,,,,,,,,0,57,57,57,,,,,,,,,,,,,,,,,a,1,0.4262622999958694,,,,,,,,,,,,dhn,f,20,2024_Apr_14_1016,mian,2021.2.3,60.633216938352135,
2F,2,1,2.0,l,"[-0.2, -0.2]",,,,,,,,,,,,,,,,,,,,0,58,58,58,,,,,,,,,,,,,,,,,l,1,0.4938006000011228,,,,,,,,,,,,dhn,f,20,2024_Apr_14_1016,mian,2021.2.3,60.633216938352135,
E9,2,2,9.0,a,"[0.2, -0.2]",,,,,,,,,,,,,,,,,,,,0,59,59,59,,,,,,,,,,,,,,,,,a,1,0.5471860999969067,,,,,,,,,,,,dhn,f,20,2024_Apr_14_1016,mian,2021.2.3,60.633216938352135,
5f,1,1,f,l,"[0.2, 0.2]",,,,,,,,,,,,,,,,,,,,0,60,60,60,,,,,,,,,,,,,,,,,l,1,0.7792485999962082,,,,,,,,,,,,dhn,f,20,2024_Apr_14_1016,mian,2021.2.3,60.633216938352135,
e7,1,2,e,l,"[-0.2, 0.2]",,,,,,,,,,,,,,,,,,,,0,61,61,61,,,,,,,,,,,,,,,,,l,1,0.5194888999976683,,,,,,,,,,,,dhn,f,20,2024_Apr_14_1016,mian,2021.2.3,60.633216938352135,
f2,2,1,2.0,l,"[-0.2, -0.2]",,,,,,,,,,,,,,,,,,,,0,62,62,62,,,,,,,,,,,,,,,,,l,1,0.6147468999988632,,,,,,,,,,,,dhn,f,20,2024_Apr_14_1016,mian,2021.2.3,60.633216938352135,
G9,2,2,9.0,a,"[0.2, -0.2]",,,,,,,,,,,,,,,,,,,,0,63,63,63,,,,,,,,,,,,,,,,,a,1,0.733868800001801,,,,,,,,,,,,dhn,f,20,2024_Apr_14_1016,mian,2021.2.3,60.633216938352135,
7g,1,1,g,l,"[0.2, 0.2]",,,,,,,,,,,,,,,,,,,,0,64,64,64,,,,,,,,,,,,,,,,,l,1,0.8665462000062689,,,,,,,,,,,,dhn,f,20,2024_Apr_14_1016,mian,2021.2.3,60.633216938352135,
F8,1,2,F,a,"[-0.2, 0.2]",,,,,,,,,,,,,,,,,,,,0,65,65,65,,,,,,,,,,,,,,,,,a,1,0.5931795000069542,,,,,,,,,,,,dhn,f,20,2024_Apr_14_1016,mian,2021.2.3,60.633216938352135,
A7,2,1,7.0,a,"[-0.2, -0.2]",,,,,,,,,,,,,,,,,,,,0,66,66,66,,,,,,,,,,,,,,,,,l,0,1.7431928000005428,,,,,,,,,,,,dhn,f,20,2024_Apr_14_1016,mian,2021.2.3,60.633216938352135,
4G,2,2,4.0,l,"[0.2, -0.2]",,,,,,,,,,,,,,,,,,,,0,67,67,67,,,,,,,,,,,,,,,,,l,1,0.8333459999994375,,,,,,,,,,,,dhn,f,20,2024_Apr_14_1016,mian,2021.2.3,60.633216938352135,
g2,1,1,g,l,"[0.2, 0.2]",,,,,,,,,,,,,,,,,,,,0,68,68,68,,,,,,,,,,,,,,,,,l,1,1.5268027999991318,,,,,,,,,,,,dhn,f,20,2024_Apr_14_1016,mian,2021.2.3,60.633216938352135,
g4,1,2,g,l,"[-0.2, 0.2]",,,,,,,,,,,,,,,,,,,,0,69,69,69,,,,,,,,,,,,,,,,,l,1,0.4399078999995254,,,,,,,,,,,,dhn,f,20,2024_Apr_14_1016,mian,2021.2.3,60.633216938352135,
7a,2,1,7.0,a,"[-0.2, -0.2]",,,,,,,,,,,,,,,,,,,,0,70,70,70,,,,,,,,,,,,,,,,,a,1,1.9782617000018945,,,,,,,,,,,,dhn,f,20,2024_Apr_14_1016,mian,2021.2.3,60.633216938352135,
8e,2,2,8.0,l,"[0.2, -0.2]",,,,,,,,,,,,,,,,,,,,0,71,71,71,,,,,,,,,,,,,,,,,l,1,0.7744939999975031,,,,,,,,,,,,dhn,f,20,2024_Apr_14_1016,mian,2021.2.3,60.633216938352135,
h4,1,1,h,l,"[0.2, 0.2]",,,,,,,,,,,,,,,,,,,,0,72,72,72,,,,,,,,,,,,,,,,,l,1,2.08343959999911,,,,,,,,,,,,dhn,f,20,2024_Apr_14_1016,mian,2021.2.3,60.633216938352135,
G8,1,2,G,a,"[-0.2, 0.2]",,,,,,,,,,,,,,,,,,,,0,73,73,73,,,,,,,,,,,,,,,,,a,1,0.48337639999226667,,,,,,,,,,,,dhn,f,20,2024_Apr_14_1016,mian,2021.2.3,60.633216938352135,
6F,2,1,6.0,l,"[-0.2, -0.2]",,,,,,,,,,,,,,,,,,,,0,74,74,74,,,,,,,,,,,,,,,,,l,1,1.5319993999873986,,,,,,,,,,,,dhn,f,20,2024_Apr_14_1016,mian,2021.2.3,60.633216938352135,
g5,2,2,5.0,a,"[0.2, -0.2]",,,,,,,,,,,,,,,,,,,,0,75,75,75,,,,,,,,,,,,,,,,,a,1,0.5518077999877278,,,,,,,,,,,,dhn,f,20,2024_Apr_14_1016,mian,2021.2.3,60.633216938352135,
G5,1,1,G,a,"[0.2, 0.2]",,,,,,,,,,,,,,,,,,,,0,76,76,76,,,,,,,,,,,,,,,,,a,1,1.2894435000052908,,,,,,,,,,,,dhn,f,20,2024_Apr_14_1016,mian,2021.2.3,60.633216938352135,
h5,1,2,h,l,"[-0.2, 0.2]",,,,,,,,,,,,,,,,,,,,0,77,77,77,,,,,,,,,,,,,,,,,l,1,0.5937887000036426,,,,,,,,,,,,dhn,f,20,2024_Apr_14_1016,mian,2021.2.3,60.633216938352135,
9G,2,1,9.0,a,"[-0.2, -0.2]",,,,,,,,,,,,,,,,,,,,0,78,78,78,,,,,,,,,,,,,,,,,l,0,1.5586316999979317,,,,,,,,,,,,dhn,f,20,2024_Apr_14_1016,mian,2021.2.3,60.633216938352135,
F3,2,2,3.0,a,"[0.2, -0.2]",,,,,,,,,,,,,,,,,,,,0,79,79,79,,,,,,,,,,,,,,,,,l,0,0.9816343999991659,,,,,,,,,,,,dhn,f,20,2024_Apr_14_1016,mian,2021.2.3,60.633216938352135,
,,,,,,1,1,pic/flanker6.png,pic/flanker4.png,s,k,,,,,,,,,,,,,,,,,,0,0,0,0,0,0,0,6,,,,,,,,,,,,476.9894045999972,None,475.78941720000876,476.9894045999972,s,1,1.2267412000073818,公平,k,1,1.2833510000054957,dhn,f,20,2024_Apr_14_1016,mian,2021.2.3,60.633216938352135,
,,,,,,0,0,pic/flanker5.png,pic/flanker1.png,s,l,,,,,,,,,,,,,,,,,,0,0,0,0,0,1,1,3,,,,,,,,,,,,481.42495320001035,None,480.2413247000077,481.442464000007,s,1,0.7221903000026941,胡涂,l,1,1.1253839999990305,dhn,f,20,2024_Apr_14_1016,mian,2021.2.3,60.633216938352135,
,,,,,,1,0,pic/flanker6.png,pic/flanker4.png,s,l,,,,,,,,,,,,,,,,,,0,0,0,0,0,2,2,5,,,,,,,,,,,,485.2769163000048,None,484.0925836000097,485.2936078000057,s,1,0.6898496999929193,落后,l,1,1.6699416000046767,dhn,f,20,2024_Apr_14_1016,mian,2021.2.3,60.633216938352135,
,,,,,,0,1,pic/flanker5.png,pic/flanker1.png,s,k,,,,,,,,,,,,,,,,,,0,0,0,0,0,3,3,0,,,,,,,,,,,,489.53002079999715,None,488.3454064000107,489.54626230000576,s,1,0.4363195000041742,羡慕,k,1,1.3033691000018734,dhn,f,20,2024_Apr_14_1016,mian,2021.2.3,60.633216938352135,
,,,,,,1,0,pic/flanker5.png,pic/flanker3.png,a,l,,,,,,,,,,,,,,,,,,0,0,0,0,0,4,4,7,,,,,,,,,,,,493.1650707000081,None,491.98095870000543,493.18133380000654,a,1,0.5871481999929529,烦恼,l,1,0.8632450999866705,dhn,f,20,2024_Apr_14_1016,mian,2021.2.3,60.633216938352135,
,,,,,,1,1,pic/flanker5.png,pic/flanker3.png,a,k,,,,,,,,,,,,,,,,,,0,0,0,0,0,5,5,4,,,,,,,,,,,,496.64929010000196,None,495.46539130000747,496.66625280000153,a,1,0.6876076000044122,畅销,k,1,1.2743852999992669,dhn,f,20,2024_Apr_14_1016,mian,2021.2.3,60.633216938352135,
,,,,,,0,0,pic/flanker6.png,pic/flanker2.png,a,l,,,,,,,,,,,,,,,,,,0,0,0,0,0,6,6,1,,,,,,,,,,,,500.6522338000068,None,499.4711010000028,500.6856723000092,a,1,1.219659700000193,穷苦,l,1,1.3510104000015417,dhn,f,20,2024_Apr_14_1016,mian,2021.2.3,60.633216938352135,
,,,,,,0,1,pic/flanker6.png,pic/flanker2.png,a,k,,,,,,,,,,,,,,,,,,0,0,0,0,0,7,7,2,,,,,,,,,,,,505.17070760000206,None,503.9864807999984,505.1871112000081,a,1,0.41559760000382084,卓越,k,1,0.6538443999888841,dhn,f,20,2024_Apr_14_1016,mian,2021.2.3,60.633216938352135,
,,,,,,,,,,,,,,,,,,,,,,,,,,,,,0,0,0,0,,,,,,,,,,,,,,,,,,,,,,,,,,,dhn,f,20,2024_Apr_14_1016,mian,2021.2.3,60.633216938352135,
,,,,,,1,1,pic/flanker5.png,pic/flanker3.png,a,k,pic/AffRest1.png,,,,,,,,,,,,,,,,,,,,,,,,,0,0,0,0,0,0,0,60,,,,520.8784087000095,None,519.691891399998,520.8947904000088,a,1,0.573708700001589,生动,k,1,0.7749772999959532,dhn,f,20,2024_Apr_14_1016,mian,2021.2.3,60.633216938352135,
,,,,,,1,0,pic/flanker5.png,pic/flanker3.png,a,l,pic/AffRest1.png,,,,,,,,,,,,,,,,,,,,,,,,,0,0,0,0,0,1,1,55,,,,524.3135704000015,None,523.1297422000061,524.3307404000079,a,1,0.5628575000009732,逃避,l,1,0.7773042999906465,dhn,f,20,2024_Apr_14_1016,mian,2021.2.3,60.633216938352135,
,,,,,,0,0,pic/flanker5.png,pic/flanker1.png,s,l,pic/AffRest1.png,,,,,,,,,,,,,,,,,,,,,,,,,0,0,0,0,0,2,2,51,,,,527.5824877999985,None,526.3983724999998,527.5989859999972,s,1,0.5537810000096215,争吵,l,1,0.8247587999940151,dhn,f,20,2024_Apr_14_1016,mian,2021.2.3,60.633216938352135,
,,,,,,1,0,pic/flanker5.png,pic/flanker3.png,a,l,pic/AffRest1.png,,,,,,,,,,,,,,,,,,,,,,,,,0,0,0,0,0,3,3,71,,,,530.9835077000025,None,529.7992368999985,531.0002483999997,a,1,0.5230003000033321,浪费,l,1,0.6049769000092056,dhn,f,20,2024_Apr_14_1016,mian,2021.2.3,60.633216938352135,
,,,,,,0,0,pic/flanker6.png,pic/flanker2.png,a,l,pic/AffRest1.png,,,,,,,,,,,,,,,,,,,,,,,,,0,0,0,0,0,4,4,49,,,,534.0018682000082,None,532.8178475000022,534.0189012000046,a,1,0.3595696999982465,黑暗,l,1,0.7153386999998474,dhn,f,20,2024_Apr_14_1016,mian,2021.2.3,60.633216938352135,
,,,,,,0,1,pic/flanker5.png,pic/flanker1.png,s,k,pic/AffRest1.png,,,,,,,,,,,,,,,,,,,,,,,,,0,0,0,0,0,5,5,56,,,,536.9215336000052,None,535.7354607000016,536.936769100008,s,1,0.3957570999918971,鲜艳,k,1,0.5706893000024138,dhn,f,20,2024_Apr_14_1016,mian,2021.2.3,60.633216938352135,
,,,,,,0,0,pic/flanker5.png,pic/flanker1.png,s,l,pic/AffRest1.png,,,,,,,,,,,,,,,,,,,,,,,,,0,0,0,0,0,6,6,43,,,,539.7213273000089,None,538.536987200001,539.7395508000045,s,1,0.39286880000145175,堵塞,l,1,0.619777999992948,dhn,f,20,2024_Apr_14_1016,mian,2021.2.3,60.633216938352135,
,,,,,,0,1,pic/flanker5.png,pic/flanker1.png,s,k,pic/AffRest1.png,,,,,,,,,,,,,,,,,,,,,,,,,0,0,0,0,0,7,7,24,,,,542.5566923000006,None,541.3717854999995,542.57369260001,s,1,0.5059311999939382,正直,k,1,0.6373354999959702,dhn,f,20,2024_Apr_14_1016,mian,2021.2.3,60.633216938352135,
,,,,,,1,1,pic/flanker6.png,pic/flanker4.png,s,k,pic/AffRest1.png,,,,,,,,,,,,,,,,,,,,,,,,,0,0,0,0,0,8,8,38,,,,545.6911891000054,None,544.5070264000096,545.7080106000067,s,1,0.5417337999970187,公平,k,1,0.6075549999950454,dhn,f,20,2024_Apr_14_1016,mian,2021.2.3,60.633216938352135,
,,,,,,1,0,pic/flanker6.png,pic/flanker4.png,s,l,pic/AffRest1.png,,,,,,,,,,,,,,,,,,,,,,,,,0,0,0,0,0,9,9,69,,,,548.8098816999991,None,547.6252372000017,548.827031000008,s,1,0.5058996000007028,别扭,l,1,0.7202778999926522,dhn,f,20,2024_Apr_14_1016,mian,2021.2.3,60.633216938352135,
,,,,,,0,0,pic/flanker6.png,pic/flanker2.png,a,l,pic/AffRest1.png,,,,,,,,,,,,,,,,,,,,,,,,,0,0,0,0,0,10,10,17,,,,552.0610350000061,None,550.8768277000054,552.0783339000045,a,1,0.5007688000041526,自卑,l,1,0.7107269999978598,dhn,f,20,2024_Apr_14_1016,mian,2021.2.3,60.633216938352135,
,,,,,,0,0,pic/flanker5.png,pic/flanker1.png,s,l,pic/AffRest1.png,,,,,,,,,,,,,,,,,,,,,,,,,0,0,0,0,0,11,11,75,,,,555.2125607000053,None,554.0284859000094,555.2294384999987,s,1,0.4325888000021223,轻率,l,1,0.697672700000112,dhn,f,20,2024_Apr_14_1016,mian,2021.2.3,60.633216938352135,
,,,,,,0,1,pic/flanker6.png,pic/flanker2.png,a,k,pic/AffRest1.png,,,,,,,,,,,,,,,,,,,,,,,,,0,0,0,0,0,12,12,50,,,,558.2812726999982,None,557.0967512000061,558.2979861000058,a,1,0.3869414999935543,雄厚,k,1,0.9243606999953045,dhn,f,20,2024_Apr_14_1016,mian,2021.2.3,60.633216938352135,
,,,,,,1,0,pic/flanker5.png,pic/flanker3.png,a,l,pic/AffRest1.png,,,,,,,,,,,,,,,,,,,,,,,,,0,0,0,0,0,13,13,23,,,,561.5492200000008,None,560.3652013000101,561.5653034999996,a,1,0.5704591999965487,处罚,l,1,0.5643737000063993,dhn,f,20,2024_Apr_14_1016,mian,2021.2.3,60.633216938352135,
,,,,,,1,1,pic/flanker6.png,pic/flanker4.png,s,k,pic/AffRest1.png,,,,,,,,,,,,,,,,,,,,,,,,,0,0,0,0,0,14,14,30,,,,564.6175120999978,None,563.4331623000035,564.6335805999988,s,1,0.6479073999944376,秀丽,k,1,0.6175433000025805,dhn,f,20,2024_Apr_14_1016,mian,2021.2.3,60.633216938352135,
,,,,,,1,0,pic/flanker5.png,pic/flanker3.png,a,l,pic/AffRest1.png,,,,,,,,,,,,,,,,,,,,,,,,,0,0,0,0,0,15,15,79,,,,567.8687518000079,None,566.684611100005,567.8854931000096,a,1,0.5628889000072377,消沉,l,1,0.6157173999963561,dhn,f,20,2024_Apr_14_1016,mian,2021.2.3,60.633216938352135,
,,,,,,0,1,pic/flanker5.png,pic/flanker1.png,s,k,pic/AffRest1.png,,,,,,,,,,,,,,,,,,,,,,,,,0,0,0,0,0,16,16,64,,,,570.9375837999978,None,569.7529865999968,570.9546340000088,s,1,0.4113613999943482,珍藏,k,1,0.6124844000005396,dhn,f,20,2024_Apr_14_1016,mian,2021.2.3,60.633216938352135,
,,,,,,0,0,pic/flanker6.png,pic/flanker2.png,a,l,pic/AffRest1.png,,,,,,,,,,,,,,,,,,,,,,,,,0,0,0,0,0,17,17,41,,,,573.9884690000035,None,572.8047676999995,574.0052961000038,a,1,0.6662297000002582,烦恼,l,1,0.6608202000061283,dhn,f,20,2024_Apr_14_1016,mian,2021.2.3,60.633216938352135,
,,,,,,0,1,pic/flanker5.png,pic/flanker1.png,s,k,pic/AffRest1.png,,,,,,,,,,,,,,,,,,,,,,,,,0,0,0,0,0,18,18,40,,,,577.3572418999975,None,576.1732221999991,577.3735270000034,s,1,0.4300927000003867,爽朗,k,1,0.6251128000003519,dhn,f,20,2024_Apr_14_1016,mian,2021.2.3,60.633216938352135,
,,,,,,1,0,pic/flanker6.png,pic/flanker4.png,s,l,pic/AffRest1.png,,,,,,,,,,,,,,,,,,,,,,,,,0,0,0,0,0,19,19,37,,,,580.4755372000072,None,579.2916034000082,580.4921207000007,s,1,0.7182271000056062,厌恶,l,1,1.2882908000028692,dhn,f,20,2024_Apr_14_1016,mian,2021.2.3,60.633216938352135,
,,,,,,0,0,pic/flanker5.png,pic/flanker1.png,s,l,pic/AffRest1.png,,,,,,,,,,,,,,,,,,,,,,,,,0,0,0,0,0,20,20,19,,,,584.3106686999963,None,583.1270843000093,584.3279858000024,s,1,0.5311958000093,伤心,l,1,0.7076627999922493,dhn,f,20,2024_Apr_14_1016,mian,2021.2.3,60.633216938352135,
,,,,,,1,0,pic/flanker6.png,pic/flanker4.png,s,l,pic/AffRest1.png,,,,,,,,,,,,,,,,,,,,,,,,,0,0,0,0,0,21,21,13,,,,587.5133088000002,None,586.3275766000006,587.5294442000013,s,1,0.5928896000114037,排斥,l,1,0.6491341000073589,dhn,f,20,2024_Apr_14_1016,mian,2021.2.3,60.633216938352135,
,,,,,,1,1,pic/flanker6.png,pic/flanker4.png,s,k,pic/AffRest1.png,,,,,,,,,,,,,,,,,,,,,,,,,0,0,0,0,0,22,22,14,,,,590.6304631000094,None,589.4466465000005,590.6472880000074,s,1,0.5649312000023201,永恒,k,1,0.7388093000045046,dhn,f,20,2024_Apr_14_1016,mian,2021.2.3,60.633216938352135,
,,,,,,1,0,pic/flanker6.png,pic/flanker4.png,s,l,pic/AffRest1.png,,,,,,,,,,,,,,,,,,,,,,,,,0,0,0,0,0,23,23,61,,,,593.8991398000071,None,592.7145964000083,593.9156386999966,s,1,0.8017183000047226,冷笑,l,1,0.7104775999905542,dhn,f,20,2024_Apr_14_1016,mian,2021.2.3,60.633216938352135,
,,,,,,0,0,pic/flanker6.png,pic/flanker2.png,a,l,pic/AffRest1.png,,,,,,,,,,,,,,,,,,,,,,,,,0,0,0,0,0,24,24,1,,,,597.3176686000079,None,596.1341503000003,597.3344253999967,a,1,0.493436799995834,悲观,l,1,0.6048349999909988,dhn,f,20,2024_Apr_14_1016,mian,2021.2.3,60.633216938352135,
,,,,,,0,0,pic/flanker6.png,pic/flanker2.png,a,l,pic/AffRest1.png,,,,,,,,,,,,,,,,,,,,,,,,,0,0,0,0,0,25,25,65,,,,600.3355169999995,None,599.1515441000083,600.3520010000066,a,1,0.37425989999610465,假冒,l,1,0.5393956000043545,dhn,f,20,2024_Apr_14_1016,mian,2021.2.3,60.633216938352135,
,,,,,,0,1,pic/flanker6.png,pic/flanker2.png,a,k,pic/AffRest1.png,,,,,,,,,,,,,,,,,,,,,,,,,0,0,0,0,0,26,26,58,,,,603.0703194000089,None,601.8856993000081,603.0869174999971,a,1,0.3430623000022024,瑰丽,k,1,0.5367710999998963,dhn,f,20,2024_Apr_14_1016,mian,2021.2.3,60.633216938352135,
,,,,,,0,0,pic/flanker6.png,pic/flanker2.png,a,l,pic/AffRest1.png,,,,,,,,,,,,,,,,,,,,,,,,,0,0,0,0,0,27,27,57,,,,605.9722787000064,None,604.7878391999984,605.988327900006,a,1,0.4173453999974299,穷苦,l,1,0.532630200003041,dhn,f,20,2024_Apr_14_1016,mian,2021.2.3,60.633216938352135,
,,,,,,0,0,pic/flanker5.png,pic/flanker1.png,s,l,pic/AffRest1.png,,,,,,,,,,,,,,,,,,,,,,,,,0,0,0,0,0,28,28,3,,,,608.8607538000069,None,607.6722191000008,608.8732230000023,s,1,0.405838999999105,郁闷,l,1,0.7021561000001384,dhn,f,20,2024_Apr_14_1016,mian,2021.2.3,60.633216938352135,
,,,,,,0,1,pic/flanker6.png,pic/flanker2.png,a,k,pic/AffRest1.png,,,,,,,,,,,,,,,,,,,,,,,,,0,0,0,0,0,29,29,66,,,,611.9582824000099,None,610.7743488999986,611.97544010001,a,1,0.32498030000715517,俊秀,k,1,0.5231428999977652,dhn,f,20,2024_Apr_14_1016,mian,2021.2.3,60.633216938352135,
,,,,,,0,1,pic/flanker6.png,pic/flanker2.png,a,k,pic/AffRest1.png,,,,,,,,,,,,,,,,,,,,,,,,,0,0,0,0,0,30,30,10,,,,614.7768876000046,None,613.5937590999965,614.793523100001,a,1,0.43283879999944475,精致,k,1,0.5194460000057006,dhn,f,20,2024_Apr_14_1016,mian,2021.2.3,60.633216938352135,
,,,,,,1,1,pic/flanker5.png,pic/flanker3.png,a,k,pic/AffRest1.png,,,,,,,,,,,,,,,,,,,,,,,,,0,0,0,0,0,31,31,76,,,,617.7621095000068,None,616.5792036000057,617.7783629000041,a,1,0.5681332999956794,豪放,k,1,0.5984386000054656,dhn,f,20,2024_Apr_14_1016,mian,2021.2.3,60.633216938352135,
,,,,,,0,1,pic/flanker5.png,pic/flanker1.png,s,k,pic/AffRest1.png,,,,,,,,,,,,,,,,,,,,,,,,,0,0,0,0,0,32,32,16,,,,620.7630284000043,None,619.5791497000027,620.7800354000065,s,1,0.4593883000052301,享受,k,1,0.5275243000069167,dhn,f,20,2024_Apr_14_1016,mian,2021.2.3,60.633216938352135,
,,,,,,1,1,pic/flanker5.png,pic/flanker3.png,a,k,pic/AffRest1.png,,,,,,,,,,,,,,,,,,,,,,,,,0,0,0,0,0,33,33,52,,,,623.6307097000099,None,622.4486394999985,623.6639821999997,a,1,0.624766200009617,留恋,k,1,0.5766057000000728,dhn,f,20,2024_Apr_14_1016,mian,2021.2.3,60.633216938352135,
,,,,,,0,0,pic/flanker5.png,pic/flanker1.png,s,l,pic/AffRest1.png,,,,,,,,,,,,,,,,,,,,,,,,,0,0,0,0,0,34,34,67,,,,626.749555500006,None,625.5647213000047,626.7664933000051,s,1,0.41576449999411125,落后,l,1,0.6137268000020413,dhn,f,20,2024_Apr_14_1016,mian,2021.2.3,60.633216938352135,
,,,,,,1,0,pic/flanker6.png,pic/flanker4.png,s,l,pic/AffRest1.png,,,,,,,,,,,,,,,,,,,,,,,,,0,0,0,0,0,35,35,53,,,,629.6839143999969,None,628.5000508000085,629.7014861000062,s,1,0.6142705000092974,嘲笑,l,1,0.6884694999898784,dhn,f,20,2024_Apr_14_1016,mian,2021.2.3,60.633216938352135,
,,,,,,1,1,pic/flanker5.png,pic/flanker3.png,a,k,pic/AffRest1.png,,,,,,,,,,,,,,,,,,,,,,,,,0,0,0,0,0,36,36,36,,,,632.9359619000024,None,631.7514096000086,632.9522740000102,a,1,0.6190349999960745,吉祥,k,1,0.5142641999991611,dhn,f,20,2024_Apr_14_1016,mian,2021.2.3,60.633216938352135,
,,,,,,1,1,pic/flanker6.png,pic/flanker4.png,s,k,pic/AffRest1.png,,,,,,,,,,,,,,,,,,,,,,,,,0,0,0,0,0,37,37,62,,,,636.0712079000077,None,634.8867628000007,636.0874646000011,s,1,0.5289604999998119,圣洁,k,1,0.5425471000053221,dhn,f,20,2024_Apr_14_1016,mian,2021.2.3,60.633216938352135,
,,,,,,0,1,pic/flanker5.png,pic/flanker1.png,s,k,pic/AffRest1.png,,,,,,,,,,,,,,,,,,,,,,,,,0,0,0,0,0,38,38,0,,,,639.0049903000036,None,637.8222314000013,639.0216855000035,s,1,0.4504492999985814,富丽,k,1,0.5208636999886949,dhn,f,20,2024_Apr_14_1016,mian,2021.2.3,60.633216938352135,
,,,,,,0,0,pic/flanker5.png,pic/flanker1.png,s,l,pic/AffRest1.png,,,,,,,,,,,,,,,,,,,,,,,,,0,0,0,0,0,39,39,35,,,,642.0231782000046,None,640.8391803999984,642.0398322999972,s,1,0.4832907999953022,懒惰,l,1,0.5505464000016218,dhn,f,20,2024_Apr_14_1016,mian,2021.2.3,60.633216938352135,
,,,,,,0,1,pic/flanker6.png,pic/flanker2.png,a,k,pic/AffRest1.png,,,,,,,,,,,,,,,,,,,,,,,,,0,0,0,0,0,40,40,26,,,,645.0747312000021,None,643.8907152000029,645.0913957000012,a,1,0.3640863000036916,旺盛,k,1,0.4756554000050528,dhn,f,20,2024_Apr_14_1016,mian,2021.2.3,60.633216938352135,
,,,,,,1,0,pic/flanker5.png,pic/flanker3.png,a,l,pic/AffRest1.png,,,,,,,,,,,,,,,,,,,,,,,,,0,0,0,0,0,41,41,47,,,,647.7976026000106,None,646.5920893000002,647.8091724999977,a,1,0.5903847999870777,焦躁,l,1,0.6437314000068,dhn,f,20,2024_Apr_14_1016,mian,2021.2.3,60.633216938352135,
,,,,,,1,1,pic/flanker5.png,pic/flanker3.png,a,k,pic/AffRest1.png,,,,,,,,,,,,,,,,,,,,,,,,,0,0,0,0,0,42,42,20,,,,650.9281335999985,None,649.7451138000033,650.9452071999985,a,1,0.5741765999991912,前进,k,1,0.45106620001024567,dhn,f,20,2024_Apr_14_1016,mian,2021.2.3,60.633216938352135,
,,,,,,0,0,pic/flanker6.png,pic/flanker2.png,a,l,pic/AffRest1.png,,,,,,,,,,,,,,,,,,,,,,,,,0,0,0,0,0,43,43,9,,,,653.9304411000048,None,652.7452429999976,653.9469064000004,a,1,0.3333950000087498,损害,l,1,0.4626306999998633,dhn,f,20,2024_Apr_14_1016,mian,2021.2.3,60.633216938352135,
,,,,,,0,1,pic/flanker5.png,pic/flanker1.png,s,k,pic/AffRest1.png,,,,,,,,,,,,,,,,,,,,,,,,,0,0,0,0,0,44,44,32,,,,656.7150028000033,None,655.5311711999966,656.7316420999996,s,1,0.44223619998956565,廉洁,l,0,0.5304722000000766,dhn,f,20,2024_Apr_14_1016,mian,2021.2.3,60.633216938352135,
,,,,,,1,1,pic/flanker6.png,pic/flanker4.png,s,k,pic/AffRest1.png,,,,,,,,,,,,,,,,,,,,,,,,,0,0,0,0,0,45,45,78,,,,659.5992608000088,None,658.4155565999972,659.6161027000053,s,1,0.7240544000087539,充裕,k,1,0.5548272000014549,dhn,f,20,2024_Apr_14_1016,mian,2021.2.3,60.633216938352135,
,,,,,,0,0,pic/flanker6.png,pic/flanker2.png,a,l,pic/AffRest1.png,,,,,,,,,,,,,,,,,,,,,,,,,0,0,0,0,0,46,46,33,,,,662.9010268999991,None,661.7174861000094,662.9193448000005,a,1,0.3475698999973247,杂乱,l,1,0.5002883999986807,dhn,f,20,2024_Apr_14_1016,mian,2021.2.3,60.633216938352135,
,,,,,,1,1,pic/flanker5.png,pic/flanker3.png,a,k,pic/AffRest1.png,,,,,,,,,,,,,,,,,,,,,,,,,0,0,0,0,0,47,47,4,,,,665.7018872000044,None,664.5052628999983,665.7018872000044,a,1,0.583732200000668,卓越,k,1,0.4837838999956148,dhn,f,20,2024_Apr_14_1016,mian,2021.2.3,60.633216938352135,
,,,,,,1,1,pic/flanker6.png,pic/flanker4.png,s,k,pic/AffRest1.png,,,,,,,,,,,,,,,,,,,,,,,,,0,0,0,0,0,48,48,54,,,,668.6538867000054,None,667.4693593999982,668.6703385000001,s,1,0.5824983999918913,热切,k,1,0.5954574000061257,dhn,f,20,2024_Apr_14_1016,mian,2021.2.3,60.633216938352135,
,,,,,,1,0,pic/flanker5.png,pic/flanker3.png,a,l,pic/AffRest1.png,,,,,,,,,,,,,,,,,,,,,,,,,0,0,0,0,0,49,49,63,,,,671.7718031999975,None,670.5881609000062,671.7883127000096,a,1,0.5876294999907259,丢失,l,1,0.5910326000011992,dhn,f,20,2024_Apr_14_1016,mian,2021.2.3,60.633216938352135,
,,,,,,1,0,pic/flanker5.png,pic/flanker3.png,a,l,pic/AffRest1.png,,,,,,,,,,,,,,,,,,,,,,,,,0,0,0,0,0,50,50,31,,,,674.7732778000063,None,673.5895290000044,674.7898855000094,a,1,1.06340439998894,心慌,l,1,0.7322888999915449,dhn,f,20,2024_Apr_14_1016,mian,2021.2.3,60.633216938352135,
,,,,,,1,0,pic/flanker6.png,pic/flanker4.png,s,l,pic/AffRest1.png,,,,,,,,,,,,,,,,,,,,,,,,,0,0,0,0,0,51,51,77,,,,678.4098745000083,None,677.2249028000078,678.426684200007,s,1,0.643693499994697,失意,l,1,0.497491700007231,dhn,f,20,2024_Apr_14_1016,mian,2021.2.3,60.633216938352135,
,,,,,,0,1,pic/flanker6.png,pic/flanker2.png,a,k,pic/AffRest1.png,,,,,,,,,,,,,,,,,,,,,,,,,0,0,0,0,0,52,52,18,,,,681.4440686000016,None,680.2617506000097,681.4772448000003,a,1,0.4959674999990966,丰满,k,1,0.49270639999303967,dhn,f,20,2024_Apr_14_1016,mian,2021.2.3,60.633216938352135,
,,,,,,0,1,pic/flanker6.png,pic/flanker2.png,a,k,pic/AffRest1.png,,,,,,,,,,,,,,,,,,,,,,,,,0,0,0,0,0,53,53,2,,,,684.3123516000051,None,683.1277267999976,684.3294664999994,a,1,0.5384381999901962,富足,k,1,0.6814188999996986,dhn,f,20,2024_Apr_14_1016,mian,2021.2.3,60.633216938352135,
,,,,,,1,0,pic/flanker5.png,pic/flanker3.png,a,l,pic/AffRest1.png,,,,,,,,,,,,,,,,,,,,,,,,,0,0,0,0,0,54,54,15,,,,687.4802652000071,None,686.2956986000063,687.4974734999996,a,1,0.5711869000078877,怀疑,l,1,0.4855872000043746,dhn,f,20,2024_Apr_14_1016,mian,2021.2.3,60.633216938352135,
,,,,,,0,1,pic/flanker6.png,pic/flanker2.png,a,k,pic/AffRest1.png,,,,,,,,,,,,,,,,,,,,,,,,,0,0,0,0,0,55,55,42,,,,690.4648129999987,None,689.2806052000087,690.4821273999987,a,1,0.3668589000008069,振作,k,1,0.6415441999997711,dhn,f,20,2024_Apr_14_1016,mian,2021.2.3,60.633216938352135,
,,,,,,0,0,pic/flanker6.png,pic/flanker2.png,a,l,pic/AffRest1.png,,,,,,,,,,,,,,,,,,,,,,,,,0,0,0,0,0,56,56,73,,,,693.3661781999981,None,692.1830297999986,693.3827595000039,a,1,0.39806449999741744,鲁莽,l,1,0.7530617000011262,dhn,f,20,2024_Apr_14_1016,mian,2021.2.3,60.633216938352135,
,,,,,,0,1,pic/flanker5.png,pic/flanker1.png,s,k,pic/AffRest1.png,,,,,,,,,,,,,,,,,,,,,,,,,0,0,0,0,0,57,57,48,,,,696.5013497000036,None,695.3169227000035,696.5187972999993,s,1,0.5825586999999359,舒畅,k,1,0.5316450000100303,dhn,f,20,2024_Apr_14_1016,mian,2021.2.3,60.633216938352135,
,,,,,,1,0,pic/flanker6.png,pic/flanker4.png,s,l,pic/AffRest1.png,,,,,,,,,,,,,,,,,,,,,,,,,0,0,0,0,0,58,58,29,,,,699.4863437000022,None,698.3017839000095,699.5026866999979,s,1,0.7333251000090968,胡涂,l,1,0.5799047999898903,dhn,f,20,2024_Apr_14_1016,mian,2021.2.3,60.633216938352135,
,,,,,,0,0,pic/flanker5.png,pic/flanker1.png,s,l,pic/AffRest1.png,,,,,,,,,,,,,,,,,,,,,,,,,0,0,0,0,0,59,59,11,,,,702.83755750001,None,701.6570350999973,702.8713531000103,s,1,0.4657042999897385,闷热,l,1,0.6650766000093427,dhn,f,20,2024_Apr_14_1016,mian,2021.2.3,60.633216938352135,
,,,,,,1,0,pic/flanker5.png,pic/flanker3.png,a,l,pic/AffRest1.png,,,,,,,,,,,,,,,,,,,,,,,,,0,0,0,0,0,60,60,39,,,,705.8064193000027,None,704.6226306000026,705.8229180000053,a,1,0.5679877000075066,禁止,k,0,0.45642550000047777,dhn,f,20,2024_Apr_14_1016,mian,2021.2.3,60.633216938352135,
,,,,,,0,1,pic/flanker5.png,pic/flanker1.png,s,k,pic/AffRest1.png,,,,,,,,,,,,,,,,,,,,,,,,,0,0,0,0,0,61,61,72,,,,708.87420630001,None,707.6900101000065,708.890530100005,s,1,0.32237670000176877,顽强,k,1,0.6834731999988435,dhn,f,20,2024_Apr_14_1016,mian,2021.2.3,60.633216938352135,
,,,,,,1,0,pic/flanker6.png,pic/flanker4.png,s,l,pic/AffRest1.png,,,,,,,,,,,,,,,,,,,,,,,,,0,0,0,0,0,62,62,21,,,,711.8598471000005,None,710.6749453000084,711.8764705000067,s,1,0.6702119999972638,撒谎,l,1,0.6721162000030745,dhn,f,20,2024_Apr_14_1016,mian,2021.2.3,60.633216938352135,
,,,,,,1,0,pic/flanker6.png,pic/flanker4.png,s,l,pic/AffRest1.png,,,,,,,,,,,,,,,,,,,,,,,,,0,0,0,0,0,63,63,5,,,,715.2104248000105,None,714.0265656999982,715.2272036000068,s,1,0.588241499994183,慌忙,l,1,0.6454757999890717,dhn,f,20,2024_Apr_14_1016,mian,2021.2.3,60.633216938352135,
,,,,,,0,1,pic/flanker6.png,pic/flanker2.png,a,k,pic/AffRest1.png,,,,,,,,,,,,,,,,,,,,,,,,,0,0,0,0,0,64,64,34,,,,718.3299150000094,None,717.144738700008,718.3466173000052,a,1,0.4460438999958569,清秀,k,1,0.5288699999946402,dhn,f,20,2024_Apr_14_1016,mian,2021.2.3,60.633216938352135,
,,,,,,1,1,pic/flanker5.png,pic/flanker3.png,a,k,pic/AffRest1.png,,,,,,,,,,,,,,,,,,,,,,,,,0,0,0,0,0,65,65,44,,,,721.1476163000043,None,719.9638749000005,721.1639301000105,a,1,0.6886553999938769,畅销,k,1,0.5006936999998288,dhn,f,20,2024_Apr_14_1016,mian,2021.2.3,60.633216938352135,
,,,,,,1,1,pic/flanker5.png,pic/flanker3.png,a,k,pic/AffRest1.png,,,,,,,,,,,,,,,,,,,,,,,,,0,0,0,0,0,66,66,68,,,,724.3661853000085,None,723.1816068000044,724.3826537999994,a,1,0.3822165000019595,赞成,k,1,0.4630624999990687,dhn,f,20,2024_Apr_14_1016,mian,2021.2.3,60.633216938352135,
,,,,,,0,1,pic/flanker5.png,pic/flanker1.png,s,k,pic/AffRest1.png,,,,,,,,,,,,,,,,,,,,,,,,,0,0,0,0,0,67,67,8,,,,727.2511983000004,None,726.0660281000019,727.268914100001,s,1,0.8732833999965806,敬佩,k,1,0.7538239999994403,dhn,f,20,2024_Apr_14_1016,mian,2021.2.3,60.633216938352135,
,,,,,,1,1,pic/flanker5.png,pic/flanker3.png,a,k,pic/AffRest1.png,,,,,,,,,,,,,,,,,,,,,,,,,0,0,0,0,0,68,68,28,,,,730.7189672000095,None,729.5347588000004,730.7359600000054,a,1,0.49100549999275245,如愿,k,1,0.5213472999894293,dhn,f,20,2024_Apr_14_1016,mian,2021.2.3,60.633216938352135,
,,,,,,1,1,pic/flanker6.png,pic/flanker4.png,s,k,pic/AffRest1.png,,,,,,,,,,,,,,,,,,,,,,,,,0,0,0,0,0,69,69,6,,,,733.6538489000086,None,732.4693441999989,733.6706808000017,s,1,0.6262223000085214,典雅,k,1,0.5643611999985296,dhn,f,20,2024_Apr_14_1016,mian,2021.2.3,60.633216938352135,
,,,,,,0,0,pic/flanker6.png,pic/flanker2.png,a,l,pic/AffRest1.png,,,,,,,,,,,,,,,,,,,,,,,,,0,0,0,0,0,70,70,25,,,,736.738726399999,None,735.5548198000033,736.7554483999993,a,1,0.4323667000135174,缺乏,l,1,0.5378674999956274,dhn,f,20,2024_Apr_14_1016,mian,2021.2.3,60.633216938352135,
,,,,,,0,0,pic/flanker5.png,pic/flanker1.png,s,l,pic/AffRest1.png,,,,,,,,,,,,,,,,,,,,,,,,,0,0,0,0,0,71,71,59,,,,739.7401595999982,None,738.5566471000056,739.7589693000045,s,1,0.44796960000530817,沮丧,l,1,0.571143299996038,dhn,f,20,2024_Apr_14_1016,mian,2021.2.3,60.633216938352135,
,,,,,,0,0,pic/flanker5.png,pic/flanker1.png,s,l,pic/AffRest1.png,,,,,,,,,,,,,,,,,,,,,,,,,0,0,0,0,0,72,72,27,,,,742.5920830999967,None,741.4081073999987,742.6084970000084,s,1,0.42360670000198297,罚款,l,1,0.5078710999950999,dhn,f,20,2024_Apr_14_1016,mian,2021.2.3,60.633216938352135,
,,,,,,1,1,pic/flanker6.png,pic/flanker4.png,s,k,pic/AffRest1.png,,,,,,,,,,,,,,,,,,,,,,,,,0,0,0,0,0,73,73,46,,,,745.3597164000093,None,744.1758759000077,745.3765319000086,s,1,0.5536605000088457,有利,k,1,0.4933266000007279,dhn,f,20,2024_Apr_14_1016,mian,2021.2.3,60.633216938352135,
,,,,,,1,0,pic/flanker5.png,pic/flanker3.png,a,l,pic/AffRest1.png,,,,,,,,,,,,,,,,,,,,,,,,,0,0,0,0,0,74,74,7,,,,748.4114676000027,None,747.2278506000002,748.428112499998,a,1,0.5669536999921547,孤单,l,1,0.5741156000003684,dhn,f,20,2024_Apr_14_1016,mian,2021.2.3,60.633216938352135,
,,,,,,0,1,pic/flanker6.png,pic/flanker2.png,a,k,pic/AffRest1.png,,,,,,,,,,,,,,,,,,,,,,,,,0,0,0,0,0,75,75,74,,,,751.4798091999983,None,750.2956888000044,751.4969265999971,a,1,0.5200950999860652,羡慕,k,1,0.5356795999978203,dhn,f,20,2024_Apr_14_1016,mian,2021.2.3,60.633216938352135,
,,,,,,1,1,pic/flanker6.png,pic/flanker4.png,s,k,pic/AffRest1.png,,,,,,,,,,,,,,,,,,,,,,,,,0,0,0,0,0,76,76,22,,,,754.5144198000053,None,753.3300145999965,754.5318229999975,s,1,0.5897078000125475,奉献,k,1,0.5266700999927707,dhn,f,20,2024_Apr_14_1016,mian,2021.2.3,60.633216938352135,
,,,,,,1,0,pic/flanker6.png,pic/flanker4.png,s,l,pic/AffRest1.png,,,,,,,,,,,,,,,,,,,,,,,,,0,0,0,0,0,77,77,45,,,,757.6163140999997,None,756.4316958999989,757.6332274000015,s,1,0.6281199999939417,忧虑,l,1,0.5481320000108099,dhn,f,20,2024_Apr_14_1016,mian,2021.2.3,60.633216938352135,
,,,,,,1,1,pic/flanker6.png,pic/flanker4.png,s,k,pic/AffRest1.png,,,,,,,,,,,,,,,,,,,,,,,,,0,0,0,0,0,78,78,70,,,,760.7681425000046,None,759.588968600001,760.8014562000026,s,1,0.6275005999923451,优雅,k,1,0.5267606999987038,dhn,f,20,2024_Apr_14_1016,mian,2021.2.3,60.633216938352135,
,,,,,,1,1,pic/flanker5.png,pic/flanker3.png,a,k,pic/AffRest1.png,,,,,,,,,,,,,,,,,,,,,,,,,0,0,0,0,0,79,79,12,,,,763.835465199998,None,762.6524682000017,763.8524991000013,a,1,0.578088000009302,诚恳,k,1,0.5735045999899739,dhn,f,20,2024_Apr_14_1016,mian,2021.2.3,60.633216938352135,
,,,,,,,,,,,,pic/AffRest1.png,,,,,,,,,,,,,,,,,,,,,,,,,0,0,0,0,,,,,,,,,,,,,,,,,,,dhn,f,20,2024_Apr_14_1016,mian,2021.2.3,60.633216938352135,
,,,,,,1,1,pic/flanker6.png,pic/flanker4.png,s,k,pic/AffRest2.png,,,,,,,,,,,,,,,,,,,,,,,,,0,1,1,1,0,0,0,38,,,,782.6619645000028,None,781.4656587000063,782.6785032000043,s,1,0.5682380000071134,振作,k,1,0.5516131000040332,dhn,f,20,2024_Apr_14_1016,mian,2021.2.3,60.633216938352135,
,,,,,,1,0,pic/flanker6.png,pic/flanker4.png,s,l,pic/AffRest2.png,,,,,,,,,,,,,,,,,,,,,,,,,0,1,1,1,0,1,1,37,,,,785.7637490000052,None,784.5806087000092,785.7805838000058,s,1,1.2263643000042066,忧虑,l,1,0.8860802999988664,dhn,f,20,2024_Apr_14_1016,mian,2021.2.3,60.633216938352135,
,,,,,,1,1,pic/flanker5.png,pic/flanker3.png,a,k,pic/AffRest2.png,,,,,,,,,,,,,,,,,,,,,,,,,0,1,1,1,0,2,2,44,,,,789.6985980000027,None,788.5150239000068,789.7158607000019,a,1,0.5692741999955615,富丽,k,1,0.49436969999806024,dhn,f,20,2024_Apr_14_1016,mian,2021.2.3,60.633216938352135,
,,,,,,1,1,pic/flanker6.png,pic/flanker4.png,s,k,pic/AffRest2.png,,,,,,,,,,,,,,,,,,,,,,,,,0,1,1,1,0,3,3,70,,,,792.6506569000048,None,791.4678374000068,792.667475299997,s,1,0.4305098999902839,雄厚,k,1,0.5396688000037102,dhn,f,20,2024_Apr_14_1016,mian,2021.2.3,60.633216938352135,
,,,,,,0,1,pic/flanker6.png,pic/flanker2.png,a,k,pic/AffRest2.png,,,,,,,,,,,,,,,,,,,,,,,,,0,1,1,1,0,4,4,50,,,,795.552413700003,None,794.3698617000045,795.5684136000054,a,1,0.3705492000008235,羡慕,k,1,0.46822989999782294,dhn,f,20,2024_Apr_14_1016,mian,2021.2.3,60.633216938352135,
,,,,,,1,0,pic/flanker6.png,pic/flanker4.png,s,l,pic/AffRest2.png,,,,,,,,,,,,,,,,,,,,,,,,,0,1,1,1,0,5,5,21,,,,798.2706616000069,None,797.0885773000045,798.3039531999966,s,1,0.49839749999227934,懒惰,l,1,0.4671468000015011,dhn,f,20,2024_Apr_14_1016,mian,2021.2.3,60.633216938352135,
,,,,,,1,0,pic/flanker5.png,pic/flanker3.png,a,l,pic/AffRest2.png,,,,,,,,,,,,,,,,,,,,,,,,,0,1,1,1,0,6,6,23,,,,801.0718575000064,None,799.8878701000067,801.0885784999991,a,1,0.5620038000051863,撒谎,l,1,0.7229435000044759,dhn,f,20,2024_Apr_14_1016,mian,2021.2.3,60.633216938352135,
,,,,,,0,1,pic/flanker5.png,pic/flanker1.png,s,k,pic/AffRest2.png,,,,,,,,,,,,,,,,,,,,,,,,,0,1,1,1,0,7,7,48,,,,804.2397420000052,None,803.0552215000062,804.256129100002,s,1,0.5299919999961276,丰满,k,1,0.5095440000004601,dhn,f,20,2024_Apr_14_1016,mian,2021.2.3,60.633216938352135,
,,,,,,0,0,pic/flanker6.png,pic/flanker2.png,a,l,pic/AffRest2.png,,,,,,,,,,,,,,,,,,,,,,,,,0,1,1,1,0,8,8,33,,,,807.174384900005,None,805.9901784000103,807.190677000006,a,1,0.47078119999787305,郁闷,l,1,0.52148959999613,dhn,f,20,2024_Apr_14_1016,mian,2021.2.3,60.633216938352135,
,,,,,,0,1,pic/flanker5.png,pic/flanker1.png,s,k,pic/AffRest2.png,,,,,,,,,,,,,,,,,,,,,,,,,0,1,1,1,0,9,9,56,,,,810.1425521000056,None,808.9585040000093,810.1592055000074,s,1,0.3440725999971619,诚恳,k,1,0.48233470000559464,dhn,f,20,2024_Apr_14_1016,mian,2021.2.3,60.633216938352135,
,,,,,,1,0,pic/flanker6.png,pic/flanker4.png,s,l,pic/AffRest2.png,,,,,,,,,,,,,,,,,,,,,,,,,0,1,1,1,0,10,10,69,,,,812.8438034999999,None,811.6598599999998,812.8606470000086,s,1,0.5464558999956353,鲁莽,l,1,0.49362459999974817,dhn,f,20,2024_Apr_14_1016,mian,2021.2.3,60.633216938352135,
,,,,,,0,0,pic/flanker5.png,pic/flanker1.png,s,l,pic/AffRest2.png,,,,,,,,,,,,,,,,,,,,,,,,,0,1,1,1,0,11,11,67,,,,815.6956162999995,None,814.5112441000092,815.7120060000016,s,1,0.4727357999945525,落后,l,1,0.5239104999927804,dhn,f,20,2024_Apr_14_1016,mian,2021.2.3,60.633216938352135,
,,,,,,0,1,pic/flanker5.png,pic/flanker1.png,s,k,pic/AffRest2.png,,,,,,,,,,,,,,,,,,,,,,,,,0,1,1,1,0,12,12,8,,,,818.7136636000068,None,817.5293654999987,818.7304004000034,s,1,0.5377487999940058,享受,k,1,0.5868830999970669,dhn,f,20,2024_Apr_14_1016,mian,2021.2.3,60.633216938352135,
,,,,,,1,0,pic/flanker5.png,pic/flanker3.png,a,l,pic/AffRest2.png,,,,,,,,,,,,,,,,,,,,,,,,,0,1,1,1,0,13,13,39,,,,821.8148994000076,None,820.6312457000022,821.8318951999972,a,1,0.49100840000028256,处罚,l,1,0.5094029999891063,dhn,f,20,2024_Apr_14_1016,mian,2021.2.3,60.633216938352135,
,,,,,,0,1,pic/flanker6.png,pic/flanker2.png,a,k,pic/AffRest2.png,,,,,,,,,,,,,,,,,,,,,,,,,0,1,1,1,0,14,14,66,,,,824.8499310000043,None,823.6670143000083,824.8664624000085,a,1,0.41522100000292994,圣洁,k,1,0.5118524999998044,dhn,f,20,2024_Apr_14_1016,mian,2021.2.3,60.633216938352135,
,,,,,,1,0,pic/flanker6.png,pic/flanker4.png,s,l,pic/AffRest2.png,,,,,,,,,,,,,,,,,,,,,,,,,0,1,1,1,0,15,15,45,,,,827.7679655000102,None,826.5838298000017,827.78457660001,s,1,0.6166090000042459,别扭,l,1,0.46120790000713896,dhn,f,20,2024_Apr_14_1016,mian,2021.2.3,60.633216938352135,
,,,,,,1,1,pic/flanker6.png,pic/flanker4.png,s,k,pic/AffRest2.png,,,,,,,,,,,,,,,,,,,,,,,,,0,1,1,1,0,16,16,78,,,,830.8695768000034,None,829.6855115000071,830.8875849000033,s,1,0.5370249999978114,畅销,k,1,0.4626183999935165,dhn,f,20,2024_Apr_14_1016,mian,2021.2.3,60.633216938352135,
,,,,,,1,1,pic/flanker5.png,pic/flanker3.png,a,k,pic/AffRest2.png,,,,,,,,,,,,,,,,,,,,,,,,,0,1,1,1,0,17,17,12,,,,833.8379850000056,None,832.6538731000037,833.8547492000071,a,1,0.716729400010081,典雅,k,1,0.5253223000036087,dhn,f,20,2024_Apr_14_1016,mian,2021.2.3,60.633216938352135,
,,,,,,1,1,pic/flanker5.png,pic/flanker3.png,a,k,pic/AffRest2.png,,,,,,,,,,,,,,,,,,,,,,,,,0,1,1,1,0,18,18,28,,,,836.9221646000078,None,835.7381450000103,836.9389419000072,a,1,0.7302395000006072,如愿,k,1,0.4892111999943154,dhn,f,20,2024_Apr_14_1016,mian,2021.2.3,60.633216938352135,
,,,,,,1,0,pic/flanker6.png,pic/flanker4.png,s,l,pic/AffRest2.png,,,,,,,,,,,,,,,,,,,,,,,,,0,1,1,1,0,19,19,29,,,,839.957699400009,None,838.7736309000029,839.9741750999965,s,1,0.5593970999907469,消沉,l,1,0.4719632000051206,dhn,f,20,2024_Apr_14_1016,mian,2021.2.3,60.633216938352135,
,,,,,,1,0,pic/flanker6.png,pic/flanker4.png,s,l,pic/AffRest2.png,,,,,,,,,,,,,,,,,,,,,,,,,0,1,1,1,0,20,20,53,,,,843.0090440000058,None,841.8247856000089,843.0261313000083,s,1,0.761117900008685,争吵,l,1,0.6117326000094181,dhn,f,20,2024_Apr_14_1016,mian,2021.2.3,60.633216938352135,
,,,,,,1,0,pic/flanker5.png,pic/flanker3.png,a,l,pic/AffRest2.png,,,,,,,,,,,,,,,,,,,,,,,,,0,1,1,1,0,21,21,55,,,,846.3436233000102,None,845.1599973999982,846.3607532000024,a,1,0.5401372999913292,罚款,l,1,0.5799542000022484,dhn,f,20,2024_Apr_14_1016,mian,2021.2.3,60.633216938352135,
,,,,,,1,0,pic/flanker5.png,pic/flanker3.png,a,l,pic/AffRest2.png,,,,,,,,,,,,,,,,,,,,,,,,,0,1,1,1,0,22,22,31,,,,849.3123829999968,None,848.1278198000073,849.329201600005,a,1,0.6508444000064628,闷热,l,1,0.5336355000035837,dhn,f,20,2024_Apr_14_1016,mian,2021.2.3,60.633216938352135,
,,,,,,0,1,pic/flanker5.png,pic/flanker1.png,s,k,pic/AffRest2.png,,,,,,,,,,,,,,,,,,,,,,,,,0,1,1,1,0,23,23,0,,,,852.4475044999999,None,851.2627169000043,852.4654911000107,s,1,0.45472229999722913,鲜艳,k,1,0.4607321000075899,dhn,f,20,2024_Apr_14_1016,mian,2021.2.3,60.633216938352135,
,,,,,,0,1,pic/flanker6.png,pic/flanker2.png,a,k,pic/AffRest2.png,,,,,,,,,,,,,,,,,,,,,,,,,0,1,1,1,0,24,24,2,,,,855.3989946000074,None,854.2142899000028,855.415599800006,a,1,0.47155580000253394,热切,k,1,0.6253831000067294,dhn,f,20,2024_Apr_14_1016,mian,2021.2.3,60.633216938352135,
,,,,,,0,0,pic/flanker5.png,pic/flanker1.png,s,l,pic/AffRest2.png,,,,,,,,,,,,,,,,,,,,,,,,,0,1,1,1,0,25,25,59,,,,858.5339306000096,None,857.349541500007,858.5506892999983,s,1,0.3265199000015855,杂乱,l,1,0.48443279998900834,dhn,f,20,2024_Apr_14_1016,mian,2021.2.3,60.633216938352135,
,,,,,,0,0,pic/flanker5.png,pic/flanker1.png,s,l,pic/AffRest2.png,,,,,,,,,,,,,,,,,,,,,,,,,0,1,1,1,0,26,26,19,,,,861.2182240999973,None,860.0339148000057,861.2352607000066,s,1,0.9753346000070451,伤心,l,1,0.5452197999984492,dhn,f,20,2024_Apr_14_1016,mian,2021.2.3,60.633216938352135,
,,,,,,0,0,pic/flanker5.png,pic/flanker1.png,s,l,pic/AffRest2.png,,,,,,,,,,,,,,,,,,,,,,,,,0,1,1,1,0,27,27,35,,,,864.7702754000056,None,863.5866822000098,864.7876655,s,1,0.3744788000039989,焦躁,l,1,0.510710000002291,dhn,f,20,2024_Apr_14_1016,mian,2021.2.3,60.633216938352135,
,,,,,,0,0,pic/flanker6.png,pic/flanker2.png,a,l,pic/AffRest2.png,,,,,,,,,,,,,,,,,,,,,,,,,0,1,1,1,0,28,28,17,,,,867.5718581999972,None,866.3877788999962,867.5889154000033,a,1,0.6870577999943634,孤单,l,1,0.5340918000001693,dhn,f,20,2024_Apr_14_1016,mian,2021.2.3,60.633216938352135,
,,,,,,0,0,pic/flanker6.png,pic/flanker2.png,a,l,pic/AffRest2.png,,,,,,,,,,,,,,,,,,,,,,,,,0,1,1,1,0,29,29,73,,,,870.7903724000062,None,869.6057930000097,870.8066974000103,a,1,0.573264399994514,自卑,l,1,0.5449233999970602,dhn,f,20,2024_Apr_14_1016,mian,2021.2.3,60.633216938352135,
,,,,,,0,1,pic/flanker6.png,pic/flanker2.png,a,k,pic/AffRest2.png,,,,,,,,,,,,,,,,,,,,,,,,,0,1,1,1,0,30,30,58,,,,873.7750558999978,None,872.5907112999994,873.7914595000038,a,1,0.4461825000034878,豪放,k,1,0.4884595000039553,dhn,f,20,2024_Apr_14_1016,mian,2021.2.3,60.633216938352135,
,,,,,,0,0,pic/flanker5.png,pic/flanker1.png,s,l,pic/AffRest2.png,,,,,,,,,,,,,,,,,,,,,,,,,0,1,1,1,0,31,31,75,,,,876.6927692000027,None,875.509214500009,876.709871900006,s,1,0.44764710000890773,厌恶,l,1,0.5473065999976825,dhn,f,20,2024_Apr_14_1016,mian,2021.2.3,60.633216938352135,
,,,,,,1,1,pic/flanker5.png,pic/flanker3.png,a,k,pic/AffRest2.png,,,,,,,,,,,,,,,,,,,,,,,,,0,1,1,1,0,32,32,4,,,,879.5444054999971,None,878.3601786000072,879.5612064000015,a,1,0.7579165000061039,吉祥,k,1,0.5743157999968389,dhn,f,20,2024_Apr_14_1016,mian,2021.2.3,60.633216938352135,
,,,,,,0,1,pic/flanker6.png,pic/flanker2.png,a,k,pic/AffRest2.png,,,,,,,,,,,,,,,,,,,,,,,,,0,1,1,1,0,33,33,42,,,,882.7627919000079,None,881.5787137000007,882.779294699998,a,1,0.4251162000000477,俊秀,k,1,0.5123542999936035,dhn,f,20,2024_Apr_14_1016,mian,2021.2.3,60.633216938352135,
,,,,,,0,1,pic/flanker5.png,pic/flanker1.png,s,k,pic/AffRest2.png,,,,,,,,,,,,,,,,,,,,,,,,,0,1,1,1,0,34,34,16,,,,885.6643875000009,None,884.4800876000081,885.680984000006,s,1,0.38086720000137575,清秀,k,1,0.5149362000083784,dhn,f,20,2024_Apr_14_1016,mian,2021.2.3,60.633216938352135,
,,,,,,1,1,pic/flanker5.png,pic/flanker3.png,a,k,pic/AffRest2.png,,,,,,,,,,,,,,,,,,,,,,,,,0,1,1,1,0,35,35,76,,,,888.4000384000101,None,887.2147975999978,888.4163561000023,a,1,0.7212242999958107,前进,k,1,0.4537043000018457,dhn,f,20,2024_Apr_14_1016,mian,2021.2.3,60.633216938352135,
,,,,,,1,1,pic/flanker5.png,pic/flanker3.png,a,k,pic/AffRest2.png,,,,,,,,,,,,,,,,,,,,,,,,,0,1,1,1,0,36,36,60,,,,891.4671310999984,None,890.285103400005,891.5003237000055,a,1,0.6610197999980301,卓越,k,1,0.5741766999999527,dhn,f,20,2024_Apr_14_1016,mian,2021.2.3,60.633216938352135,
,,,,,,0,1,pic/flanker5.png,pic/flanker1.png,s,k,pic/AffRest2.png,,,,,,,,,,,,,,,,,,,,,,,,,0,1,1,1,0,37,37,40,,,,894.6862575999985,None,893.502092499999,894.7032773999963,s,1,0.6916710000077728,赞成,k,1,0.617469600008917,dhn,f,20,2024_Apr_14_1016,mian,2021.2.3,60.633216938352135,
,,,,,,1,0,pic/flanker6.png,pic/flanker4.png,s,l,pic/AffRest2.png,,,,,,,,,,,,,,,,,,,,,,,,,0,1,1,1,0,38,38,61,,,,897.8372106000024,None,896.6528938999982,897.8539001000026,s,1,0.6174925999948755,胡涂,l,1,0.5331148999975994,dhn,f,20,2024_Apr_14_1016,mian,2021.2.3,60.633216938352135,
,,,,,,0,0,pic/flanker5.png,pic/flanker1.png,s,l,pic/AffRest2.png,,,,,,,,,,,,,,,,,,,,,,,,,0,1,1,1,0,39,39,27,,,,900.8727744000062,None,899.6875921000028,900.888956499999,s,1,0.41685140000481624,心慌,k,0,0.5595881000044756,dhn,f,20,2024_Apr_14_1016,mian,2021.2.3,60.633216938352135,
,,,,,,1,0,pic/flanker5.png,pic/flanker3.png,a,l,pic/AffRest2.png,,,,,,,,,,,,,,,,,,,,,,,,,0,1,1,1,0,40,40,7,,,,903.6904846999969,None,902.5057824999967,903.7068810000055,a,1,0.5799931000074139,假冒,l,1,0.5833146999939345,dhn,f,20,2024_Apr_14_1016,mian,2021.2.3,60.633216938352135,
,,,,,,0,0,pic/flanker5.png,pic/flanker1.png,s,l,pic/AffRest2.png,,,,,,,,,,,,,,,,,,,,,,,,,0,1,1,1,0,41,41,51,,,,906.7914769000054,None,905.607697600004,906.8085808000033,s,1,0.3952422000002116,失意,l,1,0.9638497999985702,dhn,f,20,2024_Apr_14_1016,mian,2021.2.3,60.633216938352135,
,,,,,,1,1,pic/flanker6.png,pic/flanker4.png,s,k,pic/AffRest2.png,,,,,,,,,,,,,,,,,,,,,,,,,0,1,1,1,0,42,42,14,,,,910.0602505999996,None,908.8757516000042,910.0775024000031,s,1,0.5992733000020962,旺盛,k,1,0.6155650000000605,dhn,f,20,2024_Apr_14_1016,mian,2021.2.3,60.633216938352135,
,,,,,,0,1,pic/flanker6.png,pic/flanker2.png,a,k,pic/AffRest2.png,,,,,,,,,,,,,,,,,,,,,,,,,0,1,1,1,0,43,43,26,,,,913.3283358000044,None,912.143899200004,913.3451389999973,a,1,0.4870794000016758,公平,k,1,0.5306387000018731,dhn,f,20,2024_Apr_14_1016,mian,2021.2.3,60.633216938352135,
,,,,,,0,0,pic/flanker5.png,pic/flanker1.png,s,l,pic/AffRest2.png,,,,,,,,,,,,,,,,,,,,,,,,,0,1,1,1,0,44,44,3,,,,916.2299888999987,None,915.0456054000097,916.2465706000075,s,1,0.7102704999997513,黑暗,l,1,0.7142399000003934,dhn,f,20,2024_Apr_14_1016,mian,2021.2.3,60.633216938352135,
,,,,,,1,1,pic/flanker5.png,pic/flanker3.png,a,k,pic/AffRest2.png,,,,,,,,,,,,,,,,,,,,,,,,,0,1,1,1,0,45,45,52,,,,919.5646390000038,None,918.3808347000013,919.5812748000026,a,1,0.7960219000087818,正直,k,1,0.5747333999897819,dhn,f,20,2024_Apr_14_1016,mian,2021.2.3,60.633216938352135,
,,,,,,0,1,pic/flanker5.png,pic/flanker1.png,s,k,pic/AffRest2.png,,,,,,,,,,,,,,,,,,,,,,,,,0,1,1,1,0,46,46,24,,,,922.9831986000063,None,921.7998984000005,922.999933500003,s,1,0.3932589000032749,廉洁,k,1,0.515482399991015,dhn,f,20,2024_Apr_14_1016,mian,2021.2.3,60.633216938352135,
,,,,,,1,0,pic/flanker6.png,pic/flanker4.png,s,l,pic/AffRest2.png,,,,,,,,,,,,,,,,,,,,,,,,,0,1,1,1,0,47,47,77,,,,925.7034283999965,None,924.5178096000018,925.7181483000022,s,1,1.2893442000058712,穷苦,l,1,0.615623300007428,dhn,f,20,2024_Apr_14_1016,mian,2021.2.3,60.633216938352135,
,,,,,,0,0,pic/flanker6.png,pic/flanker2.png,a,l,pic/AffRest2.png,,,,,,,,,,,,,,,,,,,,,,,,,0,1,1,1,0,48,48,65,,,,929.6207066000061,None,928.4357127999974,929.6372125000053,a,1,0.3720253000064986,沮丧,l,1,0.8539759999985108,dhn,f,20,2024_Apr_14_1016,mian,2021.2.3,60.633216938352135,
,,,,,,1,1,pic/flanker6.png,pic/flanker4.png,s,k,pic/AffRest2.png,,,,,,,,,,,,,,,,,,,,,,,,,0,1,1,1,0,49,49,30,,,,932.7220788999985,None,931.5377004000038,932.7386512000085,s,1,0.5874564999976428,充裕,k,1,0.5309722999954829,dhn,f,20,2024_Apr_14_1016,mian,2021.2.3,60.633216938352135,
,,,,,,0,1,pic/flanker6.png,pic/flanker2.png,a,k,pic/AffRest2.png,,,,,,,,,,,,,,,,,,,,,,,,,0,1,1,1,0,50,50,34,,,,935.8230430999974,None,934.6392557000072,935.8397714000021,a,1,0.3997433999902569,富足,k,1,0.4856228000135161,dhn,f,20,2024_Apr_14_1016,mian,2021.2.3,60.633216938352135,
,,,,,,0,0,pic/flanker6.png,pic/flanker2.png,a,l,pic/AffRest2.png,,,,,,,,,,,,,,,,,,,,,,,,,0,1,1,1,0,51,51,9,,,,938.7579725999967,None,937.5747088000062,938.7749242999998,a,1,0.4723068999883253,损害,l,1,0.46765330000198446,dhn,f,20,2024_Apr_14_1016,mian,2021.2.3,60.633216938352135,
,,,,,,0,0,pic/flanker5.png,pic/flanker1.png,s,l,pic/AffRest2.png,,,,,,,,,,,,,,,,,,,,,,,,,0,1,1,1,0,52,52,43,,,,941.5926154000044,None,940.4084905000054,941.6093620000029,s,1,0.6541242999956012,禁止,l,1,0.5197943999955896,dhn,f,20,2024_Apr_14_1016,mian,2021.2.3,60.633216938352135,
,,,,,,1,0,pic/flanker5.png,pic/flanker3.png,a,l,pic/AffRest2.png,,,,,,,,,,,,,,,,,,,,,,,,,0,1,1,1,0,53,53,63,,,,944.8106039999984,None,943.6278132000007,944.827995700005,a,1,0.7159265000082087,缺乏,l,1,0.5370403999986593,dhn,f,20,2024_Apr_14_1016,mian,2021.2.3,60.633216938352135,
,,,,,,1,1,pic/flanker6.png,pic/flanker4.png,s,k,pic/AffRest2.png,,,,,,,,,,,,,,,,,,,,,,,,,0,1,1,1,0,54,54,62,,,,948.0963957000058,None,946.9119396000024,948.1125267000025,s,1,0.6574653999996372,有利,k,1,0.9827540999976918,dhn,f,20,2024_Apr_14_1016,mian,2021.2.3,60.633216938352135,
,,,,,,0,1,pic/flanker6.png,pic/flanker2.png,a,k,pic/AffRest2.png,,,,,,,,,,,,,,,,,,,,,,,,,0,1,1,1,0,55,55,74,,,,951.5813714999967,None,950.3969077000074,951.597938699997,a,1,0.41363700000511017,奉献,k,1,0.5587096000090241,dhn,f,20,2024_Apr_14_1016,mian,2021.2.3,60.633216938352135,
,,,,,,1,1,pic/flanker6.png,pic/flanker4.png,s,k,pic/AffRest2.png,,,,,,,,,,,,,,,,,,,,,,,,,0,1,1,1,0,56,56,54,,,,954.4493787999963,None,953.265656500007,954.466865800001,s,1,0.6196997999941232,秀丽,k,1,0.5460192000027746,dhn,f,20,2024_Apr_14_1016,mian,2021.2.3,60.633216938352135,
,,,,,,0,1,pic/flanker5.png,pic/flanker1.png,s,k,pic/AffRest2.png,,,,,,,,,,,,,,,,,,,,,,,,,0,1,1,1,0,57,57,72,,,,957.5511904000014,None,956.3672438000067,957.5690802000026,s,1,0.5449575000093319,精致,k,1,0.9100318999990122,dhn,f,20,2024_Apr_14_1016,mian,2021.2.3,60.633216938352135,
,,,,,,0,0,pic/flanker6.png,pic/flanker2.png,a,l,pic/AffRest2.png,,,,,,,,,,,,,,,,,,,,,,,,,0,1,1,1,0,58,58,1,,,,960.9201333000092,None,959.7352099999989,960.9375058000005,a,1,0.33627899999555666,排斥,l,1,0.5588586999947438,dhn,f,20,2024_Apr_14_1016,mian,2021.2.3,60.633216938352135,
,,,,,,0,0,pic/flanker6.png,pic/flanker2.png,a,l,pic/AffRest2.png,,,,,,,,,,,,,,,,,,,,,,,,,0,1,1,1,0,59,59,57,,,,963.8381704000058,None,962.6536265000032,963.8543856000033,a,1,0.4292053999961354,堵塞,l,1,0.6155724999989616,dhn,f,20,2024_Apr_14_1016,mian,2021.2.3,60.633216938352135,
,,,,,,0,0,pic/flanker6.png,pic/flanker2.png,a,l,pic/AffRest2.png,,,,,,,,,,,,,,,,,,,,,,,,,0,1,1,1,0,60,60,25,,,,966.7059513999993,None,965.5219250000082,966.7221520000021,a,1,0.43589999999676365,轻率,l,1,0.6234626000077697,dhn,f,20,2024_Apr_14_1016,mian,2021.2.3,60.633216938352135,
,,,,,,0,1,pic/flanker5.png,pic/flanker1.png,s,k,pic/AffRest2.png,,,,,,,,,,,,,,,,,,,,,,,,,0,1,1,1,0,61,61,64,,,,969.6401791000098,None,968.4564822000102,969.6571470000054,s,1,0.3846373999986099,瑰丽,k,1,0.5577437000029022,dhn,f,20,2024_Apr_14_1016,mian,2021.2.3,60.633216938352135,
,,,,,,1,0,pic/flanker5.png,pic/flanker3.png,a,l,pic/AffRest2.png,,,,,,,,,,,,,,,,,,,,,,,,,0,1,1,1,0,62,62,47,,,,972.6280915000098,None,971.440972299999,972.6422700999974,a,1,0.689580099991872,浪费,l,1,1.023832000006223,dhn,f,20,2024_Apr_14_1016,mian,2021.2.3,60.633216938352135,
,,,,,,1,0,pic/flanker6.png,pic/flanker4.png,s,l,pic/AffRest2.png,,,,,,,,,,,,,,,,,,,,,,,,,0,1,1,1,0,63,63,13,,,,976.3432058000035,None,975.1596544000058,976.3598282000021,s,1,0.6978151000075741,丢失,l,1,1.1970321999979205,dhn,f,20,2024_Apr_14_1016,mian,2021.2.3,60.633216938352135,
,,,,,,0,1,pic/flanker6.png,pic/flanker2.png,a,k,pic/AffRest2.png,,,,,,,,,,,,,,,,,,,,,,,,,0,1,1,1,0,64,64,10,,,,980.22933870001,None,979.0460084000078,980.2464716000104,a,1,0.38379569999233354,爽朗,k,1,0.6815506999992067,dhn,f,20,2024_Apr_14_1016,mian,2021.2.3,60.633216938352135,
,,,,,,1,0,pic/flanker5.png,pic/flanker3.png,a,l,pic/AffRest2.png,,,,,,,,,,,,,,,,,,,,,,,,,0,1,1,1,0,65,65,79,,,,983.1812407999969,None,981.9973808000068,983.1980951000005,a,1,0.6121112999971956,烦恼,l,1,0.5652168999949936,dhn,f,20,2024_Apr_14_1016,mian,2021.2.3,60.633216938352135,
,,,,,,1,0,pic/flanker5.png,pic/flanker3.png,a,l,pic/AffRest2.png,,,,,,,,,,,,,,,,,,,,,,,,,0,1,1,1,0,66,66,71,,,,986.3319144999987,None,985.148402699997,986.3486861999991,a,1,0.6292203999910271,怀疑,l,1,0.6719812999945134,dhn,f,20,2024_Apr_14_1016,mian,2021.2.3,60.633216938352135,
,,,,,,1,0,pic/flanker6.png,pic/flanker4.png,s,l,pic/AffRest2.png,,,,,,,,,,,,,,,,,,,,,,,,,0,1,1,1,0,67,67,5,,,,989.5503921000054,None,988.3663384000101,989.567186100001,s,1,0.5758842999930494,嘲笑,l,1,0.558224499996868,dhn,f,20,2024_Apr_14_1016,mian,2021.2.3,60.633216938352135,
,,,,,,1,1,pic/flanker6.png,pic/flanker4.png,s,k,pic/AffRest2.png,,,,,,,,,,,,,,,,,,,,,,,,,0,1,1,1,0,68,68,6,,,,992.669034999999,None,991.4850637000054,992.6851782000012,s,1,0.5730626000004122,顽强,k,1,0.7204297999996925,dhn,f,20,2024_Apr_14_1016,mian,2021.2.3,60.633216938352135,
,,,,,,1,0,pic/flanker5.png,pic/flanker3.png,a,l,pic/AffRest2.png,,,,,,,,,,,,,,,,,,,,,,,,,0,1,1,1,0,69,69,15,,,,995.8370055999985,None,994.653241699998,995.853812500005,a,1,0.5098700999951689,悲观,l,1,0.5739370000083,dhn,f,20,2024_Apr_14_1016,mian,2021.2.3,60.633216938352135,
,,,,,,0,0,pic/flanker6.png,pic/flanker2.png,a,l,pic/AffRest2.png,,,,,,,,,,,,,,,,,,,,,,,,,0,1,1,1,0,70,70,41,,,,998.7389805999992,None,997.5546943000081,998.7556895000016,a,1,0.5246672999928705,逃避,l,1,0.7428306000074372,dhn,f,20,2024_Apr_14_1016,mian,2021.2.3,60.633216938352135,
,,,,,,1,1,pic/flanker5.png,pic/flanker3.png,a,k,pic/AffRest2.png,,,,,,,,,,,,,,,,,,,,,,,,,0,1,1,1,0,71,71,68,,,,1001.8409949000052,None,1000.6562596000003,1001.857124400005,a,1,0.48955269998987205,永恒,k,1,0.6372708000126295,dhn,f,20,2024_Apr_14_1016,mian,2021.2.3,60.633216938352135,
,,,,,,1,1,pic/flanker5.png,pic/flanker3.png,a,k,pic/AffRest2.png,,,,,,,,,,,,,,,,,,,,,,,,,0,1,1,1,0,72,72,20,,,,1004.8925962000067,None,1003.7078244000004,1004.9090434999962,a,1,0.5245335000072373,珍藏,k,1,0.650342199995066,dhn,f,20,2024_Apr_14_1016,mian,2021.2.3,60.633216938352135,
,,,,,,0,1,pic/flanker6.png,pic/flanker2.png,a,k,pic/AffRest2.png,,,,,,,,,,,,,,,,,,,,,,,,,0,1,1,1,0,73,73,18,,,,1007.9438561999996,None,1006.7599661999993,1007.9602865000052,a,1,0.3359481999941636,留恋,k,1,0.7627345000073547,dhn,f,20,2024_Apr_14_1016,mian,2021.2.3,60.633216938352135,
,,,,,,0,1,pic/flanker5.png,pic/flanker1.png,s,k,pic/AffRest2.png,,,,,,,,,,,,,,,,,,,,,,,,,0,1,1,1,0,74,74,32,,,,1011.0119408000028,None,1009.8358234000043,1011.0458324000065,s,1,0.5099438000033842,生动,k,1,0.5068719999981113,dhn,f,20,2024_Apr_14_1016,mian,2021.2.3,60.633216938352135,
,,,,,,1,1,pic/flanker5.png,pic/flanker3.png,a,k,pic/AffRest2.png,,,,,,,,,,,,,,,,,,,,,,,,,0,1,1,1,0,75,75,36,,,,1013.9136211000005,None,1012.7295231000026,1013.9301432000066,a,1,0.6137904999923194,优雅,k,1,0.455571600003168,dhn,f,20,2024_Apr_14_1016,mian,2021.2.3,60.633216938352135,
,,,,,,0,0,pic/flanker6.png,pic/flanker2.png,a,l,pic/AffRest2.png,,,,,,,,,,,,,,,,,,,,,,,,,0,1,1,1,0,76,76,49,,,,1016.8151029,None,1015.6297838000028,1016.8305789000005,a,1,0.37950260000070557,冷笑,l,1,0.6828492000058759,dhn,f,20,2024_Apr_14_1016,mian,2021.2.3,60.633216938352135,
,,,,,,0,0,pic/flanker5.png,pic/flanker1.png,s,l,pic/AffRest2.png,,,,,,,,,,,,,,,,,,,,,,,,,0,1,1,1,0,77,77,11,,,,1019.7325585000071,None,1018.5482707000047,1019.7494205999974,s,1,0.5197706000035396,慌忙,l,1,0.8225302999926498,dhn,f,20,2024_Apr_14_1016,mian,2021.2.3,60.633216938352135,
,,,,,,1,1,pic/flanker6.png,pic/flanker4.png,s,k,pic/AffRest2.png,,,,,,,,,,,,,,,,,,,,,,,,,0,1,1,1,0,78,78,46,,,,1023.0672140000097,None,1021.8834194000083,1023.0844351999986,s,1,0.645875200003502,舒畅,k,1,0.6056295000016689,dhn,f,20,2024_Apr_14_1016,mian,2021.2.3,60.633216938352135,
,,,,,,1,1,pic/flanker6.png,pic/flanker4.png,s,k,pic/AffRest2.png,,,,,,,,,,,,,,,,,,,,,,,,,0,1,1,1,0,79,79,22,,,,1026.3019175000081,None,1025.1188418000092,1026.3185946000012,s,1,0.4607473000069149,敬佩,k,1,0.5312257999903522,dhn,f,20,2024_Apr_14_1016,mian,2021.2.3,60.633216938352135,
,,,,,,,,,,,,pic/AffRest2.png,,,,,,,,,,,,,,,,,,,,,,,,,0,1,1,1,,,,,,,,,,,,,,,,,,,dhn,f,20,2024_Apr_14_1016,mian,2021.2.3,60.633216938352135,
,,,,,,1,1,pic/flanker5.png,pic/flanker3.png,a,k,pic/AffRest3.png,,,,,,,,,,,,,,,,,,,,,,,,,0,2,2,2,0,0,0,36,,,,1050.4818412000022,None,1049.2955242000025,1050.4983451000007,a,1,0.5831725000025472,圣洁,k,1,0.5022267000022111,dhn,f,20,2024_Apr_14_1016,mian,2021.2.3,60.633216938352135,
,,,,,,0,0,pic/flanker6.png,pic/flanker2.png,a,l,pic/AffRest3.png,,,,,,,,,,,,,,,,,,,,,,,,,0,2,2,2,0,1,1,25,,,,1053.5669007999968,None,1052.3830738999968,1053.583341999998,a,1,0.3487580000073649,悲观,l,1,0.5652456999960123,dhn,f,20,2024_Apr_14_1016,mian,2021.2.3,60.633216938352135,
,,,,,,0,0,pic/flanker6.png,pic/flanker2.png,a,l,pic/AffRest3.png,,,,,,,,,,,,,,,,,,,,,,,,,0,2,2,2,0,2,2,41,,,,1056.3175910999998,None,1055.1340133000049,1056.3342951000086,a,1,0.40030530000512954,懒惰,l,1,0.6911436999944272,dhn,f,20,2024_Apr_14_1016,mian,2021.2.3,60.633216938352135,
,,,,,,1,0,pic/flanker5.png,pic/flanker3.png,a,l,pic/AffRest3.png,,,,,,,,,,,,,,,,,,,,,,,,,0,2,2,2,0,3,3,47,,,,1059.3033730000025,None,1058.11884380001,1059.320043300002,a,1,0.5741448000044329,落后,l,1,0.6056649000092875,dhn,f,20,2024_Apr_14_1016,mian,2021.2.3,60.633216938352135,
,,,,,,1,0,pic/flanker5.png,pic/flanker3.png,a,l,pic/AffRest3.png,,,,,,,,,,,,,,,,,,,,,,,,,0,2,2,2,0,4,4,55,,,,1062.3712858000072,None,1061.1881345000002,1062.3883249000064,a,1,0.712439800001448,黑暗,l,1,0.5451286999887088,dhn,f,20,2024_Apr_14_1016,mian,2021.2.3,60.633216938352135,
,,,,,,1,0,pic/flanker6.png,pic/flanker4.png,s,l,pic/AffRest3.png,,,,,,,,,,,,,,,,,,,,,,,,,0,2,2,2,0,5,5,53,,,,1065.6566375999973,None,1064.4716460000054,1065.6730035000073,s,1,0.5325639000075171,杂乱,l,1,0.5280265999899711,dhn,f,20,2024_Apr_14_1016,mian,2021.2.3,60.633216938352135,
,,,,,,1,0,pic/flanker6.png,pic/flanker4.png,s,l,pic/AffRest3.png,,,,,,,,,,,,,,,,,,,,,,,,,0,2,2,2,0,6,6,61,,,,1068.657260699998,None,1067.4730318000074,1068.6743259000068,s,1,0.563911499993992,嘲笑,l,1,0.5509398999856785,dhn,f,20,2024_Apr_14_1016,mian,2021.2.3,60.633216938352135,
,,,,,,1,1,pic/flanker6.png,pic/flanker4.png,s,k,pic/AffRest3.png,,,,,,,,,,,,,,,,,,,,,,,,,0,2,2,2,0,7,7,54,,,,1071.7589327000023,None,1070.574736399998,1071.7755660999974,s,1,0.5772677999921143,富丽,k,1,0.5681731999939075,dhn,f,20,2024_Apr_14_1016,mian,2021.2.3,60.633216938352135,
,,,,,,1,0,pic/flanker6.png,pic/flanker4.png,s,l,pic/AffRest3.png,,,,,,,,,,,,,,,,,,,,,,,,,0,2,2,2,0,8,8,13,,,,1074.7939009999973,None,1073.6093622000044,1074.810398200003,s,1,0.49692160000267904,忧虑,l,1,0.5368412000098033,dhn,f,20,2024_Apr_14_1016,mian,2021.2.3,60.633216938352135,
,,,,,,0,0,pic/flanker6.png,pic/flanker2.png,a,l,pic/AffRest3.png,,,,,,,,,,,,,,,,,,,,,,,,,0,2,2,2,0,9,9,1,,,,1077.728711200005,None,1076.5442276000103,1077.745829899999,a,1,0.46625859999039676,孤单,l,1,0.5517762999952538,dhn,f,20,2024_Apr_14_1016,mian,2021.2.3,60.633216938352135,
,,,,,,0,1,pic/flanker5.png,pic/flanker1.png,s,k,pic/AffRest3.png,,,,,,,,,,,,,,,,,,,,,,,,,0,2,2,2,0,10,10,32,,,,1080.7468861000089,None,1079.5626932000014,1080.7639297999995,s,1,0.4291623999888543,卓越,k,1,0.570320000013453,dhn,f,20,2024_Apr_14_1016,mian,2021.2.3,60.633216938352135,
,,,,,,1,0,pic/flanker6.png,pic/flanker4.png,s,l,pic/AffRest3.png,,,,,,,,,,,,,,,,,,,,,,,,,0,2,2,2,0,11,11,37,,,,1083.7153031000053,None,1082.530641999998,1083.7321763000073,s,1,0.5090118999942206,心慌,l,1,0.5270429000083823,dhn,f,20,2024_Apr_14_1016,mian,2021.2.3,60.633216938352135,
,,,,,,0,1,pic/flanker5.png,pic/flanker1.png,s,k,pic/AffRest3.png,,,,,,,,,,,,,,,,,,,,,,,,,0,2,2,2,0,12,12,0,,,,1086.7333557000093,None,1085.549024100008,1086.749741000007,s,1,0.47599540000373963,俊秀,k,1,0.6724577999993926,dhn,f,20,2024_Apr_14_1016,mian,2021.2.3,60.633216938352135,
,,,,,,0,0,pic/flanker6.png,pic/flanker2.png,a,l,pic/AffRest3.png,,,,,,,,,,,,,,,,,,,,,,,,,0,2,2,2,0,13,13,73,,,,1089.9181546000036,None,1088.7339134000067,1089.935241500003,a,1,0.46398020000196993,胡涂,l,1,0.5644639999954961,dhn,f,20,2024_Apr_14_1016,mian,2021.2.3,60.633216938352135,
,,,,,,1,1,pic/flanker5.png,pic/flanker3.png,a,k,pic/AffRest3.png,,,,,,,,,,,,,,,,,,,,,,,,,0,2,2,2,0,14,14,28,,,,1092.9864834000036,None,1091.8026333000016,1093.0030713000015,a,1,0.7161869000119623,爽朗,k,1,0.5228988000017125,dhn,f,20,2024_Apr_14_1016,mian,2021.2.3,60.633216938352135,
,,,,,,0,1,pic/flanker6.png,pic/flanker2.png,a,k,pic/AffRest3.png,,,,,,,,,,,,,,,,,,,,,,,,,0,2,2,2,0,15,15,58,,,,1096.171393800003,None,1094.986843999999,1096.1884309000015,a,1,0.4880994999984978,正直,k,1,0.737296499995864,dhn,f,20,2024_Apr_14_1016,mian,2021.2.3,60.633216938352135,
,,,,,,1,1,pic/flanker6.png,pic/flanker4.png,s,k,pic/AffRest3.png,,,,,,,,,,,,,,,,,,,,,,,,,0,2,2,2,0,16,16,70,,,,1099.3732620000083,None,1098.1890763999982,1099.3900916999992,s,1,0.5081616999959806,畅销,k,1,0.5380062000040198,dhn,f,20,2024_Apr_14_1016,mian,2021.2.3,60.633216938352135,
,,,,,,0,0,pic/flanker5.png,pic/flanker1.png,s,l,pic/AffRest3.png,,,,,,,,,,,,,,,,,,,,,,,,,0,2,2,2,0,17,17,67,,,,1102.2919402999978,None,1101.1072652000003,1102.3076038,s,1,0.40358840000408236,冷笑,l,1,0.6362254999985453,dhn,f,20,2024_Apr_14_1016,mian,2021.2.3,60.633216938352135,
,,,,,,1,1,pic/flanker5.png,pic/flanker3.png,a,k,pic/AffRest3.png,,,,,,,,,,,,,,,,,,,,,,,,,0,2,2,2,0,18,18,60,,,,1105.25931210001,None,1104.0757110999984,1105.2763888000045,a,1,0.6956211999931838,瑰丽,k,1,0.4938263999938499,dhn,f,20,2024_Apr_14_1016,mian,2021.2.3,60.633216938352135,
,,,,,,0,1,pic/flanker6.png,pic/flanker2.png,a,k,pic/AffRest3.png,,,,,,,,,,,,,,,,,,,,,,,,,0,2,2,2,0,19,19,42,,,,1108.4784026999987,None,1107.2935739000095,1108.4950700000045,a,1,0.3853303999931086,振作,k,1,0.532275200006552,dhn,f,20,2024_Apr_14_1016,mian,2021.2.3,60.633216938352135,
,,,,,,1,1,pic/flanker5.png,pic/flanker3.png,a,k,pic/AffRest3.png,,,,,,,,,,,,,,,,,,,,,,,,,0,2,2,2,0,20,20,76,,,,1111.3967112999962,None,1110.2117883000028,1111.4127233000036,a,1,0.554493999996339,清秀,k,1,0.41482420000829734,dhn,f,20,2024_Apr_14_1016,mian,2021.2.3,60.633216938352135,
,,,,,,1,0,pic/flanker5.png,pic/flanker3.png,a,l,pic/AffRest3.png,,,,,,,,,,,,,,,,,,,,,,,,,0,2,2,2,0,21,21,79,,,,1114.3636968000064,None,1113.1799609000009,1114.3807824000105,a,1,0.4352594000083627,沮丧,l,1,0.515625,dhn,f,20,2024_Apr_14_1016,mian,2021.2.3,60.633216938352135,
,,,,,,0,0,pic/flanker5.png,pic/flanker1.png,s,l,pic/AffRest3.png,,,,,,,,,,,,,,,,,,,,,,,,,0,2,2,2,0,22,22,27,,,,1117.3658706999995,None,1116.1812264000037,1117.3823948000063,s,1,0.4930573000019649,争吵,l,1,0.7578562999988208,dhn,f,20,2024_Apr_14_1016,mian,2021.2.3,60.633216938352135,
,,,,,,0,1,pic/flanker5.png,pic/flanker1.png,s,k,pic/AffRest3.png,,,,,,,,,,,,,,,,,,,,,,,,,0,2,2,2,0,23,23,48,,,,1120.6513045000029,None,1119.4663737000083,1120.667336300001,s,1,0.6261460999958217,豪放,k,1,0.515468099998543,dhn,f,20,2024_Apr_14_1016,mian,2021.2.3,60.633216938352135,
,,,,,,0,1,pic/flanker5.png,pic/flanker1.png,s,k,pic/AffRest3.png,,,,,,,,,,,,,,,,,,,,,,,,,0,2,2,2,0,24,24,56,,,,1123.8359949000005,None,1122.6517206999997,1123.8525924999994,s,1,0.4713030999992043,旺盛,k,1,0.7614060000050813,dhn,f,20,2024_Apr_14_1016,mian,2021.2.3,60.633216938352135,
,,,,,,1,0,pic/flanker5.png,pic/flanker3.png,a,l,pic/AffRest3.png,,,,,,,,,,,,,,,,,,,,,,,,,0,2,2,2,0,25,25,31,,,,1126.9540628999966,None,1125.769595100006,1126.970437099997,a,1,0.5411622000101488,缺乏,l,1,0.5721784000052139,dhn,f,20,2024_Apr_14_1016,mian,2021.2.3,60.633216938352135,
,,,,,,1,0,pic/flanker6.png,pic/flanker4.png,s,l,pic/AffRest3.png,,,,,,,,,,,,,,,,,,,,,,,,,0,2,2,2,0,26,26,45,,,,1129.9386644000042,None,1128.7543892999965,1129.955879400004,s,1,0.5174509999924339,处罚,l,1,0.8175615000072867,dhn,f,20,2024_Apr_14_1016,mian,2021.2.3,60.633216938352135,
,,,,,,0,0,pic/flanker5.png,pic/flanker1.png,s,l,pic/AffRest3.png,,,,,,,,,,,,,,,,,,,,,,,,,0,2,2,2,0,27,27,51,,,,1133.1071939000103,None,1131.9228285999998,1133.1248129000014,s,1,0.3325230000045849,郁闷,l,1,0.5823925000004238,dhn,f,20,2024_Apr_14_1016,mian,2021.2.3,60.633216938352135,
,,,,,,0,1,pic/flanker6.png,pic/flanker2.png,a,k,pic/AffRest3.png,,,,,,,,,,,,,,,,,,,,,,,,,0,2,2,2,0,28,28,34,,,,1136.0096858000034,None,1134.824416000003,1136.025387200003,a,1,0.4502356000011787,敬佩,k,1,0.48641859999042936,dhn,f,20,2024_Apr_14_1016,mian,2021.2.3,60.633216938352135,
,,,,,,0,0,pic/flanker6.png,pic/flanker2.png,a,l,pic/AffRest3.png,,,,,,,,,,,,,,,,,,,,,,,,,0,2,2,2,0,29,29,65,,,,1138.8595911000011,None,1137.6757855000033,1138.8767278000014,a,1,0.3470092000061413,烦恼,l,1,0.4834424000000581,dhn,f,20,2024_Apr_14_1016,mian,2021.2.3,60.633216938352135,
,,,,,,1,0,pic/flanker5.png,pic/flanker3.png,a,l,pic/AffRest3.png,,,,,,,,,,,,,,,,,,,,,,,,,0,2,2,2,0,30,30,15,,,,1141.7281046999997,None,1140.547655500006,1141.7614173000038,a,1,0.49925079999957234,焦躁,l,1,0.4898020999971777,dhn,f,20,2024_Apr_14_1016,mian,2021.2.3,60.633216938352135,
,,,,,,0,1,pic/flanker6.png,pic/flanker2.png,a,k,pic/AffRest3.png,,,,,,,,,,,,,,,,,,,,,,,,,0,2,2,2,0,31,31,18,,,,1144.547118500006,None,1143.362002000009,1144.5629332000099,a,1,0.3525389999995241,留恋,k,1,0.5073482999869157,dhn,f,20,2024_Apr_14_1016,mian,2021.2.3,60.633216938352135,
,,,,,,1,1,pic/flanker6.png,pic/flanker4.png,s,k,pic/AffRest3.png,,,,,,,,,,,,,,,,,,,,,,,,,0,2,2,2,0,32,32,22,,,,1147.3812594000046,None,1146.1973266999994,1147.3974606999982,s,1,0.725969699997222,优雅,k,1,0.563027800002601,dhn,f,20,2024_Apr_14_1016,mian,2021.2.3,60.633216938352135,
,,,,,,0,0,pic/flanker6.png,pic/flanker2.png,a,l,pic/AffRest3.png,,,,,,,,,,,,,,,,,,,,,,,,,0,2,2,2,0,33,33,49,,,,1150.4998943999963,None,1149.3148718000011,1150.5162621000054,a,1,0.46824909999850206,损害,l,1,0.5157400000025518,dhn,f,20,2024_Apr_14_1016,mian,2021.2.3,60.633216938352135,
,,,,,,0,0,pic/flanker5.png,pic/flanker1.png,s,l,pic/AffRest3.png,,,,,,,,,,,,,,,,,,,,,,,,,0,2,2,2,0,34,34,19,,,,1153.4843999000004,None,1152.3000891999982,1153.5008901999972,s,1,0.4187720000045374,轻率,l,1,0.5495642000023508,dhn,f,20,2024_Apr_14_1016,mian,2021.2.3,60.633216938352135,
,,,,,,0,1,pic/flanker5.png,pic/flanker1.png,s,k,pic/AffRest3.png,,,,,,,,,,,,,,,,,,,,,,,,,0,2,2,2,0,35,35,24,,,,1156.452019400007,None,1155.267898799997,1156.4687713000021,s,1,0.3706979999988107,廉洁,k,1,0.5297455000109039,dhn,f,20,2024_Apr_14_1016,mian,2021.2.3,60.633216938352135,
,,,,,,0,1,pic/flanker6.png,pic/flanker2.png,a,k,pic/AffRest3.png,,,,,,,,,,,,,,,,,,,,,,,,,0,2,2,2,0,36,36,50,,,,1159.1702698000008,None,1157.9860515000037,1159.1870366000076,a,1,0.46522830000321846,前进,k,1,0.5932825000054436,dhn,f,20,2024_Apr_14_1016,mian,2021.2.3,60.633216938352135,
,,,,,,1,0,pic/flanker5.png,pic/flanker3.png,a,l,pic/AffRest3.png,,,,,,,,,,,,,,,,,,,,,,,,,0,2,2,2,0,37,37,63,,,,1162.1052586000005,None,1160.9207640000095,1162.1215456000064,a,1,0.7272395999898436,堵塞,l,1,0.5492964000004577,dhn,f,20,2024_Apr_14_1016,mian,2021.2.3,60.633216938352135,
,,,,,,0,1,pic/flanker6.png,pic/flanker2.png,a,k,pic/AffRest3.png,,,,,,,,,,,,,,,,,,,,,,,,,0,2,2,2,0,38,38,66,,,,1165.357446599999,None,1164.1722086000082,1165.3737018999964,a,1,0.3278195000020787,秀丽,k,1,0.47136689999024384,dhn,f,20,2024_Apr_14_1016,mian,2021.2.3,60.633216938352135,
,,,,,,1,1,pic/flanker5.png,pic/flanker3.png,a,k,pic/AffRest3.png,,,,,,,,,,,,,,,,,,,,,,,,,0,2,2,2,0,39,39,4,,,,1168.0918435000058,None,1166.9069603000098,1168.1084448000038,a,1,0.5116688000125578,典雅,k,1,0.4898153999965871,dhn,f,20,2024_Apr_14_1016,mian,2021.2.3,60.633216938352135,
,,,,,,1,1,pic/flanker6.png,pic/flanker4.png,s,k,pic/AffRest3.png,,,,,,,,,,,,,,,,,,,,,,,,,0,2,2,2,0,40,40,6,,,,1171.1106416999974,None,1169.9251637999987,1171.1261713999993,s,1,0.5546279000118375,奉献,k,1,0.4664887999970233,dhn,f,20,2024_Apr_14_1016,mian,2021.2.3,60.633216938352135,
,,,,,,0,1,pic/flanker5.png,pic/flanker1.png,s,k,pic/AffRest3.png,,,,,,,,,,,,,,,,,,,,,,,,,0,2,2,2,0,41,41,64,,,,1174.0611739000014,None,1172.876859099997,1174.0780879000085,s,1,0.44365600000310224,珍藏,k,1,0.9211272000102326,dhn,f,20,2024_Apr_14_1016,mian,2021.2.3,60.633216938352135,
,,,,,,1,1,pic/flanker5.png,pic/flanker3.png,a,k,pic/AffRest3.png,,,,,,,,,,,,,,,,,,,,,,,,,0,2,2,2,0,42,42,68,,,,1177.3131570999976,None,1176.1365044999984,1177.3462986000086,a,1,0.5256315000005998,舒畅,k,1,0.5758118000085233,dhn,f,20,2024_Apr_14_1016,mian,2021.2.3,60.633216938352135,
,,,,,,0,1,pic/flanker6.png,pic/flanker2.png,a,k,pic/AffRest3.png,,,,,,,,,,,,,,,,,,,,,,,,,0,2,2,2,0,43,43,26,,,,1180.348253700009,None,1179.163776900008,1180.3642431000044,a,1,0.32395019999239594,赞成,k,1,0.5167491999891354,dhn,f,20,2024_Apr_14_1016,mian,2021.2.3,60.633216938352135,
,,,,,,0,0,pic/flanker6.png,pic/flanker2.png,a,l,pic/AffRest3.png,,,,,,,,,,,,,,,,,,,,,,,,,0,2,2,2,0,44,44,17,,,,1183.0166019000026,None,1181.8320682000049,1183.0328982000065,a,1,0.4488798999955179,伤心,l,1,0.8045050000073388,dhn,f,20,2024_Apr_14_1016,mian,2021.2.3,60.633216938352135,
,,,,,,1,1,pic/flanker6.png,pic/flanker4.png,s,k,pic/AffRest3.png,,,,,,,,,,,,,,,,,,,,,,,,,0,2,2,2,0,45,45,78,,,,1186.1007255000004,None,1184.9172794000042,1186.1169557000103,s,1,1.312835399992764,永恒,k,1,0.5604470999969635,dhn,f,20,2024_Apr_14_1016,mian,2021.2.3,60.633216938352135,
,,,,,,0,1,pic/flanker5.png,pic/flanker1.png,s,k,pic/AffRest3.png,,,,,,,,,,,,,,,,,,,,,,,,,0,2,2,2,0,46,46,40,,,,1189.9536757000023,None,1188.7686682000058,1189.9696723000088,s,1,0.6855781999911414,丰满,k,1,0.5769594000012148,dhn,f,20,2024_Apr_14_1016,mian,2021.2.3,60.633216938352135,
,,,,,,1,0,pic/flanker6.png,pic/flanker4.png,s,l,pic/AffRest3.png,,,,,,,,,,,,,,,,,,,,,,,,,0,2,2,2,0,47,47,21,,,,1193.0376860999968,None,1191.8534144000005,1193.0546183999977,s,1,0.7928050000045914,浪费,l,1,0.6334876999899279,dhn,f,20,2024_Apr_14_1016,mian,2021.2.3,60.633216938352135,
,,,,,,1,0,pic/flanker6.png,pic/flanker4.png,s,l,pic/AffRest3.png,,,,,,,,,,,,,,,,,,,,,,,,,0,2,2,2,0,48,48,69,,,,1196.4560865000094,None,1195.2718469999963,1196.472935400001,s,1,0.6151333000016166,鲁莽,l,1,0.6429077999928268,dhn,f,20,2024_Apr_14_1016,mian,2021.2.3,60.633216938352135,
,,,,,,1,0,pic/flanker6.png,pic/flanker4.png,s,l,pic/AffRest3.png,,,,,,,,,,,,,,,,,,,,,,,,,0,2,2,2,0,49,49,77,,,,1199.557418700002,None,1198.3729931999987,1199.5753025000013,s,1,0.5762492999929236,排斥,l,1,0.649120000001858,dhn,f,20,2024_Apr_14_1016,mian,2021.2.3,60.633216938352135,
,,,,,,0,0,pic/flanker6.png,pic/flanker2.png,a,l,pic/AffRest3.png,,,,,,,,,,,,,,,,,,,,,,,,,0,2,2,2,0,50,50,57,,,,1202.7254275000014,None,1201.5417176000046,1202.742608200002,a,1,0.5197321000014199,罚款,l,1,0.8852183999988483,dhn,f,20,2024_Apr_14_1016,mian,2021.2.3,60.633216938352135,
,,,,,,0,0,pic/flanker5.png,pic/flanker1.png,s,l,pic/AffRest3.png,,,,,,,,,,,,,,,,,,,,,,,,,0,2,2,2,0,51,51,35,,,,1205.9607019000105,None,1204.7768335,1205.9776923000027,s,1,0.5135884000046644,怀疑,l,1,0.5879662000079406,dhn,f,20,2024_Apr_14_1016,mian,2021.2.3,60.633216938352135,
,,,,,,1,1,pic/flanker5.png,pic/flanker3.png,a,k,pic/AffRest3.png,,,,,,,,,,,,,,,,,,,,,,,,,0,2,2,2,0,52,52,20,,,,1209.1130266999971,None,1207.9287858000025,1209.1295959999989,a,1,0.442520999989938,吉祥,k,1,0.5541067000012845,dhn,f,20,2024_Apr_14_1016,mian,2021.2.3,60.633216938352135,
,,,,,,1,1,pic/flanker6.png,pic/flanker4.png,s,k,pic/AffRest3.png,,,,,,,,,,,,,,,,,,,,,,,,,0,2,2,2,0,53,53,14,,,,1212.1308862000005,None,1210.9468420000048,1212.1470216000016,s,1,0.5228039000066929,鲜艳,k,1,0.47561740000674035,dhn,f,20,2024_Apr_14_1016,mian,2021.2.3,60.633216938352135,
,,,,,,1,1,pic/flanker6.png,pic/flanker4.png,s,k,pic/AffRest3.png,,,,,,,,,,,,,,,,,,,,,,,,,0,2,2,2,0,54,54,46,,,,1215.0152439000085,None,1213.8307851999998,1215.0318707999977,s,1,0.6545949999999721,精致,k,1,0.6105045000003884,dhn,f,20,2024_Apr_14_1016,mian,2021.2.3,60.633216938352135,
,,,,,,1,1,pic/flanker6.png,pic/flanker4.png,s,k,pic/AffRest3.png,,,,,,,,,,,,,,,,,,,,,,,,,0,2,2,2,0,55,55,30,,,,1218.2006092000083,None,1217.0158877000067,1218.2170942000084,s,1,0.6301569000061136,公平,k,1,0.472594000006211,dhn,f,20,2024_Apr_14_1016,mian,2021.2.3,60.633216938352135,
,,,,,,0,0,pic/flanker6.png,pic/flanker2.png,a,l,pic/AffRest3.png,,,,,,,,,,,,,,,,,,,,,,,,,0,2,2,2,0,56,56,9,,,,1221.3522231000097,None,1220.167812700005,1221.3688466000021,a,1,0.3579286000021966,禁止,l,1,0.6002729000028921,dhn,f,20,2024_Apr_14_1016,mian,2021.2.3,60.633216938352135,
,,,,,,1,1,pic/flanker5.png,pic/flanker3.png,a,k,pic/AffRest3.png,,,,,,,,,,,,,,,,,,,,,,,,,0,2,2,2,0,57,57,12,,,,1224.2869344000064,None,1223.1026146000077,1224.3037534000032,a,1,0.6036478000023635,富足,k,1,0.5749996999948053,dhn,f,20,2024_Apr_14_1016,mian,2021.2.3,60.633216938352135,
,,,,,,1,1,pic/flanker5.png,pic/flanker3.png,a,k,pic/AffRest3.png,,,,,,,,,,,,,,,,,,,,,,,,,0,2,2,2,0,58,58,52,,,,1227.4044477999996,None,1226.2206834000099,1227.4212088000058,a,1,0.4620856000110507,诚恳,k,1,0.5133733999973629,dhn,f,20,2024_Apr_14_1016,mian,2021.2.3,60.633216938352135,
,,,,,,0,0,pic/flanker6.png,pic/flanker2.png,a,l,pic/AffRest3.png,,,,,,,,,,,,,,,,,,,,,,,,,0,2,2,2,0,59,59,33,,,,1230.2900022000103,None,1229.105211800008,1230.3070512999984,a,1,0.3670918999996502,撒谎,l,1,0.5668922999902861,dhn,f,20,2024_Apr_14_1016,mian,2021.2.3,60.633216938352135,
,,,,,,0,0,pic/flanker5.png,pic/flanker1.png,s,l,pic/AffRest3.png,,,,,,,,,,,,,,,,,,,,,,,,,0,2,2,2,0,60,60,11,,,,1233.2757282000093,None,1232.0912895000074,1233.2921241000004,s,1,0.5814251999981934,自卑,l,1,0.5559751999971922,dhn,f,20,2024_Apr_14_1016,mian,2021.2.3,60.633216938352135,
,,,,,,1,0,pic/flanker5.png,pic/flanker3.png,a,l,pic/AffRest3.png,,,,,,,,,,,,,,,,,,,,,,,,,0,2,2,2,0,61,61,7,,,,1236.4426834000042,None,1235.259161000009,1236.4596694000065,a,1,0.6921117999881972,丢失,l,1,0.5615507000038633,dhn,f,20,2024_Apr_14_1016,mian,2021.2.3,60.633216938352135,
,,,,,,1,1,pic/flanker6.png,pic/flanker4.png,s,k,pic/AffRest3.png,,,,,,,,,,,,,,,,,,,,,,,,,0,2,2,2,0,62,62,62,,,,1239.6446948000084,None,1238.4601024000003,1239.6609642999974,s,1,0.5623979999945732,雄厚,k,1,0.5089713000052143,dhn,f,20,2024_Apr_14_1016,mian,2021.2.3,60.633216938352135,
,,,,,,0,0,pic/flanker5.png,pic/flanker1.png,s,l,pic/AffRest3.png,,,,,,,,,,,,,,,,,,,,,,,,,0,2,2,2,0,63,63,59,,,,1242.5962914999982,None,1241.4123785999982,1242.6127731000015,s,1,0.5303119000018341,假冒,l,1,0.5420608000131324,dhn,f,20,2024_Apr_14_1016,mian,2021.2.3,60.633216938352135,
,,,,,,0,1,pic/flanker5.png,pic/flanker1.png,s,k,pic/AffRest3.png,,,,,,,,,,,,,,,,,,,,,,,,,0,2,2,2,0,64,64,16,,,,1245.6474707000016,None,1244.4633333000093,1245.6640840000036,s,1,0.37925080000422895,有利,k,1,0.500564599991776,dhn,f,20,2024_Apr_14_1016,mian,2021.2.3,60.633216938352135,
,,,,,,1,0,pic/flanker6.png,pic/flanker4.png,s,l,pic/AffRest3.png,,,,,,,,,,,,,,,,,,,,,,,,,0,2,2,2,0,65,65,29,,,,1248.5161316000012,None,1247.3317240000033,1248.532521000001,s,1,0.5726211000001058,慌忙,l,1,0.5115491000033217,dhn,f,20,2024_Apr_14_1016,mian,2021.2.3,60.633216938352135,
