target,反应类型,条件,truetarget,CorAns,Position,congruency,AffValue,flankerPic,targetPic,corAnsF,corAnsA,RestPic,returnPractice.thisRepN,returnPractice.thisTrialN,returnPractice.thisN,returnPractice.thisIndex,pracNum.thisRepN,pracNum.thisTrialN,pracNum.thisN,pracNum.thisIndex,NumBlock1.thisRepN,NumBlock1.thisTrialN,NumBlock1.thisN,NumBlock1.thisIndex,NumBlock2.thisRepN,NumBlock2.thisTrialN,NumBlock2.thisN,NumBlock2.thisIndex,returnPrac.thisRepN,returnPrac.thisTrialN,returnPrac.thisN,returnPrac.thisIndex,PracAff.thisRepN,PracAff.thisTrialN,PracAff.thisN,PracAff.thisIndex,AffBlocks.thisRepN,AffBlocks.thisTrialN,AffBlocks.thisN,AffBlocks.thisIndex,AffBlock1.thisRepN,AffBlock1.thisTrialN,AffBlock1.thisN,AffBlock1.thisIndex,respNum2word.keys,respNum2word.corr,respNum2word.rt,text.started,text.stopped,blank.started,blank.stopped,respFlanker.keys,respFlanker.corr,thisWord,respAffWord.keys,respAffWord.corr,respFlanker.rt,respAffWord.rt,姓名,性别,年龄（周岁）,date,expName,psychopyVersion,frameRate,
2A,1,1,A,a,"[0.2, 0.2]",,,,,,,,0,0,0,0,0,0,0,0,,,,,,,,,,,,,,,,,,,,,,,,,None,0,,,,,,,,,,,,,fjc,f,22,2024_Apr_15_1428,mian,2021.2.3,59.875506846191094,
A9,1,2,A,a,"[-0.2, 0.2]",,,,,,,,0,0,0,0,0,1,1,1,,,,,,,,,,,,,,,,,,,,,,,,,a,1,1.7389702000000398,,,,,,,,,,,,fjc,f,22,2024_Apr_15_1428,mian,2021.2.3,59.875506846191094,
7e,2,1,7.0,a,"[-0.2, -0.2]",,,,,,,,0,0,0,0,0,2,2,2,,,,,,,,,,,,,,,,,,,,,,,,,a,1,2.6511116000001493,,,,,,,,,,,,fjc,f,22,2024_Apr_15_1428,mian,2021.2.3,59.875506846191094,
9H,2,2,9.0,a,"[0.2, -0.2]",,,,,,,,0,0,0,0,0,3,3,3,,,,,,,,,,,,,,,,,,,,,,,,,a,1,2.0138646000013978,,,,,,,,,,,,fjc,f,22,2024_Apr_15_1428,mian,2021.2.3,59.875506846191094,
h4,1,1,h,l,"[0.2, 0.2]",,,,,,,,0,0,0,0,0,4,4,4,,,,,,,,,,,,,,,,,,,,,,,,,l,1,2.960945200000424,,,,,,,,,,,,fjc,f,22,2024_Apr_15_1428,mian,2021.2.3,59.875506846191094,
4H,1,2,H,a,"[-0.2, 0.2]",,,,,,,,0,0,0,0,0,5,5,5,,,,,,,,,,,,,,,,,,,,,,,,,a,1,1.8133992000002763,,,,,,,,,,,,fjc,f,22,2024_Apr_15_1428,mian,2021.2.3,59.875506846191094,
F8,2,1,8.0,l,"[-0.2, -0.2]",,,,,,,,0,0,0,0,0,6,6,6,,,,,,,,,,,,,,,,,,,,,,,,,l,1,1.8055942999999388,,,,,,,,,,,,fjc,f,22,2024_Apr_15_1428,mian,2021.2.3,59.875506846191094,
h7,2,2,7.0,a,"[0.2, -0.2]",,,,,,,,0,0,0,0,0,7,7,7,,,,,,,,,,,,,,,,,,,,,,,,,a,1,0.5145542999998725,,,,,,,,,,,,fjc,f,22,2024_Apr_15_1428,mian,2021.2.3,59.875506846191094,
5e,1,1,e,l,"[0.2, 0.2]",,,,,,,,0,0,0,0,0,8,8,8,,,,,,,,,,,,,,,,,,,,,,,,,l,1,1.0476791000000958,,,,,,,,,,,,fjc,f,22,2024_Apr_15_1428,mian,2021.2.3,59.875506846191094,
e8,1,2,e,l,"[-0.2, 0.2]",,,,,,,,0,0,0,0,0,9,9,9,,,,,,,,,,,,,,,,,,,,,,,,,l,1,1.1694820000011532,,,,,,,,,,,,fjc,f,22,2024_Apr_15_1428,mian,2021.2.3,59.875506846191094,
4E,2,1,4.0,l,"[-0.2, -0.2]",,,,,,,,0,0,0,0,0,10,10,10,,,,,,,,,,,,,,,,,,,,,,,,,a,0,1.0595799999973678,,,,,,,,,,,,fjc,f,22,2024_Apr_15_1428,mian,2021.2.3,59.875506846191094,
5H,2,2,5.0,a,"[0.2, -0.2]",,,,,,,,0,0,0,0,0,11,11,11,,,,,,,,,,,,,,,,,,,,,,,,,a,1,1.6755249999987427,,,,,,,,,,,,fjc,f,22,2024_Apr_15_1428,mian,2021.2.3,59.875506846191094,
9E,1,1,E,a,"[0.2, 0.2]",,,,,,,,0,0,0,0,0,12,12,12,,,,,,,,,,,,,,,,,,,,,,,,,a,1,2.3770918999980495,,,,,,,,,,,,fjc,f,22,2024_Apr_15_1428,mian,2021.2.3,59.875506846191094,
h9,1,2,h,l,"[-0.2, 0.2]",,,,,,,,0,0,0,0,0,13,13,13,,,,,,,,,,,,,,,,,,,,,,,,,l,1,0.6358235999978206,,,,,,,,,,,,fjc,f,22,2024_Apr_15_1428,mian,2021.2.3,59.875506846191094,
2a,2,1,2.0,l,"[-0.2, -0.2]",,,,,,,,0,0,0,0,0,14,14,14,,,,,,,,,,,,,,,,,,,,,,,,,a,0,0.9777475999981107,,,,,,,,,,,,fjc,f,22,2024_Apr_15_1428,mian,2021.2.3,59.875506846191094,
e5,2,2,5.0,a,"[0.2, -0.2]",,,,,,,,0,0,0,0,0,15,15,15,,,,,,,,,,,,,,,,,,,,,,,,,a,1,1.5267328999980236,,,,,,,,,,,,fjc,f,22,2024_Apr_15_1428,mian,2021.2.3,59.875506846191094,
A5,1,1,A,a,"[0.2, 0.2]",,,,,,,,0,0,0,0,0,16,16,16,,,,,,,,,,,,,,,,,,,,,,,,,a,1,3.185354400000506,,,,,,,,,,,,fjc,f,22,2024_Apr_15_1428,mian,2021.2.3,59.875506846191094,
a6,1,2,a,l,"[-0.2, 0.2]",,,,,,,,0,0,0,0,0,17,17,17,,,,,,,,,,,,,,,,,,,,,,,,,l,1,2.7423428000001877,,,,,,,,,,,,fjc,f,22,2024_Apr_15_1428,mian,2021.2.3,59.875506846191094,
2F,2,1,2.0,l,"[-0.2, -0.2]",,,,,,,,0,0,0,0,0,18,18,18,,,,,,,,,,,,,,,,,,,,,,,,,l,1,1.2534097999996447,,,,,,,,,,,,fjc,f,22,2024_Apr_15_1428,mian,2021.2.3,59.875506846191094,
e4,2,2,4.0,l,"[0.2, -0.2]",,,,,,,,0,0,0,0,0,19,19,19,,,,,,,,,,,,,,,,,,,,,,,,,l,1,1.053732399999717,,,,,,,,,,,,fjc,f,22,2024_Apr_15_1428,mian,2021.2.3,59.875506846191094,
,,,,,,,,,,,,,0,0,0,0,,,,,,,,,,,,,,,,,,,,,,,,,,,,,,,,,,,,,,,,,,,fjc,f,22,2024_Apr_15_1428,mian,2021.2.3,59.875506846191094,
7h,1,1,h,l,"[0.2, 0.2]",,,,,,,,,,,,,,,,0,0,0,0,,,,,,,,,,,,,,,,,,,,,l,1,1.7226507999985188,,,,,,,,,,,,fjc,f,22,2024_Apr_15_1428,mian,2021.2.3,59.875506846191094,
8F,1,2,F,a,"[-0.2, 0.2]",,,,,,,,,,,,,,,,0,1,1,1,,,,,,,,,,,,,,,,,,,,,a,1,2.056210499998997,,,,,,,,,,,,fjc,f,22,2024_Apr_15_1428,mian,2021.2.3,59.875506846191094,
8h,2,1,8.0,l,"[-0.2, -0.2]",,,,,,,,,,,,,,,,0,2,2,2,,,,,,,,,,,,,,,,,,,,,l,1,0.9003737999992154,,,,,,,,,,,,fjc,f,22,2024_Apr_15_1428,mian,2021.2.3,59.875506846191094,
a2,2,2,2.0,l,"[0.2, -0.2]",,,,,,,,,,,,,,,,0,3,3,3,,,,,,,,,,,,,,,,,,,,,l,1,0.9089262000015879,,,,,,,,,,,,fjc,f,22,2024_Apr_15_1428,mian,2021.2.3,59.875506846191094,
8f,1,1,f,l,"[0.2, 0.2]",,,,,,,,,,,,,,,,0,4,4,4,,,,,,,,,,,,,,,,,,,,,l,1,0.7987885999973514,,,,,,,,,,,,fjc,f,22,2024_Apr_15_1428,mian,2021.2.3,59.875506846191094,
6a,1,2,a,l,"[-0.2, 0.2]",,,,,,,,,,,,,,,,0,5,5,5,,,,,,,,,,,,,,,,,,,,,l,1,0.8064988000005542,,,,,,,,,,,,fjc,f,22,2024_Apr_15_1428,mian,2021.2.3,59.875506846191094,
h6,2,1,6.0,l,"[-0.2, -0.2]",,,,,,,,,,,,,,,,0,6,6,6,,,,,,,,,,,,,,,,,,,,,l,1,1.2555932000032044,,,,,,,,,,,,fjc,f,22,2024_Apr_15_1428,mian,2021.2.3,59.875506846191094,
f9,2,2,9.0,a,"[0.2, -0.2]",,,,,,,,,,,,,,,,0,7,7,7,,,,,,,,,,,,,,,,,,,,,a,1,0.8692058000015095,,,,,,,,,,,,fjc,f,22,2024_Apr_15_1428,mian,2021.2.3,59.875506846191094,
E4,1,1,E,a,"[0.2, 0.2]",,,,,,,,,,,,,,,,0,8,8,8,,,,,,,,,,,,,,,,,,,,,a,1,1.377685499999643,,,,,,,,,,,,fjc,f,22,2024_Apr_15_1428,mian,2021.2.3,59.875506846191094,
6e,1,2,e,l,"[-0.2, 0.2]",,,,,,,,,,,,,,,,0,9,9,9,,,,,,,,,,,,,,,,,,,,,l,1,1.3498794000006455,,,,,,,,,,,,fjc,f,22,2024_Apr_15_1428,mian,2021.2.3,59.875506846191094,
5G,2,1,5.0,a,"[-0.2, -0.2]",,,,,,,,,,,,,,,,0,10,10,10,,,,,,,,,,,,,,,,,,,,,a,1,1.987790799998038,,,,,,,,,,,,fjc,f,22,2024_Apr_15_1428,mian,2021.2.3,59.875506846191094,
h3,2,2,3.0,a,"[0.2, -0.2]",,,,,,,,,,,,,,,,0,11,11,11,,,,,,,,,,,,,,,,,,,,,a,1,0.8465935999993235,,,,,,,,,,,,fjc,f,22,2024_Apr_15_1428,mian,2021.2.3,59.875506846191094,
9e,1,1,e,l,"[0.2, 0.2]",,,,,,,,,,,,,,,,0,12,12,12,,,,,,,,,,,,,,,,,,,,,l,1,1.7454308000014862,,,,,,,,,,,,fjc,f,22,2024_Apr_15_1428,mian,2021.2.3,59.875506846191094,
a8,1,2,a,l,"[-0.2, 0.2]",,,,,,,,,,,,,,,,0,13,13,13,,,,,,,,,,,,,,,,,,,,,l,1,0.9122978999985207,,,,,,,,,,,,fjc,f,22,2024_Apr_15_1428,mian,2021.2.3,59.875506846191094,
e8,2,1,8.0,l,"[-0.2, -0.2]",,,,,,,,,,,,,,,,0,14,14,14,,,,,,,,,,,,,,,,,,,,,l,1,1.7753836000010779,,,,,,,,,,,,fjc,f,22,2024_Apr_15_1428,mian,2021.2.3,59.875506846191094,
3f,2,2,3.0,a,"[0.2, -0.2]",,,,,,,,,,,,,,,,0,15,15,15,,,,,,,,,,,,,,,,,,,,,a,1,0.7506131000009191,,,,,,,,,,,,fjc,f,22,2024_Apr_15_1428,mian,2021.2.3,59.875506846191094,
7f,1,1,f,l,"[0.2, 0.2]",,,,,,,,,,,,,,,,0,16,16,16,,,,,,,,,,,,,,,,,,,,,l,1,1.6212745999982872,,,,,,,,,,,,fjc,f,22,2024_Apr_15_1428,mian,2021.2.3,59.875506846191094,
a7,1,2,a,l,"[-0.2, 0.2]",,,,,,,,,,,,,,,,0,17,17,17,,,,,,,,,,,,,,,,,,,,,l,1,1.4671438000004855,,,,,,,,,,,,fjc,f,22,2024_Apr_15_1428,mian,2021.2.3,59.875506846191094,
5A,2,1,5.0,a,"[-0.2, -0.2]",,,,,,,,,,,,,,,,0,18,18,18,,,,,,,,,,,,,,,,,,,,,a,1,1.7000029999981052,,,,,,,,,,,,fjc,f,22,2024_Apr_15_1428,mian,2021.2.3,59.875506846191094,
8g,2,2,8.0,l,"[0.2, -0.2]",,,,,,,,,,,,,,,,0,19,19,19,,,,,,,,,,,,,,,,,,,,,l,1,0.6934217999987595,,,,,,,,,,,,fjc,f,22,2024_Apr_15_1428,mian,2021.2.3,59.875506846191094,
9a,1,1,a,l,"[0.2, 0.2]",,,,,,,,,,,,,,,,0,20,20,20,,,,,,,,,,,,,,,,,,,,,l,1,0.7158900000031281,,,,,,,,,,,,fjc,f,22,2024_Apr_15_1428,mian,2021.2.3,59.875506846191094,
f7,1,2,f,l,"[-0.2, 0.2]",,,,,,,,,,,,,,,,0,21,21,21,,,,,,,,,,,,,,,,,,,,,l,1,0.9595565000017814,,,,,,,,,,,,fjc,f,22,2024_Apr_15_1428,mian,2021.2.3,59.875506846191094,
g9,2,1,9.0,a,"[-0.2, -0.2]",,,,,,,,,,,,,,,,0,22,22,22,,,,,,,,,,,,,,,,,,,,,a,1,1.3155513999990944,,,,,,,,,,,,fjc,f,22,2024_Apr_15_1428,mian,2021.2.3,59.875506846191094,
3h,2,2,3.0,a,"[0.2, -0.2]",,,,,,,,,,,,,,,,0,23,23,23,,,,,,,,,,,,,,,,,,,,,a,1,0.5994224999994913,,,,,,,,,,,,fjc,f,22,2024_Apr_15_1428,mian,2021.2.3,59.875506846191094,
E6,1,1,E,a,"[0.2, 0.2]",,,,,,,,,,,,,,,,0,24,24,24,,,,,,,,,,,,,,,,,,,,,a,1,0.8657772000005934,,,,,,,,,,,,fjc,f,22,2024_Apr_15_1428,mian,2021.2.3,59.875506846191094,
F6,1,2,F,a,"[-0.2, 0.2]",,,,,,,,,,,,,,,,0,25,25,25,,,,,,,,,,,,,,,,,,,,,a,1,0.5028555999997479,,,,,,,,,,,,fjc,f,22,2024_Apr_15_1428,mian,2021.2.3,59.875506846191094,
3A,2,1,3.0,a,"[-0.2, -0.2]",,,,,,,,,,,,,,,,0,26,26,26,,,,,,,,,,,,,,,,,,,,,a,1,2.761940999997023,,,,,,,,,,,,fjc,f,22,2024_Apr_15_1428,mian,2021.2.3,59.875506846191094,
8H,2,2,8.0,l,"[0.2, -0.2]",,,,,,,,,,,,,,,,0,27,27,27,,,,,,,,,,,,,,,,,,,,,l,1,0.7452575000024808,,,,,,,,,,,,fjc,f,22,2024_Apr_15_1428,mian,2021.2.3,59.875506846191094,
5a,1,1,a,l,"[0.2, 0.2]",,,,,,,,,,,,,,,,0,28,28,28,,,,,,,,,,,,,,,,,,,,,l,1,0.9398916999998619,,,,,,,,,,,,fjc,f,22,2024_Apr_15_1428,mian,2021.2.3,59.875506846191094,
2h,1,2,h,l,"[-0.2, 0.2]",,,,,,,,,,,,,,,,0,29,29,29,,,,,,,,,,,,,,,,,,,,,l,1,0.8482389000018884,,,,,,,,,,,,fjc,f,22,2024_Apr_15_1428,mian,2021.2.3,59.875506846191094,
e5,2,1,5.0,a,"[-0.2, -0.2]",,,,,,,,,,,,,,,,0,30,30,30,,,,,,,,,,,,,,,,,,,,,a,1,3.0727972999993654,,,,,,,,,,,,fjc,f,22,2024_Apr_15_1428,mian,2021.2.3,59.875506846191094,
a3,2,2,3.0,a,"[0.2, -0.2]",,,,,,,,,,,,,,,,0,31,31,31,,,,,,,,,,,,,,,,,,,,,a,1,1.3054701000000932,,,,,,,,,,,,fjc,f,22,2024_Apr_15_1428,mian,2021.2.3,59.875506846191094,
f3,1,1,f,l,"[0.2, 0.2]",,,,,,,,,,,,,,,,0,32,32,32,,,,,,,,,,,,,,,,,,,,,l,1,0.6794934000026842,,,,,,,,,,,,fjc,f,22,2024_Apr_15_1428,mian,2021.2.3,59.875506846191094,
2E,1,2,E,a,"[-0.2, 0.2]",,,,,,,,,,,,,,,,0,33,33,33,,,,,,,,,,,,,,,,,,,,,a,1,0.6417919999985315,,,,,,,,,,,,fjc,f,22,2024_Apr_15_1428,mian,2021.2.3,59.875506846191094,
2H,2,1,2.0,l,"[-0.2, -0.2]",,,,,,,,,,,,,,,,0,34,34,34,,,,,,,,,,,,,,,,,,,,,l,1,0.6991649000010511,,,,,,,,,,,,fjc,f,22,2024_Apr_15_1428,mian,2021.2.3,59.875506846191094,
H8,2,2,8.0,l,"[0.2, -0.2]",,,,,,,,,,,,,,,,0,35,35,35,,,,,,,,,,,,,,,,,,,,,l,1,0.6676215000006778,,,,,,,,,,,,fjc,f,22,2024_Apr_15_1428,mian,2021.2.3,59.875506846191094,
9g,1,1,g,l,"[0.2, 0.2]",,,,,,,,,,,,,,,,0,36,36,36,,,,,,,,,,,,,,,,,,,,,l,1,2.1704261999984737,,,,,,,,,,,,fjc,f,22,2024_Apr_15_1428,mian,2021.2.3,59.875506846191094,
5h,1,2,h,l,"[-0.2, 0.2]",,,,,,,,,,,,,,,,0,37,37,37,,,,,,,,,,,,,,,,,,,,,l,1,0.6269464999968477,,,,,,,,,,,,fjc,f,22,2024_Apr_15_1428,mian,2021.2.3,59.875506846191094,
e4,2,1,4.0,l,"[-0.2, -0.2]",,,,,,,,,,,,,,,,0,38,38,38,,,,,,,,,,,,,,,,,,,,,l,1,2.56660710000142,,,,,,,,,,,,fjc,f,22,2024_Apr_15_1428,mian,2021.2.3,59.875506846191094,
9h,2,2,9.0,a,"[0.2, -0.2]",,,,,,,,,,,,,,,,0,39,39,39,,,,,,,,,,,,,,,,,,,,,a,1,0.8958831999989343,,,,,,,,,,,,fjc,f,22,2024_Apr_15_1428,mian,2021.2.3,59.875506846191094,
G3,1,1,G,a,"[0.2, 0.2]",,,,,,,,,,,,,,,,0,40,40,40,,,,,,,,,,,,,,,,,,,,,a,1,0.9708817999999155,,,,,,,,,,,,fjc,f,22,2024_Apr_15_1428,mian,2021.2.3,59.875506846191094,
9A,1,2,A,a,"[-0.2, 0.2]",,,,,,,,,,,,,,,,0,41,41,41,,,,,,,,,,,,,,,,,,,,,a,1,0.5986678999979631,,,,,,,,,,,,fjc,f,22,2024_Apr_15_1428,mian,2021.2.3,59.875506846191094,
H5,2,1,5.0,a,"[-0.2, -0.2]",,,,,,,,,,,,,,,,0,42,42,42,,,,,,,,,,,,,,,,,,,,,a,1,1.5338095999977668,,,,,,,,,,,,fjc,f,22,2024_Apr_15_1428,mian,2021.2.3,59.875506846191094,
4e,2,2,4.0,l,"[0.2, -0.2]",,,,,,,,,,,,,,,,0,43,43,43,,,,,,,,,,,,,,,,,,,,,l,1,0.8876127999974415,,,,,,,,,,,,fjc,f,22,2024_Apr_15_1428,mian,2021.2.3,59.875506846191094,
E2,1,1,E,a,"[0.2, 0.2]",,,,,,,,,,,,,,,,0,44,44,44,,,,,,,,,,,,,,,,,,,,,a,1,3.009694699998363,,,,,,,,,,,,fjc,f,22,2024_Apr_15_1428,mian,2021.2.3,59.875506846191094,
A5,1,2,A,a,"[-0.2, 0.2]",,,,,,,,,,,,,,,,0,45,45,45,,,,,,,,,,,,,,,,,,,,,a,1,0.6115600000011909,,,,,,,,,,,,fjc,f,22,2024_Apr_15_1428,mian,2021.2.3,59.875506846191094,
2A,2,1,2.0,l,"[-0.2, -0.2]",,,,,,,,,,,,,,,,0,46,46,46,,,,,,,,,,,,,,,,,,,,,l,1,0.8677954000013415,,,,,,,,,,,,fjc,f,22,2024_Apr_15_1428,mian,2021.2.3,59.875506846191094,
6G,2,2,6.0,l,"[0.2, -0.2]",,,,,,,,,,,,,,,,0,47,47,47,,,,,,,,,,,,,,,,,,,,,l,1,0.7492760999994061,,,,,,,,,,,,fjc,f,22,2024_Apr_15_1428,mian,2021.2.3,59.875506846191094,
H3,1,1,H,a,"[0.2, 0.2]",,,,,,,,,,,,,,,,0,48,48,48,,,,,,,,,,,,,,,,,,,,,a,1,1.5182820999980322,,,,,,,,,,,,fjc,f,22,2024_Apr_15_1428,mian,2021.2.3,59.875506846191094,
H2,1,2,H,a,"[-0.2, 0.2]",,,,,,,,,,,,,,,,0,49,49,49,,,,,,,,,,,,,,,,,,,,,a,1,0.6817474000017683,,,,,,,,,,,,fjc,f,22,2024_Apr_15_1428,mian,2021.2.3,59.875506846191094,
e9,2,1,9.0,a,"[-0.2, -0.2]",,,,,,,,,,,,,,,,0,50,50,50,,,,,,,,,,,,,,,,,,,,,a,1,1.991293200000655,,,,,,,,,,,,fjc,f,22,2024_Apr_15_1428,mian,2021.2.3,59.875506846191094,
2G,2,2,2.0,l,"[0.2, -0.2]",,,,,,,,,,,,,,,,0,51,51,51,,,,,,,,,,,,,,,,,,,,,l,1,0.6710559999992256,,,,,,,,,,,,fjc,f,22,2024_Apr_15_1428,mian,2021.2.3,59.875506846191094,
4f,1,1,f,l,"[0.2, 0.2]",,,,,,,,,,,,,,,,0,52,52,52,,,,,,,,,,,,,,,,,,,,,l,1,1.0417143000013311,,,,,,,,,,,,fjc,f,22,2024_Apr_15_1428,mian,2021.2.3,59.875506846191094,
H6,1,2,H,a,"[-0.2, 0.2]",,,,,,,,,,,,,,,,0,53,53,53,,,,,,,,,,,,,,,,,,,,,a,1,0.7358901999978116,,,,,,,,,,,,fjc,f,22,2024_Apr_15_1428,mian,2021.2.3,59.875506846191094,
A4,2,1,4.0,l,"[-0.2, -0.2]",,,,,,,,,,,,,,,,0,54,54,54,,,,,,,,,,,,,,,,,,,,,l,1,1.7125861000022269,,,,,,,,,,,,fjc,f,22,2024_Apr_15_1428,mian,2021.2.3,59.875506846191094,
3F,2,2,3.0,a,"[0.2, -0.2]",,,,,,,,,,,,,,,,0,55,55,55,,,,,,,,,,,,,,,,,,,,,a,1,1.2136208999982045,,,,,,,,,,,,fjc,f,22,2024_Apr_15_1428,mian,2021.2.3,59.875506846191094,
7e,1,1,e,l,"[0.2, 0.2]",,,,,,,,,,,,,,,,0,56,56,56,,,,,,,,,,,,,,,,,,,,,l,1,2.4736779000013485,,,,,,,,,,,,fjc,f,22,2024_Apr_15_1428,mian,2021.2.3,59.875506846191094,
F9,1,2,F,a,"[-0.2, 0.2]",,,,,,,,,,,,,,,,0,57,57,57,,,,,,,,,,,,,,,,,,,,,a,1,0.7907309999973222,,,,,,,,,,,,fjc,f,22,2024_Apr_15_1428,mian,2021.2.3,59.875506846191094,
e2,2,1,2.0,l,"[-0.2, -0.2]",,,,,,,,,,,,,,,,0,58,58,58,,,,,,,,,,,,,,,,,,,,,l,1,2.2279540999988967,,,,,,,,,,,,fjc,f,22,2024_Apr_15_1428,mian,2021.2.3,59.875506846191094,
5F,2,2,5.0,a,"[0.2, -0.2]",,,,,,,,,,,,,,,,0,59,59,59,,,,,,,,,,,,,,,,,,,,,a,1,0.6311894999998913,,,,,,,,,,,,fjc,f,22,2024_Apr_15_1428,mian,2021.2.3,59.875506846191094,
f6,1,1,f,l,"[0.2, 0.2]",,,,,,,,,,,,,,,,0,60,60,60,,,,,,,,,,,,,,,,,,,,,l,1,2.05698140000095,,,,,,,,,,,,fjc,f,22,2024_Apr_15_1428,mian,2021.2.3,59.875506846191094,
7G,1,2,G,a,"[-0.2, 0.2]",,,,,,,,,,,,,,,,0,61,61,61,,,,,,,,,,,,,,,,,,,,,a,1,0.7279158999990614,,,,,,,,,,,,fjc,f,22,2024_Apr_15_1428,mian,2021.2.3,59.875506846191094,
e6,2,1,6.0,l,"[-0.2, -0.2]",,,,,,,,,,,,,,,,0,62,62,62,,,,,,,,,,,,,,,,,,,,,l,1,1.1343167999984871,,,,,,,,,,,,fjc,f,22,2024_Apr_15_1428,mian,2021.2.3,59.875506846191094,
3G,2,2,3.0,a,"[0.2, -0.2]",,,,,,,,,,,,,,,,0,63,63,63,,,,,,,,,,,,,,,,,,,,,a,1,1.844084100001055,,,,,,,,,,,,fjc,f,22,2024_Apr_15_1428,mian,2021.2.3,59.875506846191094,
5E,1,1,E,a,"[0.2, 0.2]",,,,,,,,,,,,,,,,0,64,64,64,,,,,,,,,,,,,,,,,,,,,a,1,1.6630373999978474,,,,,,,,,,,,fjc,f,22,2024_Apr_15_1428,mian,2021.2.3,59.875506846191094,
A6,1,2,A,a,"[-0.2, 0.2]",,,,,,,,,,,,,,,,0,65,65,65,,,,,,,,,,,,,,,,,,,,,a,1,0.6461543999976129,,,,,,,,,,,,fjc,f,22,2024_Apr_15_1428,mian,2021.2.3,59.875506846191094,
E3,2,1,3.0,a,"[-0.2, -0.2]",,,,,,,,,,,,,,,,0,66,66,66,,,,,,,,,,,,,,,,,,,,,a,1,0.8220954000025813,,,,,,,,,,,,fjc,f,22,2024_Apr_15_1428,mian,2021.2.3,59.875506846191094,
2f,2,2,2.0,l,"[0.2, -0.2]",,,,,,,,,,,,,,,,0,67,67,67,,,,,,,,,,,,,,,,,,,,,l,1,0.6598200000007637,,,,,,,,,,,,fjc,f,22,2024_Apr_15_1428,mian,2021.2.3,59.875506846191094,
g3,1,1,g,l,"[0.2, 0.2]",,,,,,,,,,,,,,,,0,68,68,68,,,,,,,,,,,,,,,,,,,,,l,1,1.8626193999989482,,,,,,,,,,,,fjc,f,22,2024_Apr_15_1428,mian,2021.2.3,59.875506846191094,
E8,1,2,E,a,"[-0.2, 0.2]",,,,,,,,,,,,,,,,0,69,69,69,,,,,,,,,,,,,,,,,,,,,a,1,0.6207997999990766,,,,,,,,,,,,fjc,f,22,2024_Apr_15_1428,mian,2021.2.3,59.875506846191094,
6g,2,1,6.0,l,"[-0.2, -0.2]",,,,,,,,,,,,,,,,0,70,70,70,,,,,,,,,,,,,,,,,,,,,l,1,1.4118902000009257,,,,,,,,,,,,fjc,f,22,2024_Apr_15_1428,mian,2021.2.3,59.875506846191094,
5H,2,2,5.0,a,"[0.2, -0.2]",,,,,,,,,,,,,,,,0,71,71,71,,,,,,,,,,,,,,,,,,,,,a,1,0.6877882000007958,,,,,,,,,,,,fjc,f,22,2024_Apr_15_1428,mian,2021.2.3,59.875506846191094,
4A,1,1,A,a,"[0.2, 0.2]",,,,,,,,,,,,,,,,0,72,72,72,,,,,,,,,,,,,,,,,,,,,a,1,0.8564084999998158,,,,,,,,,,,,fjc,f,22,2024_Apr_15_1428,mian,2021.2.3,59.875506846191094,
7F,1,2,F,a,"[-0.2, 0.2]",,,,,,,,,,,,,,,,0,73,73,73,,,,,,,,,,,,,,,,,,,,,a,1,0.526349100000516,,,,,,,,,,,,fjc,f,22,2024_Apr_15_1428,mian,2021.2.3,59.875506846191094,
6H,2,1,6.0,l,"[-0.2, -0.2]",,,,,,,,,,,,,,,,0,74,74,74,,,,,,,,,,,,,,,,,,,,,l,1,2.501074499999959,,,,,,,,,,,,fjc,f,22,2024_Apr_15_1428,mian,2021.2.3,59.875506846191094,
3a,2,2,3.0,a,"[0.2, -0.2]",,,,,,,,,,,,,,,,0,75,75,75,,,,,,,,,,,,,,,,,,,,,a,1,0.4719139000007999,,,,,,,,,,,,fjc,f,22,2024_Apr_15_1428,mian,2021.2.3,59.875506846191094,
9F,1,1,F,a,"[0.2, 0.2]",,,,,,,,,,,,,,,,0,76,76,76,,,,,,,,,,,,,,,,,,,,,a,1,1.5010292000006302,,,,,,,,,,,,fjc,f,22,2024_Apr_15_1428,mian,2021.2.3,59.875506846191094,
G7,1,2,G,a,"[-0.2, 0.2]",,,,,,,,,,,,,,,,0,77,77,77,,,,,,,,,,,,,,,,,,,,,a,1,1.3711995999983628,,,,,,,,,,,,fjc,f,22,2024_Apr_15_1428,mian,2021.2.3,59.875506846191094,
a6,2,1,6.0,l,"[-0.2, -0.2]",,,,,,,,,,,,,,,,0,78,78,78,,,,,,,,,,,,,,,,,,,,,l,1,1.3677070000012463,,,,,,,,,,,,fjc,f,22,2024_Apr_15_1428,mian,2021.2.3,59.875506846191094,
4h,2,2,4.0,l,"[0.2, -0.2]",,,,,,,,,,,,,,,,0,79,79,79,,,,,,,,,,,,,,,,,,,,,l,1,0.620118699996965,,,,,,,,,,,,fjc,f,22,2024_Apr_15_1428,mian,2021.2.3,59.875506846191094,
6A,1,1,A,a,"[0.2, 0.2]",,,,,,,,,,,,,,,,,,,,0,0,0,0,,,,,,,,,,,,,,,,,a,1,2.2401210000025458,,,,,,,,,,,,fjc,f,22,2024_Apr_15_1428,mian,2021.2.3,59.875506846191094,
4H,1,2,H,a,"[-0.2, 0.2]",,,,,,,,,,,,,,,,,,,,0,1,1,1,,,,,,,,,,,,,,,,,a,1,0.547458099998039,,,,,,,,,,,,fjc,f,22,2024_Apr_15_1428,mian,2021.2.3,59.875506846191094,
3H,2,1,3.0,a,"[-0.2, -0.2]",,,,,,,,,,,,,,,,,,,,0,2,2,2,,,,,,,,,,,,,,,,,l,0,0.7899770000003628,,,,,,,,,,,,fjc,f,22,2024_Apr_15_1428,mian,2021.2.3,59.875506846191094,
a9,2,2,9.0,a,"[0.2, -0.2]",,,,,,,,,,,,,,,,,,,,0,3,3,3,,,,,,,,,,,,,,,,,a,1,1.443004499997187,,,,,,,,,,,,fjc,f,22,2024_Apr_15_1428,mian,2021.2.3,59.875506846191094,
E7,1,1,E,a,"[0.2, 0.2]",,,,,,,,,,,,,,,,,,,,0,4,4,4,,,,,,,,,,,,,,,,,a,1,1.268569399999251,,,,,,,,,,,,fjc,f,22,2024_Apr_15_1428,mian,2021.2.3,59.875506846191094,
6h,1,2,h,l,"[-0.2, 0.2]",,,,,,,,,,,,,,,,,,,,0,5,5,5,,,,,,,,,,,,,,,,,l,1,0.6122777999989921,,,,,,,,,,,,fjc,f,22,2024_Apr_15_1428,mian,2021.2.3,59.875506846191094,
8A,2,1,8.0,l,"[-0.2, -0.2]",,,,,,,,,,,,,,,,,,,,0,6,6,6,,,,,,,,,,,,,,,,,a,0,1.4195782999995572,,,,,,,,,,,,fjc,f,22,2024_Apr_15_1428,mian,2021.2.3,59.875506846191094,
f5,2,2,5.0,a,"[0.2, -0.2]",,,,,,,,,,,,,,,,,,,,0,7,7,7,,,,,,,,,,,,,,,,,a,1,3.0180948000015633,,,,,,,,,,,,fjc,f,22,2024_Apr_15_1428,mian,2021.2.3,59.875506846191094,
2a,1,1,a,l,"[0.2, 0.2]",,,,,,,,,,,,,,,,,,,,0,8,8,8,,,,,,,,,,,,,,,,,l,1,3.856586199999583,,,,,,,,,,,,fjc,f,22,2024_Apr_15_1428,mian,2021.2.3,59.875506846191094,
F7,1,2,F,a,"[-0.2, 0.2]",,,,,,,,,,,,,,,,,,,,0,9,9,9,,,,,,,,,,,,,,,,,a,1,0.6301163999996788,,,,,,,,,,,,fjc,f,22,2024_Apr_15_1428,mian,2021.2.3,59.875506846191094,
h2,2,1,2.0,l,"[-0.2, -0.2]",,,,,,,,,,,,,,,,,,,,0,10,10,10,,,,,,,,,,,,,,,,,l,1,1.430362300001434,,,,,,,,,,,,fjc,f,22,2024_Apr_15_1428,mian,2021.2.3,59.875506846191094,
F5,2,2,5.0,a,"[0.2, -0.2]",,,,,,,,,,,,,,,,,,,,0,11,11,11,,,,,,,,,,,,,,,,,a,1,0.780515499998728,,,,,,,,,,,,fjc,f,22,2024_Apr_15_1428,mian,2021.2.3,59.875506846191094,
A9,1,1,A,a,"[0.2, 0.2]",,,,,,,,,,,,,,,,,,,,0,12,12,12,,,,,,,,,,,,,,,,,a,1,2.1781445999986317,,,,,,,,,,,,fjc,f,22,2024_Apr_15_1428,mian,2021.2.3,59.875506846191094,
3e,1,2,e,l,"[-0.2, 0.2]",,,,,,,,,,,,,,,,,,,,0,13,13,13,,,,,,,,,,,,,,,,,l,1,0.6226294999978563,,,,,,,,,,,,fjc,f,22,2024_Apr_15_1428,mian,2021.2.3,59.875506846191094,
f8,2,1,8.0,l,"[-0.2, -0.2]",,,,,,,,,,,,,,,,,,,,0,14,14,14,,,,,,,,,,,,,,,,,a,0,1.270753799999511,,,,,,,,,,,,fjc,f,22,2024_Apr_15_1428,mian,2021.2.3,59.875506846191094,
G2,2,2,2.0,l,"[0.2, -0.2]",,,,,,,,,,,,,,,,,,,,0,15,15,15,,,,,,,,,,,,,,,,,a,0,1.5614956999997958,,,,,,,,,,,,fjc,f,22,2024_Apr_15_1428,mian,2021.2.3,59.875506846191094,
F2,1,1,F,a,"[0.2, 0.2]",,,,,,,,,,,,,,,,,,,,0,16,16,16,,,,,,,,,,,,,,,,,a,1,1.8694606000026397,,,,,,,,,,,,fjc,f,22,2024_Apr_15_1428,mian,2021.2.3,59.875506846191094,
5e,1,2,e,l,"[-0.2, 0.2]",,,,,,,,,,,,,,,,,,,,0,17,17,17,,,,,,,,,,,,,,,,,l,1,0.7966553000005661,,,,,,,,,,,,fjc,f,22,2024_Apr_15_1428,mian,2021.2.3,59.875506846191094,
A3,2,1,3.0,a,"[-0.2, -0.2]",,,,,,,,,,,,,,,,,,,,0,18,18,18,,,,,,,,,,,,,,,,,a,1,2.0560925000027055,,,,,,,,,,,,fjc,f,22,2024_Apr_15_1428,mian,2021.2.3,59.875506846191094,
4g,2,2,4.0,l,"[0.2, -0.2]",,,,,,,,,,,,,,,,,,,,0,19,19,19,,,,,,,,,,,,,,,,,l,1,1.0422066999999515,,,,,,,,,,,,fjc,f,22,2024_Apr_15_1428,mian,2021.2.3,59.875506846191094,
h7,1,1,h,l,"[0.2, 0.2]",,,,,,,,,,,,,,,,,,,,0,20,20,20,,,,,,,,,,,,,,,,,l,1,0.905188900000212,,,,,,,,,,,,fjc,f,22,2024_Apr_15_1428,mian,2021.2.3,59.875506846191094,
3g,1,2,g,l,"[-0.2, 0.2]",,,,,,,,,,,,,,,,,,,,0,21,21,21,,,,,,,,,,,,,,,,,l,1,2.3355461999999534,,,,,,,,,,,,fjc,f,22,2024_Apr_15_1428,mian,2021.2.3,59.875506846191094,
8a,2,1,8.0,l,"[-0.2, -0.2]",,,,,,,,,,,,,,,,,,,,0,22,22,22,,,,,,,,,,,,,,,,,l,1,1.931615800000145,,,,,,,,,,,,fjc,f,22,2024_Apr_15_1428,mian,2021.2.3,59.875506846191094,
4E,2,2,4.0,l,"[0.2, -0.2]",,,,,,,,,,,,,,,,,,,,0,23,23,23,,,,,,,,,,,,,,,,,l,1,0.5957404000000679,,,,,,,,,,,,fjc,f,22,2024_Apr_15_1428,mian,2021.2.3,59.875506846191094,
E5,1,1,E,a,"[0.2, 0.2]",,,,,,,,,,,,,,,,,,,,0,24,24,24,,,,,,,,,,,,,,,,,a,1,0.938159799999994,,,,,,,,,,,,fjc,f,22,2024_Apr_15_1428,mian,2021.2.3,59.875506846191094,
g6,1,2,g,l,"[-0.2, 0.2]",,,,,,,,,,,,,,,,,,,,0,25,25,25,,,,,,,,,,,,,,,,,l,1,0.6520084000003408,,,,,,,,,,,,fjc,f,22,2024_Apr_15_1428,mian,2021.2.3,59.875506846191094,
2e,2,1,2.0,l,"[-0.2, -0.2]",,,,,,,,,,,,,,,,,,,,0,26,26,26,,,,,,,,,,,,,,,,,l,1,0.9176240999986476,,,,,,,,,,,,fjc,f,22,2024_Apr_15_1428,mian,2021.2.3,59.875506846191094,
h8,2,2,8.0,l,"[0.2, -0.2]",,,,,,,,,,,,,,,,,,,,0,27,27,27,,,,,,,,,,,,,,,,,l,1,0.6827183000023069,,,,,,,,,,,,fjc,f,22,2024_Apr_15_1428,mian,2021.2.3,59.875506846191094,
G6,1,1,G,a,"[0.2, 0.2]",,,,,,,,,,,,,,,,,,,,0,28,28,28,,,,,,,,,,,,,,,,,a,1,0.9211938000007649,,,,,,,,,,,,fjc,f,22,2024_Apr_15_1428,mian,2021.2.3,59.875506846191094,
a4,1,2,a,l,"[-0.2, 0.2]",,,,,,,,,,,,,,,,,,,,0,29,29,29,,,,,,,,,,,,,,,,,l,1,0.7474835000029998,,,,,,,,,,,,fjc,f,22,2024_Apr_15_1428,mian,2021.2.3,59.875506846191094,
9H,2,1,9.0,a,"[-0.2, -0.2]",,,,,,,,,,,,,,,,,,,,0,30,30,30,,,,,,,,,,,,,,,,,a,1,1.1613651999978174,,,,,,,,,,,,fjc,f,22,2024_Apr_15_1428,mian,2021.2.3,59.875506846191094,
7H,2,2,7.0,a,"[0.2, -0.2]",,,,,,,,,,,,,,,,,,,,0,31,31,31,,,,,,,,,,,,,,,,,a,1,0.6788043000015023,,,,,,,,,,,,fjc,f,22,2024_Apr_15_1428,mian,2021.2.3,59.875506846191094,
9f,1,1,f,l,"[0.2, 0.2]",,,,,,,,,,,,,,,,,,,,0,32,32,32,,,,,,,,,,,,,,,,,a,0,3.396873700003198,,,,,,,,,,,,fjc,f,22,2024_Apr_15_1428,mian,2021.2.3,59.875506846191094,
8E,1,2,E,a,"[-0.2, 0.2]",,,,,,,,,,,,,,,,,,,,0,33,33,33,,,,,,,,,,,,,,,,,a,1,1.241857400000299,,,,,,,,,,,,fjc,f,22,2024_Apr_15_1428,mian,2021.2.3,59.875506846191094,
A2,2,1,2.0,l,"[-0.2, -0.2]",,,,,,,,,,,,,,,,,,,,0,34,34,34,,,,,,,,,,,,,,,,,l,1,1.9229592999981833,,,,,,,,,,,,fjc,f,22,2024_Apr_15_1428,mian,2021.2.3,59.875506846191094,
H7,2,2,7.0,a,"[0.2, -0.2]",,,,,,,,,,,,,,,,,,,,0,35,35,35,,,,,,,,,,,,,,,,,a,1,0.6731466999990516,,,,,,,,,,,,fjc,f,22,2024_Apr_15_1428,mian,2021.2.3,59.875506846191094,
h9,1,1,h,l,"[0.2, 0.2]",,,,,,,,,,,,,,,,,,,,0,36,36,36,,,,,,,,,,,,,,,,,l,1,0.9678237999978592,,,,,,,,,,,,fjc,f,22,2024_Apr_15_1428,mian,2021.2.3,59.875506846191094,
8G,1,2,G,a,"[-0.2, 0.2]",,,,,,,,,,,,,,,,,,,,0,37,37,37,,,,,,,,,,,,,,,,,a,1,0.6977183999988483,,,,,,,,,,,,fjc,f,22,2024_Apr_15_1428,mian,2021.2.3,59.875506846191094,
H4,2,1,4.0,l,"[-0.2, -0.2]",,,,,,,,,,,,,,,,,,,,0,38,38,38,,,,,,,,,,,,,,,,,l,1,1.6276273999974364,,,,,,,,,,,,fjc,f,22,2024_Apr_15_1428,mian,2021.2.3,59.875506846191094,
A8,2,2,8.0,l,"[0.2, -0.2]",,,,,,,,,,,,,,,,,,,,0,39,39,39,,,,,,,,,,,,,,,,,l,1,0.6641287000020384,,,,,,,,,,,,fjc,f,22,2024_Apr_15_1428,mian,2021.2.3,59.875506846191094,
g7,1,1,g,l,"[0.2, 0.2]",,,,,,,,,,,,,,,,,,,,0,40,40,40,,,,,,,,,,,,,,,,,l,1,2.18714920000275,,,,,,,,,,,,fjc,f,22,2024_Apr_15_1428,mian,2021.2.3,59.875506846191094,
H9,1,2,H,a,"[-0.2, 0.2]",,,,,,,,,,,,,,,,,,,,0,41,41,41,,,,,,,,,,,,,,,,,a,1,2.7309795999972266,,,,,,,,,,,,fjc,f,22,2024_Apr_15_1428,mian,2021.2.3,59.875506846191094,
9E,2,1,9.0,a,"[-0.2, -0.2]",,,,,,,,,,,,,,,,,,,,0,42,42,42,,,,,,,,,,,,,,,,,a,1,2.2777618000000075,,,,,,,,,,,,fjc,f,22,2024_Apr_15_1428,mian,2021.2.3,59.875506846191094,
a5,2,2,5.0,a,"[0.2, -0.2]",,,,,,,,,,,,,,,,,,,,0,43,43,43,,,,,,,,,,,,,,,,,a,1,1.1621880999991845,,,,,,,,,,,,fjc,f,22,2024_Apr_15_1428,mian,2021.2.3,59.875506846191094,
3E,1,1,E,a,"[0.2, 0.2]",,,,,,,,,,,,,,,,,,,,0,44,44,44,,,,,,,,,,,,,,,,,a,1,1.083225999998831,,,,,,,,,,,,fjc,f,22,2024_Apr_15_1428,mian,2021.2.3,59.875506846191094,
6f,1,2,f,l,"[-0.2, 0.2]",,,,,,,,,,,,,,,,,,,,0,45,45,45,,,,,,,,,,,,,,,,,l,1,0.6717960000023595,,,,,,,,,,,,fjc,f,22,2024_Apr_15_1428,mian,2021.2.3,59.875506846191094,
g8,2,1,8.0,l,"[-0.2, -0.2]",,,,,,,,,,,,,,,,,,,,0,46,46,46,,,,,,,,,,,,,,,,,l,1,0.9659924999978102,,,,,,,,,,,,fjc,f,22,2024_Apr_15_1428,mian,2021.2.3,59.875506846191094,
4F,2,2,4.0,l,"[0.2, -0.2]",,,,,,,,,,,,,,,,,,,,0,47,47,47,,,,,,,,,,,,,,,,,l,1,0.8475060999990092,,,,,,,,,,,,fjc,f,22,2024_Apr_15_1428,mian,2021.2.3,59.875506846191094,
4a,1,1,a,l,"[0.2, 0.2]",,,,,,,,,,,,,,,,,,,,0,48,48,48,,,,,,,,,,,,,,,,,l,1,1.737488900002063,,,,,,,,,,,,fjc,f,22,2024_Apr_15_1428,mian,2021.2.3,59.875506846191094,
e3,1,2,e,l,"[-0.2, 0.2]",,,,,,,,,,,,,,,,,,,,0,49,49,49,,,,,,,,,,,,,,,,,l,1,1.0752012000011746,,,,,,,,,,,,fjc,f,22,2024_Apr_15_1428,mian,2021.2.3,59.875506846191094,
5g,2,1,5.0,a,"[-0.2, -0.2]",,,,,,,,,,,,,,,,,,,,0,50,50,50,,,,,,,,,,,,,,,,,a,1,0.6222703000021284,,,,,,,,,,,,fjc,f,22,2024_Apr_15_1428,mian,2021.2.3,59.875506846191094,
f4,2,2,4.0,l,"[0.2, -0.2]",,,,,,,,,,,,,,,,,,,,0,51,51,51,,,,,,,,,,,,,,,,,l,1,0.7558366000012029,,,,,,,,,,,,fjc,f,22,2024_Apr_15_1428,mian,2021.2.3,59.875506846191094,
6E,1,1,E,a,"[0.2, 0.2]",,,,,,,,,,,,,,,,,,,,0,52,52,52,,,,,,,,,,,,,,,,,a,1,1.8694770000001881,,,,,,,,,,,,fjc,f,22,2024_Apr_15_1428,mian,2021.2.3,59.875506846191094,
7A,1,2,A,a,"[-0.2, 0.2]",,,,,,,,,,,,,,,,,,,,0,53,53,53,,,,,,,,,,,,,,,,,a,1,0.5808730999997351,,,,,,,,,,,,fjc,f,22,2024_Apr_15_1428,mian,2021.2.3,59.875506846191094,
F4,2,1,4.0,l,"[-0.2, -0.2]",,,,,,,,,,,,,,,,,,,,0,54,54,54,,,,,,,,,,,,,,,,,l,1,0.9499728000009782,,,,,,,,,,,,fjc,f,22,2024_Apr_15_1428,mian,2021.2.3,59.875506846191094,
2g,2,2,2.0,l,"[0.2, -0.2]",,,,,,,,,,,,,,,,,,,,0,55,55,55,,,,,,,,,,,,,,,,,l,1,0.8982711999997264,,,,,,,,,,,,fjc,f,22,2024_Apr_15_1428,mian,2021.2.3,59.875506846191094,
7E,1,1,E,a,"[0.2, 0.2]",,,,,,,,,,,,,,,,,,,,0,56,56,56,,,,,,,,,,,,,,,,,a,1,2.3041965999982494,,,,,,,,,,,,fjc,f,22,2024_Apr_15_1428,mian,2021.2.3,59.875506846191094,
G4,1,2,G,a,"[-0.2, 0.2]",,,,,,,,,,,,,,,,,,,,0,57,57,57,,,,,,,,,,,,,,,,,a,1,0.5152520000010554,,,,,,,,,,,,fjc,f,22,2024_Apr_15_1428,mian,2021.2.3,59.875506846191094,
2F,2,1,2.0,l,"[-0.2, -0.2]",,,,,,,,,,,,,,,,,,,,0,58,58,58,,,,,,,,,,,,,,,,,l,1,0.8176798000022245,,,,,,,,,,,,fjc,f,22,2024_Apr_15_1428,mian,2021.2.3,59.875506846191094,
E9,2,2,9.0,a,"[0.2, -0.2]",,,,,,,,,,,,,,,,,,,,0,59,59,59,,,,,,,,,,,,,,,,,a,1,1.0926304000022355,,,,,,,,,,,,fjc,f,22,2024_Apr_15_1428,mian,2021.2.3,59.875506846191094,
5f,1,1,f,l,"[0.2, 0.2]",,,,,,,,,,,,,,,,,,,,0,60,60,60,,,,,,,,,,,,,,,,,l,1,2.5628152999997837,,,,,,,,,,,,fjc,f,22,2024_Apr_15_1428,mian,2021.2.3,59.875506846191094,
e7,1,2,e,l,"[-0.2, 0.2]",,,,,,,,,,,,,,,,,,,,0,61,61,61,,,,,,,,,,,,,,,,,l,1,0.8419288000004599,,,,,,,,,,,,fjc,f,22,2024_Apr_15_1428,mian,2021.2.3,59.875506846191094,
f2,2,1,2.0,l,"[-0.2, -0.2]",,,,,,,,,,,,,,,,,,,,0,62,62,62,,,,,,,,,,,,,,,,,a,0,1.5570660999983374,,,,,,,,,,,,fjc,f,22,2024_Apr_15_1428,mian,2021.2.3,59.875506846191094,
G9,2,2,9.0,a,"[0.2, -0.2]",,,,,,,,,,,,,,,,,,,,0,63,63,63,,,,,,,,,,,,,,,,,a,1,0.9542900000014924,,,,,,,,,,,,fjc,f,22,2024_Apr_15_1428,mian,2021.2.3,59.875506846191094,
7g,1,1,g,l,"[0.2, 0.2]",,,,,,,,,,,,,,,,,,,,0,64,64,64,,,,,,,,,,,,,,,,,l,1,0.8977210999983072,,,,,,,,,,,,fjc,f,22,2024_Apr_15_1428,mian,2021.2.3,59.875506846191094,
F8,1,2,F,a,"[-0.2, 0.2]",,,,,,,,,,,,,,,,,,,,0,65,65,65,,,,,,,,,,,,,,,,,a,1,1.2237655999997514,,,,,,,,,,,,fjc,f,22,2024_Apr_15_1428,mian,2021.2.3,59.875506846191094,
A7,2,1,7.0,a,"[-0.2, -0.2]",,,,,,,,,,,,,,,,,,,,0,66,66,66,,,,,,,,,,,,,,,,,a,1,1.222034900001745,,,,,,,,,,,,fjc,f,22,2024_Apr_15_1428,mian,2021.2.3,59.875506846191094,
4G,2,2,4.0,l,"[0.2, -0.2]",,,,,,,,,,,,,,,,,,,,0,67,67,67,,,,,,,,,,,,,,,,,l,1,0.7382252000024891,,,,,,,,,,,,fjc,f,22,2024_Apr_15_1428,mian,2021.2.3,59.875506846191094,
g2,1,1,g,l,"[0.2, 0.2]",,,,,,,,,,,,,,,,,,,,0,68,68,68,,,,,,,,,,,,,,,,,l,1,3.3537111000005098,,,,,,,,,,,,fjc,f,22,2024_Apr_15_1428,mian,2021.2.3,59.875506846191094,
g4,1,2,g,l,"[-0.2, 0.2]",,,,,,,,,,,,,,,,,,,,0,69,69,69,,,,,,,,,,,,,,,,,l,1,1.056989100001374,,,,,,,,,,,,fjc,f,22,2024_Apr_15_1428,mian,2021.2.3,59.875506846191094,
7a,2,1,7.0,a,"[-0.2, -0.2]",,,,,,,,,,,,,,,,,,,,0,70,70,70,,,,,,,,,,,,,,,,,a,1,1.5412207999979728,,,,,,,,,,,,fjc,f,22,2024_Apr_15_1428,mian,2021.2.3,59.875506846191094,
8e,2,2,8.0,l,"[0.2, -0.2]",,,,,,,,,,,,,,,,,,,,0,71,71,71,,,,,,,,,,,,,,,,,l,1,0.8523606000017026,,,,,,,,,,,,fjc,f,22,2024_Apr_15_1428,mian,2021.2.3,59.875506846191094,
h4,1,1,h,l,"[0.2, 0.2]",,,,,,,,,,,,,,,,,,,,0,72,72,72,,,,,,,,,,,,,,,,,l,1,2.0943884999978764,,,,,,,,,,,,fjc,f,22,2024_Apr_15_1428,mian,2021.2.3,59.875506846191094,
G8,1,2,G,a,"[-0.2, 0.2]",,,,,,,,,,,,,,,,,,,,0,73,73,73,,,,,,,,,,,,,,,,,a,1,0.8417885000017122,,,,,,,,,,,,fjc,f,22,2024_Apr_15_1428,mian,2021.2.3,59.875506846191094,
6F,2,1,6.0,l,"[-0.2, -0.2]",,,,,,,,,,,,,,,,,,,,0,74,74,74,,,,,,,,,,,,,,,,,l,1,1.2414174000005005,,,,,,,,,,,,fjc,f,22,2024_Apr_15_1428,mian,2021.2.3,59.875506846191094,
g5,2,2,5.0,a,"[0.2, -0.2]",,,,,,,,,,,,,,,,,,,,0,75,75,75,,,,,,,,,,,,,,,,,a,1,0.8327193000004627,,,,,,,,,,,,fjc,f,22,2024_Apr_15_1428,mian,2021.2.3,59.875506846191094,
G5,1,1,G,a,"[0.2, 0.2]",,,,,,,,,,,,,,,,,,,,0,76,76,76,,,,,,,,,,,,,,,,,a,1,1.1007800000006682,,,,,,,,,,,,fjc,f,22,2024_Apr_15_1428,mian,2021.2.3,59.875506846191094,
h5,1,2,h,l,"[-0.2, 0.2]",,,,,,,,,,,,,,,,,,,,0,77,77,77,,,,,,,,,,,,,,,,,l,1,0.6855665000002773,,,,,,,,,,,,fjc,f,22,2024_Apr_15_1428,mian,2021.2.3,59.875506846191094,
9G,2,1,9.0,a,"[-0.2, -0.2]",,,,,,,,,,,,,,,,,,,,0,78,78,78,,,,,,,,,,,,,,,,,a,1,2.170880699999543,,,,,,,,,,,,fjc,f,22,2024_Apr_15_1428,mian,2021.2.3,59.875506846191094,
F3,2,2,3.0,a,"[0.2, -0.2]",,,,,,,,,,,,,,,,,,,,0,79,79,79,,,,,,,,,,,,,,,,,a,1,0.7774138999993738,,,,,,,,,,,,fjc,f,22,2024_Apr_15_1428,mian,2021.2.3,59.875506846191094,
,,,,,,1,1,pic/flanker5.png,pic/flanker3.png,a,k,,,,,,,,,,,,,,,,,,0,0,0,0,0,0,0,4,,,,,,,,,,,,535.8706724000003,None,534.6817527999992,535.8873491000013,None,0,赞成,None,0,,,fjc,f,22,2024_Apr_15_1428,mian,2021.2.3,59.875506846191094,
,,,,,,0,1,pic/flanker5.png,pic/flanker1.png,s,k,,,,,,,,,,,,,,,,,,0,0,0,0,0,1,1,0,,,,,,,,,,,,541.5706867000008,None,540.3876009000014,541.587486299999,s,1,享受,k,1,0.565491600002133,1.091590999996697,fjc,f,22,2024_Apr_15_1428,mian,2021.2.3,59.875506846191094,
,,,,,,0,0,pic/flanker5.png,pic/flanker1.png,s,l,,,,,,,,,,,,,,,,,,0,0,0,0,0,2,2,3,,,,,,,,,,,,545.1374806999993,None,543.954063600002,545.1540999000026,s,1,伤心,l,1,0.45037339999908,0.8603207999985898,fjc,f,22,2024_Apr_15_1428,mian,2021.2.3,59.875506846191094,
,,,,,,1,1,pic/flanker6.png,pic/flanker4.png,s,k,,,,,,,,,,,,,,,,,,0,0,0,0,0,3,3,6,,,,,,,,,,,,548.5208020999999,None,547.3375945000007,548.5374474000018,s,1,清秀,k,1,0.7678339000012784,0.9638053000016953,fjc,f,22,2024_Apr_15_1428,mian,2021.2.3,59.875506846191094,
,,,,,,1,0,pic/flanker6.png,pic/flanker4.png,s,l,,,,,,,,,,,,,,,,,,0,0,0,0,0,4,4,5,,,,,,,,,,,,552.2040154999995,None,551.0207933999991,552.2207612999991,s,1,冷笑,l,1,0.6857938000030117,1.0386785000009695,fjc,f,22,2024_Apr_15_1428,mian,2021.2.3,59.875506846191094,
,,,,,,1,0,pic/flanker5.png,pic/flanker3.png,a,l,,,,,,,,,,,,,,,,,,0,0,0,0,0,5,5,7,,,,,,,,,,,,555.8875904000015,None,554.7037755000019,555.9042344000009,a,1,排斥,l,1,0.6306955999971251,1.4854693000015686,fjc,f,22,2024_Apr_15_1428,mian,2021.2.3,59.875506846191094,
,,,,,,0,0,pic/flanker6.png,pic/flanker2.png,a,l,,,,,,,,,,,,,,,,,,0,0,0,0,0,6,6,1,,,,,,,,,,,,559.8710973000016,None,558.6873325000015,559.8878122999995,a,1,沮丧,l,1,0.577024000001984,1.1735846000010497,fjc,f,22,2024_Apr_15_1428,mian,2021.2.3,59.875506846191094,
,,,,,,0,1,pic/flanker6.png,pic/flanker2.png,a,k,,,,,,,,,,,,,,,,,,0,0,0,0,0,7,7,2,,,,,,,,,,,,563.4710795999999,None,562.2873323000022,563.4872751000003,a,1,吉祥,k,1,0.5581429000012577,1.2111686999996891,fjc,f,22,2024_Apr_15_1428,mian,2021.2.3,59.875506846191094,
,,,,,,,,,,,,,,,,,,,,,,,,,,,,,0,0,0,0,,,,,,,,,,,,,,,,,,,,,,,,,,,fjc,f,22,2024_Apr_15_1428,mian,2021.2.3,59.875506846191094,
,,,,,,0,0,pic/flanker6.png,pic/flanker2.png,a,l,pic/AffRest1.png,,,,,,,,,,,,,,,,,,,,,,,,,0,0,0,0,0,0,0,17,,,,577.9541057000024,None,576.7539271000023,577.9541057000024,a,1,鲁莽,l,1,0.6849607999974978,0.8952504999979283,fjc,f,22,2024_Apr_15_1428,mian,2021.2.3,59.875506846191094,
,,,,,,1,1,pic/flanker6.png,pic/flanker4.png,s,k,pic/AffRest1.png,,,,,,,,,,,,,,,,,,,,,,,,,0,0,0,0,0,1,1,30,,,,581.554143100002,None,580.3707476000018,581.5707954999998,s,1,舒畅,k,1,0.5450764999986859,1.1729709999999614,fjc,f,22,2024_Apr_15_1428,mian,2021.2.3,59.875506846191094,
,,,,,,1,0,pic/flanker5.png,pic/flanker3.png,a,l,pic/AffRest1.png,,,,,,,,,,,,,,,,,,,,,,,,,0,0,0,0,0,2,2,47,,,,585.1539955000007,None,583.9706552000025,585.170839800001,a,1,别扭,l,1,0.6477005000015197,1.0615274000010686,fjc,f,22,2024_Apr_15_1428,mian,2021.2.3,59.875506846191094,
,,,,,,1,0,pic/flanker6.png,pic/flanker4.png,s,l,pic/AffRest1.png,,,,,,,,,,,,,,,,,,,,,,,,,0,0,0,0,0,3,3,21,,,,588.8375175000001,None,587.6535499999991,588.8541098999995,s,1,心慌,l,1,0.6441674000016064,0.8764942000016163,fjc,f,22,2024_Apr_15_1428,mian,2021.2.3,59.875506846191094,
,,,,,,1,0,pic/flanker6.png,pic/flanker4.png,s,l,pic/AffRest1.png,,,,,,,,,,,,,,,,,,,,,,,,,0,0,0,0,0,4,4,29,,,,592.3541743000023,None,591.1706443000003,592.3706899999997,s,1,胡涂,l,1,0.6825621999996656,0.9824943999992684,fjc,f,22,2024_Apr_15_1428,mian,2021.2.3,59.875506846191094,
,,,,,,0,1,pic/flanker5.png,pic/flanker1.png,s,k,pic/AffRest1.png,,,,,,,,,,,,,,,,,,,,,,,,,0,0,0,0,0,5,5,8,,,,596.087331900002,None,594.9041314999995,596.1040912000026,s,1,旺盛,k,1,0.47370519999822136,0.7778091000000131,fjc,f,22,2024_Apr_15_1428,mian,2021.2.3,59.875506846191094,
,,,,,,0,0,pic/flanker5.png,pic/flanker1.png,s,l,pic/AffRest1.png,,,,,,,,,,,,,,,,,,,,,,,,,0,0,0,0,0,6,6,67,,,,599.3705813000015,None,598.187482100002,599.3875368000008,s,1,杂乱,l,1,0.43761950000043726,1.0033403000015824,fjc,f,22,2024_Apr_15_1428,mian,2021.2.3,59.875506846191094,
,,,,,,0,1,pic/flanker6.png,pic/flanker2.png,a,k,pic/AffRest1.png,,,,,,,,,,,,,,,,,,,,,,,,,0,0,0,0,0,7,7,42,,,,602.8207750000001,None,601.6374429999996,602.8373185000019,a,1,顽强,k,1,0.44189969999933965,1.0385370000003604,fjc,f,22,2024_Apr_15_1428,mian,2021.2.3,59.875506846191094,
,,,,,,1,1,pic/flanker5.png,pic/flanker3.png,a,k,pic/AffRest1.png,,,,,,,,,,,,,,,,,,,,,,,,,0,0,0,0,0,8,8,36,,,,606.1541517000005,None,604.9709370000019,606.1707610000012,a,1,丰满,k,1,0.9166375999993761,0.87118289999853,fjc,f,22,2024_Apr_15_1428,mian,2021.2.3,59.875506846191094,
,,,,,,1,0,pic/flanker5.png,pic/flanker3.png,a,l,pic/AffRest1.png,,,,,,,,,,,,,,,,,,,,,,,,,0,0,0,0,0,9,9,55,,,,609.953524200002,None,608.7702482000022,609.9709595000022,a,1,怀疑,l,1,0.8984228999979678,0.8377393000009761,fjc,f,22,2024_Apr_15_1428,mian,2021.2.3,59.875506846191094,
,,,,,,1,0,pic/flanker5.png,pic/flanker3.png,a,l,pic/AffRest1.png,,,,,,,,,,,,,,,,,,,,,,,,,0,0,0,0,0,10,10,63,,,,613.6374625999997,None,612.4539609000021,613.6538796000023,a,1,穷苦,l,1,0.6548365999988164,1.7842759999984992,fjc,f,22,2024_Apr_15_1428,mian,2021.2.3,59.875506846191094,
,,,,,,0,1,pic/flanker6.png,pic/flanker2.png,a,k,pic/AffRest1.png,,,,,,,,,,,,,,,,,,,,,,,,,0,0,0,0,0,11,11,18,,,,618.0206816999998,None,616.8372767000001,618.0371941000012,a,1,清秀,k,1,0.49716759999864735,1.396375000000262,fjc,f,22,2024_Apr_15_1428,mian,2021.2.3,59.875506846191094,
,,,,,,0,0,pic/flanker6.png,pic/flanker2.png,a,l,pic/AffRest1.png,,,,,,,,,,,,,,,,,,,,,,,,,0,0,0,0,0,12,12,41,,,,621.9538876000006,None,620.7701706000007,621.970393399999,a,1,忧虑,l,1,0.44639749999987544,2.151240200000757,fjc,f,22,2024_Apr_15_1428,mian,2021.2.3,59.875506846191094,
,,,,,,1,0,pic/flanker6.png,pic/flanker4.png,s,l,pic/AffRest1.png,,,,,,,,,,,,,,,,,,,,,,,,,0,0,0,0,0,13,13,13,,,,626.5873599000006,None,625.4036720000004,626.6035489000024,s,1,排斥,l,1,0.5833152999985032,1.6489016999985324,fjc,f,22,2024_Apr_15_1428,mian,2021.2.3,59.875506846191094,
,,,,,,1,1,pic/flanker5.png,pic/flanker3.png,a,k,pic/AffRest1.png,,,,,,,,,,,,,,,,,,,,,,,,,0,0,0,0,0,14,14,4,,,,630.7706932000001,None,629.5874356000022,630.7873851000004,a,1,留恋,k,1,0.7716510999998718,0.7488001000019722,fjc,f,22,2024_Apr_15_1428,mian,2021.2.3,59.875506846191094,
,,,,,,0,0,pic/flanker6.png,pic/flanker2.png,a,l,pic/AffRest1.png,,,,,,,,,,,,,,,,,,,,,,,,,0,0,0,0,0,15,15,57,,,,634.1701657000012,None,632.9872868999992,634.1866811,a,1,落后,k,0,0.38092369999867515,0.9244002999985241,fjc,f,22,2024_Apr_15_1428,mian,2021.2.3,59.875506846191094,
,,,,,,0,0,pic/flanker5.png,pic/flanker1.png,s,l,pic/AffRest1.png,,,,,,,,,,,,,,,,,,,,,,,,,0,0,0,0,0,16,16,3,,,,637.3708234000005,None,636.187157700002,637.3874419000022,s,1,焦躁,l,1,0.4845874000020558,1.454570000001695,fjc,f,22,2024_Apr_15_1428,mian,2021.2.3,59.875506846191094,
,,,,,,1,0,pic/flanker5.png,pic/flanker3.png,a,l,pic/AffRest1.png,,,,,,,,,,,,,,,,,,,,,,,,,0,0,0,0,0,17,17,39,,,,641.2040056000005,None,640.0205806000013,641.2207636000021,a,1,轻率,l,1,0.5009401999996044,1.6991573000013886,fjc,f,22,2024_Apr_15_1428,mian,2021.2.3,59.875506846191094,
,,,,,,1,1,pic/flanker6.png,pic/flanker4.png,s,k,pic/AffRest1.png,,,,,,,,,,,,,,,,,,,,,,,,,0,0,0,0,0,18,18,54,,,,645.3207092000011,None,644.1372807000007,645.337394000002,s,1,圣洁,k,1,0.5976566000026651,1.0702500000006694,fjc,f,22,2024_Apr_15_1428,mian,2021.2.3,59.875506846191094,
,,,,,,0,1,pic/flanker6.png,pic/flanker2.png,a,k,pic/AffRest1.png,,,,,,,,,,,,,,,,,,,,,,,,,0,0,0,0,0,19,19,74,,,,649.0039174000012,None,647.8206653000016,649.0205387000024,a,1,吉祥,k,1,0.42191040000034263,0.7372135000005073,fjc,f,22,2024_Apr_15_1428,mian,2021.2.3,59.875506846191094,
,,,,,,1,0,pic/flanker6.png,pic/flanker4.png,s,l,pic/AffRest1.png,,,,,,,,,,,,,,,,,,,,,,,,,0,0,0,0,0,20,20,69,,,,652.204013300001,None,651.0205274,652.2207366000002,s,1,嘲笑,l,1,0.6851382999993803,1.1299517000006745,fjc,f,22,2024_Apr_15_1428,mian,2021.2.3,59.875506846191094,
,,,,,,0,0,pic/flanker6.png,pic/flanker2.png,a,l,pic/AffRest1.png,,,,,,,,,,,,,,,,,,,,,,,,,0,0,0,0,0,21,21,33,,,,656.0040826000004,None,654.8209229999993,656.020621300002,a,1,懒惰,l,1,0.41954550000082236,0.864580900000874,fjc,f,22,2024_Apr_15_1428,mian,2021.2.3,59.875506846191094,
,,,,,,0,0,pic/flanker5.png,pic/flanker1.png,s,l,pic/AffRest1.png,,,,,,,,,,,,,,,,,,,,,,,,,0,0,0,0,0,22,22,19,,,,659.2204826000016,None,658.037422100002,659.2373891999996,s,1,郁闷,l,1,0.4652319000015268,0.8898583000009239,fjc,f,22,2024_Apr_15_1428,mian,2021.2.3,59.875506846191094,
,,,,,,0,1,pic/flanker5.png,pic/flanker1.png,s,k,pic/AffRest1.png,,,,,,,,,,,,,,,,,,,,,,,,,0,0,0,0,0,23,23,64,,,,662.5707971000011,None,661.3872789000015,662.5873742000003,s,1,诚恳,k,1,0.4938259000009566,0.718998799999099,fjc,f,22,2024_Apr_15_1428,mian,2021.2.3,59.875506846191094,
,,,,,,0,1,pic/flanker6.png,pic/flanker2.png,a,k,pic/AffRest1.png,,,,,,,,,,,,,,,,,,,,,,,,,0,0,0,0,0,24,24,66,,,,665.7203451000023,None,664.5373608000009,665.7367732000021,a,1,奉献,k,1,0.43129729999782285,0.7001933000028657,fjc,f,22,2024_Apr_15_1428,mian,2021.2.3,59.875506846191094,
,,,,,,0,1,pic/flanker6.png,pic/flanker2.png,a,k,pic/AffRest1.png,,,,,,,,,,,,,,,,,,,,,,,,,0,0,0,0,0,25,25,10,,,,668.6872464000007,None,667.5040028000003,668.7040273999992,a,1,鲜艳,k,1,0.3485099999998056,0.7616940000007162,fjc,f,22,2024_Apr_15_1428,mian,2021.2.3,59.875506846191094,
,,,,,,0,1,pic/flanker5.png,pic/flanker1.png,s,k,pic/AffRest1.png,,,,,,,,,,,,,,,,,,,,,,,,,0,0,0,0,0,26,26,24,,,,671.7034405000013,None,670.5199328000017,671.7201028000018,s,1,优雅,k,1,0.501294699999562,0.7083181999987573,fjc,f,22,2024_Apr_15_1428,mian,2021.2.3,59.875506846191094,
,,,,,,0,1,pic/flanker6.png,pic/flanker2.png,a,k,pic/AffRest1.png,,,,,,,,,,,,,,,,,,,,,,,,,0,0,0,0,0,27,27,26,,,,674.7539450000004,None,673.5704695000022,674.7701739000004,a,1,赞成,k,1,0.38230839999960153,0.6983117000017955,fjc,f,22,2024_Apr_15_1428,mian,2021.2.3,59.875506846191094,
,,,,,,1,1,pic/flanker6.png,pic/flanker4.png,s,k,pic/AffRest1.png,,,,,,,,,,,,,,,,,,,,,,,,,0,0,0,0,0,28,28,46,,,,677.8374015000009,None,676.6540468999992,677.8541053000008,s,1,爽朗,k,1,0.5999163999986195,0.8774705999967409,fjc,f,22,2024_Apr_15_1428,mian,2021.2.3,59.875506846191094,
,,,,,,1,1,pic/flanker5.png,pic/flanker3.png,a,k,pic/AffRest1.png,,,,,,,,,,,,,,,,,,,,,,,,,0,0,0,0,0,29,29,52,,,,681.3540251000013,None,680.1705363000001,681.3707527000006,a,1,瑰丽,k,1,0.5591783999989275,0.861941700000898,fjc,f,22,2024_Apr_15_1428,mian,2021.2.3,59.875506846191094,
,,,,,,0,1,pic/flanker5.png,pic/flanker1.png,s,k,pic/AffRest1.png,,,,,,,,,,,,,,,,,,,,,,,,,0,0,0,0,0,30,30,72,,,,684.7543795999991,None,683.5705101999993,684.7704597000011,s,1,充裕,k,1,0.33995599999980186,0.9733650999987731,fjc,f,22,2024_Apr_15_1428,mian,2021.2.3,59.875506846191094,
,,,,,,1,1,pic/flanker6.png,pic/flanker4.png,s,k,pic/AffRest1.png,,,,,,,,,,,,,,,,,,,,,,,,,0,0,0,0,0,31,31,22,,,,688.054145099999,None,686.870554699999,688.0706767000011,s,1,精致,k,1,0.5383231000014348,0.7058236000011675,fjc,f,22,2024_Apr_15_1428,mian,2021.2.3,59.875506846191094,
,,,,,,1,0,pic/flanker5.png,pic/flanker3.png,a,l,pic/AffRest1.png,,,,,,,,,,,,,,,,,,,,,,,,,0,0,0,0,0,32,32,31,,,,691.1872573,None,690.0039053,691.2038871000004,a,1,冷笑,l,1,0.5251840999990236,0.7892276999991736,fjc,f,22,2024_Apr_15_1428,mian,2021.2.3,59.875506846191094,
,,,,,,1,1,pic/flanker5.png,pic/flanker3.png,a,k,pic/AffRest1.png,,,,,,,,,,,,,,,,,,,,,,,,,0,0,0,0,0,33,33,44,,,,694.4038997000025,None,693.2206834999997,694.4207208000007,a,1,雄厚,k,1,0.5592198000013013,1.063203900001099,fjc,f,22,2024_Apr_15_1428,mian,2021.2.3,59.875506846191094,
,,,,,,1,1,pic/flanker5.png,pic/flanker3.png,a,k,pic/AffRest1.png,,,,,,,,,,,,,,,,,,,,,,,,,0,0,0,0,0,34,34,28,,,,698.0539630999992,None,696.8706540000021,698.0704268000009,a,1,卓越,k,1,0.6291937999994843,0.7007526000015787,fjc,f,22,2024_Apr_15_1428,mian,2021.2.3,59.875506846191094,
,,,,,,0,0,pic/flanker5.png,pic/flanker1.png,s,l,pic/AffRest1.png,,,,,,,,,,,,,,,,,,,,,,,,,0,0,0,0,0,35,35,27,,,,701.4207607999997,None,700.2372954999992,701.4372139000006,s,1,孤单,l,1,0.45202639999843086,0.7000330999981088,fjc,f,22,2024_Apr_15_1428,mian,2021.2.3,59.875506846191094,
,,,,,,0,1,pic/flanker6.png,pic/flanker2.png,a,k,pic/AffRest1.png,,,,,,,,,,,,,,,,,,,,,,,,,0,0,0,0,0,36,36,58,,,,704.6373749000013,None,703.4539145000017,704.6540451000001,a,1,珍藏,k,1,0.40196459999788203,0.9849351000011666,fjc,f,22,2024_Apr_15_1428,mian,2021.2.3,59.875506846191094,
,,,,,,1,1,pic/flanker6.png,pic/flanker4.png,s,k,pic/AffRest1.png,,,,,,,,,,,,,,,,,,,,,,,,,0,0,0,0,0,37,37,6,,,,708.0371861000021,None,706.8538913000011,708.054038000002,s,1,富足,k,1,0.7777021000001696,1.1287299000032363,fjc,f,22,2024_Apr_15_1428,mian,2021.2.3,59.875506846191094,
,,,,,,0,1,pic/flanker5.png,pic/flanker1.png,s,k,pic/AffRest1.png,,,,,,,,,,,,,,,,,,,,,,,,,0,0,0,0,0,38,38,48,,,,711.7706701000025,None,710.5870558000024,711.7872129000025,s,1,敬佩,k,1,0.4981048000008741,0.6408934999999474,fjc,f,22,2024_Apr_15_1428,mian,2021.2.3,59.875506846191094,
,,,,,,0,1,pic/flanker6.png,pic/flanker2.png,a,k,pic/AffRest1.png,,,,,,,,,,,,,,,,,,,,,,,,,0,0,0,0,0,39,39,50,,,,714.7372701000022,None,713.5540148,714.7538830000012,None,0,振作,k,1,,0.8095393999974476,fjc,f,22,2024_Apr_15_1428,mian,2021.2.3,59.875506846191094,
,,,,,,1,1,pic/flanker5.png,pic/flanker3.png,a,k,pic/AffRest1.png,,,,,,,,,,,,,,,,,,,,,,,,,0,0,0,0,0,40,40,76,,,,718.9705624000017,None,717.7872136000005,718.9873040999992,a,1,如愿,k,1,0.5345930999974371,0.6677597000016249,fjc,f,22,2024_Apr_15_1428,mian,2021.2.3,59.875506846191094,
,,,,,,0,0,pic/flanker6.png,pic/flanker2.png,a,l,pic/AffRest1.png,,,,,,,,,,,,,,,,,,,,,,,,,0,0,0,0,0,41,41,1,,,,722.0705791,None,720.8872555000016,722.0871810999997,a,1,伤心,l,1,0.3963136999991548,0.6979897999990499,fjc,f,22,2024_Apr_15_1428,mian,2021.2.3,59.875506846191094,
,,,,,,1,0,pic/flanker6.png,pic/flanker4.png,s,l,pic/AffRest1.png,,,,,,,,,,,,,,,,,,,,,,,,,0,0,0,0,0,42,42,37,,,,725.1372221999991,None,723.953904500002,725.1538521000002,s,1,消沉,l,1,0.6496076000003086,1.3519502999988617,fjc,f,22,2024_Apr_15_1428,mian,2021.2.3,59.875506846191094,
,,,,,,0,1,pic/flanker5.png,pic/flanker1.png,s,k,pic/AffRest1.png,,,,,,,,,,,,,,,,,,,,,,,,,0,0,0,0,0,43,43,56,,,,729.0871583000007,None,727.9034649999994,729.1039813999996,s,1,正直,k,1,0.43390849999923375,0.6963648999990255,fjc,f,22,2024_Apr_15_1428,mian,2021.2.3,59.875506846191094,
,,,,,,0,0,pic/flanker5.png,pic/flanker1.png,s,l,pic/AffRest1.png,,,,,,,,,,,,,,,,,,,,,,,,,0,0,0,0,0,44,44,43,,,,732.2706631000001,None,731.0872624000003,732.2873390000022,s,1,撒谎,l,1,0.5256196000009368,0.7933143000009295,fjc,f,22,2024_Apr_15_1428,mian,2021.2.3,59.875506846191094,
,,,,,,1,0,pic/flanker5.png,pic/flanker3.png,a,l,pic/AffRest1.png,,,,,,,,,,,,,,,,,,,,,,,,,0,0,0,0,0,45,45,15,,,,735.6204445000003,None,734.4372786999993,735.6372134000012,a,1,禁止,l,1,0.6749204999978247,0.8074029999988852,fjc,f,22,2024_Apr_15_1428,mian,2021.2.3,59.875506846191094,
,,,,,,1,0,pic/flanker6.png,pic/flanker4.png,s,l,pic/AffRest1.png,,,,,,,,,,,,,,,,,,,,,,,,,0,0,0,0,0,46,46,53,,,,738.9538794,None,737.7703724999992,738.9705670000003,s,1,烦恼,k,0,0.49752470000021276,0.8761488999989524,fjc,f,22,2024_Apr_15_1428,mian,2021.2.3,59.875506846191094,
,,,,,,0,0,pic/flanker5.png,pic/flanker1.png,s,l,pic/AffRest1.png,,,,,,,,,,,,,,,,,,,,,,,,,0,0,0,0,0,47,47,35,,,,742.3698967000018,None,741.1871231000005,742.3872296000009,s,1,处罚,k,0,0.43882769999981974,0.946779099998821,fjc,f,22,2024_Apr_15_1428,mian,2021.2.3,59.875506846191094,
,,,,,,1,0,pic/flanker5.png,pic/flanker3.png,a,l,pic/AffRest1.png,,,,,,,,,,,,,,,,,,,,,,,,,0,0,0,0,0,48,48,23,,,,745.8203991000009,None,744.6373664999992,745.8370456000011,a,1,争吵,l,1,0.6152315999970597,0.8907345999978133,fjc,f,22,2024_Apr_15_1428,mian,2021.2.3,59.875506846191094,
,,,,,,1,1,pic/flanker6.png,pic/flanker4.png,s,k,pic/AffRest1.png,,,,,,,,,,,,,,,,,,,,,,,,,0,0,0,0,0,49,49,62,,,,749.3203657000013,None,748.1372493000017,749.3371542000023,s,1,畅销,k,1,0.5385729999979958,0.9811638999999559,fjc,f,22,2024_Apr_15_1428,mian,2021.2.3,59.875506846191094,
,,,,,,1,0,pic/flanker5.png,pic/flanker3.png,a,l,pic/AffRest1.png,,,,,,,,,,,,,,,,,,,,,,,,,0,0,0,0,0,50,50,79,,,,752.8704187000003,None,751.6872194000025,752.8872723999993,a,1,慌忙,l,1,0.5877510999998776,0.7537415000006149,fjc,f,22,2024_Apr_15_1428,mian,2021.2.3,59.875506846191094,
,,,,,,1,1,pic/flanker6.png,pic/flanker4.png,s,k,pic/AffRest1.png,,,,,,,,,,,,,,,,,,,,,,,,,0,0,0,0,0,51,51,78,,,,756.1033175000011,None,754.9207184000006,756.1199699000026,s,1,前进,k,1,0.6240293999981077,0.723862700000609,fjc,f,22,2024_Apr_15_1428,mian,2021.2.3,59.875506846191094,
,,,,,,0,0,pic/flanker5.png,pic/flanker1.png,s,l,pic/AffRest1.png,,,,,,,,,,,,,,,,,,,,,,,,,0,0,0,0,0,52,52,59,,,,759.503841400001,None,758.3206414000015,759.5199869000026,s,1,失意,k,0,0.4494966000020213,0.6780014999967534,fjc,f,22,2024_Apr_15_1428,mian,2021.2.3,59.875506846191094,
,,,,,,0,1,pic/flanker5.png,pic/flanker1.png,s,k,pic/AffRest1.png,,,,,,,,,,,,,,,,,,,,,,,,,0,0,0,0,0,53,53,32,,,,762.6871484000003,None,761.504171200002,762.7039091000006,s,1,富丽,k,1,0.5896210999999312,0.747941699999501,fjc,f,22,2024_Apr_15_1428,mian,2021.2.3,59.875506846191094,
,,,,,,0,0,pic/flanker6.png,pic/flanker2.png,a,l,pic/AffRest1.png,,,,,,,,,,,,,,,,,,,,,,,,,0,0,0,0,0,54,54,9,,,,766.0203795000016,None,764.8370977000013,766.0371354000017,a,1,自卑,l,1,0.4684680999998818,1.0574482999982138,fjc,f,22,2024_Apr_15_1428,mian,2021.2.3,59.875506846191094,
,,,,,,0,1,pic/flanker5.png,pic/flanker1.png,s,k,pic/AffRest1.png,,,,,,,,,,,,,,,,,,,,,,,,,0,0,0,0,0,55,55,40,,,,769.5035224999992,None,768.3200140000008,769.5202261000013,s,1,羡慕,k,1,0.454652200001874,0.6530161999980919,fjc,f,22,2024_Apr_15_1428,mian,2021.2.3,59.875506846191094,
,,,,,,1,1,pic/flanker6.png,pic/flanker4.png,s,k,pic/AffRest1.png,,,,,,,,,,,,,,,,,,,,,,,,,0,0,0,0,0,56,56,70,,,,772.4537655000022,None,771.2698959000008,772.4705997000019,s,1,公平,k,1,1.1161661000005552,0.6385133000003407,fjc,f,22,2024_Apr_15_1428,mian,2021.2.3,59.875506846191094,
,,,,,,0,0,pic/flanker6.png,pic/flanker2.png,a,l,pic/AffRest1.png,,,,,,,,,,,,,,,,,,,,,,,,,0,0,0,0,0,57,57,49,,,,776.2538019000021,None,775.0707304999996,776.2703995000011,a,1,罚款,k,0,0.475586900000053,0.6387445000000298,fjc,f,22,2024_Apr_15_1428,mian,2021.2.3,59.875506846191094,
,,,,,,1,1,pic/flanker5.png,pic/flanker3.png,a,k,pic/AffRest1.png,,,,,,,,,,,,,,,,,,,,,,,,,0,0,0,0,0,58,58,68,,,,779.4372127000024,None,778.2538012000005,779.4537300000011,a,1,有利,k,1,0.9184972000002745,0.8271651999966707,fjc,f,22,2024_Apr_15_1428,mian,2021.2.3,59.875506846191094,
,,,,,,1,1,pic/flanker5.png,pic/flanker3.png,a,k,pic/AffRest1.png,,,,,,,,,,,,,,,,,,,,,,,,,0,0,0,0,0,59,59,60,,,,783.203845,None,782.0202826999994,783.220621299999,a,1,典雅,k,1,0.5957951999989746,0.6229485000003478,fjc,f,22,2024_Apr_15_1428,mian,2021.2.3,59.875506846191094,
,,,,,,1,1,pic/flanker6.png,pic/flanker4.png,s,k,pic/AffRest1.png,,,,,,,,,,,,,,,,,,,,,,,,,0,0,0,0,0,60,60,14,,,,786.3703609000004,None,785.1871962000005,786.3871763999996,s,1,秀丽,k,1,0.6305267000025196,0.673093899997184,fjc,f,22,2024_Apr_15_1428,mian,2021.2.3,59.875506846191094,
,,,,,,0,0,pic/flanker6.png,pic/flanker2.png,a,l,pic/AffRest1.png,,,,,,,,,,,,,,,,,,,,,,,,,0,0,0,0,0,61,61,65,,,,789.6199137000003,None,788.437166300002,789.6371614000018,a,1,黑暗,l,1,0.4780558000020392,1.314334599999711,fjc,f,22,2024_Apr_15_1428,mian,2021.2.3,59.875506846191094,
,,,,,,0,1,pic/flanker6.png,pic/flanker2.png,a,k,pic/AffRest1.png,,,,,,,,,,,,,,,,,,,,,,,,,0,0,0,0,0,62,62,34,,,,793.2865583999992,None,792.103904800002,793.3033940999994,a,1,豪放,k,1,0.43262550000144984,0.6360821000016585,fjc,f,22,2024_Apr_15_1428,mian,2021.2.3,59.875506846191094,
,,,,,,1,1,pic/flanker5.png,pic/flanker3.png,a,k,pic/AffRest1.png,,,,,,,,,,,,,,,,,,,,,,,,,0,0,0,0,0,63,63,20,,,,796.4204348999992,None,795.2370288999991,796.4371245000002,a,1,永恒,k,1,0.6988527000030444,0.8625482000024931,fjc,f,22,2024_Apr_15_1428,mian,2021.2.3,59.875506846191094,
,,,,,,0,1,pic/flanker5.png,pic/flanker1.png,s,k,pic/AffRest1.png,,,,,,,,,,,,,,,,,,,,,,,,,0,0,0,0,0,64,64,0,,,,800.0371288000024,None,798.8537983999995,800.0538667000001,s,1,热切,k,1,0.4845224999990023,0.6274107999997796,fjc,f,22,2024_Apr_15_1428,mian,2021.2.3,59.875506846191094,
,,,,,,1,0,pic/flanker6.png,pic/flanker4.png,s,l,pic/AffRest1.png,,,,,,,,,,,,,,,,,,,,,,,,,0,0,0,0,0,65,65,5,,,,803.0038769999992,None,801.8204490999997,803.0198966000025,s,1,损害,k,0,0.5899023999991186,0.7522859999990033,fjc,f,22,2024_Apr_15_1428,mian,2021.2.3,59.875506846191094,
,,,,,,0,1,pic/flanker5.png,pic/flanker1.png,s,k,pic/AffRest1.png,,,,,,,,,,,,,,,,,,,,,,,,,0,0,0,0,0,66,66,16,,,,806.3871886000015,None,805.2037019000018,806.4038398000012,s,1,俊秀,k,1,0.46424499999920954,0.7059678000005079,fjc,f,22,2024_Apr_15_1428,mian,2021.2.3,59.875506846191094,
,,,,,,1,0,pic/flanker6.png,pic/flanker4.png,s,l,pic/AffRest1.png,,,,,,,,,,,,,,,,,,,,,,,,,0,0,0,0,0,67,67,61,,,,809.5207176000004,None,808.3370776000011,809.5371433,s,1,闷热,k,0,0.5470782000011241,0.6482627000004868,fjc,f,22,2024_Apr_15_1428,mian,2021.2.3,59.875506846191094,
,,,,,,1,0,pic/flanker6.png,pic/flanker4.png,s,l,pic/AffRest1.png,,,,,,,,,,,,,,,,,,,,,,,,,0,0,0,0,0,68,68,45,,,,812.7537498999991,None,811.5702932999993,812.7696580000011,s,1,悲观,k,0,0.5801252000019304,0.706573199997365,fjc,f,22,2024_Apr_15_1428,mian,2021.2.3,59.875506846191094,
,,,,,,1,1,pic/flanker6.png,pic/flanker4.png,s,k,pic/AffRest1.png,,,,,,,,,,,,,,,,,,,,,,,,,0,0,0,0,0,69,69,38,,,,815.9197214000014,None,814.7369967000013,815.9369485999996,s,1,享受,k,1,0.503596499998821,0.5171611000005214,fjc,f,22,2024_Apr_15_1428,mian,2021.2.3,59.875506846191094,
,,,,,,0,0,pic/flanker5.png,pic/flanker1.png,s,l,pic/AffRest1.png,,,,,,,,,,,,,,,,,,,,,,,,,0,0,0,0,0,70,70,75,,,,818.8369920000005,None,817.6537740999993,818.8537193000011,s,1,浪费,k,0,0.4851414999975532,0.5586144999979297,fjc,f,22,2024_Apr_15_1428,mian,2021.2.3,59.875506846191094,
,,,,,,0,0,pic/flanker5.png,pic/flanker1.png,s,l,pic/AffRest1.png,,,,,,,,,,,,,,,,,,,,,,,,,0,0,0,0,0,71,71,51,,,,821.770384200001,None,820.5871724999997,821.7869883999992,s,1,缺乏,k,0,0.5576655000004394,0.5919882000016514,fjc,f,22,2024_Apr_15_1428,mian,2021.2.3,59.875506846191094,
,,,,,,0,0,pic/flanker6.png,pic/flanker2.png,a,l,pic/AffRest1.png,,,,,,,,,,,,,,,,,,,,,,,,,0,0,0,0,0,72,72,73,,,,824.9706322999991,None,823.7870232000023,824.9873336000019,a,1,厌恶,k,0,0.6416926000019885,0.5505361000032281,fjc,f,22,2024_Apr_15_1428,mian,2021.2.3,59.875506846191094,
,,,,,,1,1,pic/flanker5.png,pic/flanker3.png,a,k,pic/AffRest1.png,,,,,,,,,,,,,,,,,,,,,,,,,0,0,0,0,0,73,73,12,,,,828.0369529000018,None,826.8537389000012,828.0537220000006,a,1,生动,k,1,0.8964535000013711,1.5639574999986507,fjc,f,22,2024_Apr_15_1428,mian,2021.2.3,59.875506846191094,
,,,,,,0,0,pic/flanker5.png,pic/flanker1.png,s,l,pic/AffRest1.png,,,,,,,,,,,,,,,,,,,,,,,,,0,0,0,0,0,74,74,11,,,,832.5536590000011,None,831.370382699999,832.5703391000025,s,1,堵塞,k,0,0.43551559999832534,0.707176799998706,fjc,f,22,2024_Apr_15_1428,mian,2021.2.3,59.875506846191094,
,,,,,,1,0,pic/flanker5.png,pic/flanker3.png,a,l,pic/AffRest1.png,,,,,,,,,,,,,,,,,,,,,,,,,0,0,0,0,0,75,75,71,,,,835.7536647000015,None,834.570481499999,835.7704717000015,a,1,逃避,l,1,0.6460021999992023,0.9149292000001878,fjc,f,22,2024_Apr_15_1428,mian,2021.2.3,59.875506846191094,
,,,,,,0,0,pic/flanker6.png,pic/flanker2.png,a,l,pic/AffRest1.png,,,,,,,,,,,,,,,,,,,,,,,,,0,0,0,0,0,76,76,25,,,,839.2704711000006,None,838.0880805000015,839.2869826000024,a,1,假冒,l,1,0.3934189999999944,0.6437030000015511,fjc,f,22,2024_Apr_15_1428,mian,2021.2.3,59.875506846191094,
,,,,,,1,0,pic/flanker6.png,pic/flanker4.png,s,l,pic/AffRest1.png,,,,,,,,,,,,,,,,,,,,,,,,,0,0,0,0,0,77,77,77,,,,842.3703048000025,None,841.187309500001,842.3870852,s,1,沮丧,l,1,0.5864946999972744,0.6673789000014949,fjc,f,22,2024_Apr_15_1428,mian,2021.2.3,59.875506846191094,
,,,,,,1,0,pic/flanker5.png,pic/flanker3.png,a,l,pic/AffRest1.png,,,,,,,,,,,,,,,,,,,,,,,,,0,0,0,0,0,78,78,7,,,,845.5037784000015,None,844.3206135,845.5203667000023,a,1,丢失,l,1,0.6251370999998471,0.536147599999822,fjc,f,22,2024_Apr_15_1428,mian,2021.2.3,59.875506846191094,
,,,,,,0,1,pic/flanker6.png,pic/flanker2.png,a,k,pic/AffRest1.png,,,,,,,,,,,,,,,,,,,,,,,,,0,0,0,0,0,79,79,2,,,,848.569728800001,None,847.3872577000002,848.5862823999996,a,1,廉洁,k,1,0.40039709999837214,0.7047330999994301,fjc,f,22,2024_Apr_15_1428,mian,2021.2.3,59.875506846191094,
,,,,,,,,,,,,pic/AffRest1.png,,,,,,,,,,,,,,,,,,,,,,,,,0,0,0,0,,,,,,,,,,,,,,,,,,,fjc,f,22,2024_Apr_15_1428,mian,2021.2.3,59.875506846191094,
,,,,,,1,1,pic/flanker5.png,pic/flanker3.png,a,k,pic/AffRest2.png,,,,,,,,,,,,,,,,,,,,,,,,,0,1,1,1,0,0,0,36,,,,863.1372063000017,None,861.9370283000026,863.1372063000017,a,1,畅销,k,1,1.132390499999019,0.8048368999989179,fjc,f,22,2024_Apr_15_1428,mian,2021.2.3,59.875506846191094,
,,,,,,0,1,pic/flanker5.png,pic/flanker1.png,s,k,pic/AffRest2.png,,,,,,,,,,,,,,,,,,,,,,,,,0,1,1,1,0,1,1,32,,,,866.937025700001,None,865.7535984999995,866.9538084000014,s,1,圣洁,k,1,0.5543610999993689,1.6119109999999637,fjc,f,22,2024_Apr_15_1428,mian,2021.2.3,59.875506846191094,
,,,,,,1,1,pic/flanker6.png,pic/flanker4.png,s,k,pic/AffRest2.png,,,,,,,,,,,,,,,,,,,,,,,,,0,1,1,1,0,2,2,22,,,,871.1537960000023,None,869.9703152000002,871.1704403000003,s,1,精致,k,1,0.806045000001177,0.6632099999987986,fjc,f,22,2024_Apr_15_1428,mian,2021.2.3,59.875506846191094,
,,,,,,0,1,pic/flanker5.png,pic/flanker1.png,s,k,pic/AffRest2.png,,,,,,,,,,,,,,,,,,,,,,,,,0,1,1,1,0,3,3,24,,,,874.6537286999992,None,873.4703695999997,874.6704286999993,s,1,正直,k,1,0.4546082999986538,0.6482624999989639,fjc,f,22,2024_Apr_15_1428,mian,2021.2.3,59.875506846191094,
,,,,,,1,1,pic/flanker5.png,pic/flanker3.png,a,k,pic/AffRest2.png,,,,,,,,,,,,,,,,,,,,,,,,,0,1,1,1,0,4,4,4,,,,877.6701522000003,None,876.4869732000006,877.6869087000014,a,1,俊秀,k,1,0.5671398000013141,0.6487863000002108,fjc,f,22,2024_Apr_15_1428,mian,2021.2.3,59.875506846191094,
,,,,,,1,1,pic/flanker6.png,pic/flanker4.png,s,k,pic/AffRest2.png,,,,,,,,,,,,,,,,,,,,,,,,,0,1,1,1,0,5,5,46,,,,880.7368979000021,None,879.5537177000006,880.7536268000003,s,1,振作,k,1,0.6284276000005775,0.9408906999997271,fjc,f,22,2024_Apr_15_1428,mian,2021.2.3,59.875506846191094,
,,,,,,1,1,pic/flanker6.png,pic/flanker4.png,s,k,pic/AffRest2.png,,,,,,,,,,,,,,,,,,,,,,,,,0,1,1,1,0,6,6,70,,,,884.203641600001,None,883.0202649000021,884.2202031000015,s,1,豪放,k,1,0.7050435999990441,0.617217700000765,fjc,f,22,2024_Apr_15_1428,mian,2021.2.3,59.875506846191094,
,,,,,,1,1,pic/flanker5.png,pic/flanker3.png,a,k,pic/AffRest2.png,,,,,,,,,,,,,,,,,,,,,,,,,0,1,1,1,0,7,7,60,,,,887.4704077000024,None,886.2869625000021,887.4870349000012,a,1,旺盛,k,1,0.6429849000014656,0.6564748999990115,fjc,f,22,2024_Apr_15_1428,mian,2021.2.3,59.875506846191094,
,,,,,,0,1,pic/flanker6.png,pic/flanker2.png,a,k,pic/AffRest2.png,,,,,,,,,,,,,,,,,,,,,,,,,0,1,1,1,0,8,8,66,,,,890.6536038000013,None,889.4702259000005,890.6702995000014,a,1,丰满,k,1,0.5025821999988693,0.6764277999973274,fjc,f,22,2024_Apr_15_1428,mian,2021.2.3,59.875506846191094,
,,,,,,0,0,pic/flanker5.png,pic/flanker1.png,s,l,pic/AffRest2.png,,,,,,,,,,,,,,,,,,,,,,,,,0,1,1,1,0,9,9,27,,,,893.8203563999996,None,892.6368794000009,893.8369199000008,s,1,厌恶,k,0,0.5071091999998316,0.6010576000007859,fjc,f,22,2024_Apr_15_1428,mian,2021.2.3,59.875506846191094,
,,,,,,1,1,pic/flanker5.png,pic/flanker3.png,a,k,pic/AffRest2.png,,,,,,,,,,,,,,,,,,,,,,,,,0,1,1,1,0,10,10,28,,,,896.8036558999993,None,895.6203391000017,896.8201792,a,1,充裕,k,1,0.8126389000026393,1.9318904000028851,fjc,f,22,2024_Apr_15_1428,mian,2021.2.3,59.875506846191094,
,,,,,,0,0,pic/flanker6.png,pic/flanker2.png,a,l,pic/AffRest2.png,,,,,,,,,,,,,,,,,,,,,,,,,0,1,1,1,0,11,11,57,,,,901.4870690999996,None,900.3036605000016,901.5037651999992,a,1,黑暗,l,1,0.43844979999994393,0.6887067999996361,fjc,f,22,2024_Apr_15_1428,mian,2021.2.3,59.875506846191094,
,,,,,,0,1,pic/flanker6.png,pic/flanker2.png,a,k,pic/AffRest2.png,,,,,,,,,,,,,,,,,,,,,,,,,0,1,1,1,0,12,12,18,,,,904.5538866999996,None,903.370346300002,904.5703762000012,a,1,享受,k,1,0.39410180000049877,0.9025486999998975,fjc,f,22,2024_Apr_15_1428,mian,2021.2.3,59.875506846191094,
,,,,,,0,1,pic/flanker6.png,pic/flanker2.png,a,k,pic/AffRest2.png,,,,,,,,,,,,,,,,,,,,,,,,,0,1,1,1,0,13,13,74,,,,907.7204996,None,906.5368909999997,907.7372192000003,a,1,顽强,k,1,0.4144933999996283,0.5715140000029351,fjc,f,22,2024_Apr_15_1428,mian,2021.2.3,59.875506846191094,
,,,,,,1,1,pic/flanker6.png,pic/flanker4.png,s,k,pic/AffRest2.png,,,,,,,,,,,,,,,,,,,,,,,,,0,1,1,1,0,14,14,38,,,,910.6204639000025,None,909.4366205000006,910.6371859999999,s,1,诚恳,l,0,0.5633619999971415,1.0232538999989629,fjc,f,22,2024_Apr_15_1428,mian,2021.2.3,59.875506846191094,
,,,,,,1,0,pic/flanker5.png,pic/flanker3.png,a,l,pic/AffRest2.png,,,,,,,,,,,,,,,,,,,,,,,,,0,1,1,1,0,15,15,15,,,,914.1197213000014,None,912.9369016000019,914.1360997000011,a,1,嘲笑,l,1,0.598563200001081,0.6943011000003025,fjc,f,22,2024_Apr_15_1428,mian,2021.2.3,59.875506846191094,
,,,,,,1,0,pic/flanker6.png,pic/flanker4.png,s,l,pic/AffRest2.png,,,,,,,,,,,,,,,,,,,,,,,,,0,1,1,1,0,16,16,77,,,,917.4205318999993,None,916.2369728000012,917.437196400002,s,1,别扭,l,1,0.6610996999988856,0.8189005999993242,fjc,f,22,2024_Apr_15_1428,mian,2021.2.3,59.875506846191094,
,,,,,,0,1,pic/flanker5.png,pic/flanker1.png,s,k,pic/AffRest2.png,,,,,,,,,,,,,,,,,,,,,,,,,0,1,1,1,0,17,17,64,,,,920.8203772000015,None,919.6371999000003,920.8369768000011,s,1,优雅,k,1,0.5358434000008856,0.6076300000022457,fjc,f,22,2024_Apr_15_1428,mian,2021.2.3,59.875506846191094,
,,,,,,0,0,pic/flanker5.png,pic/flanker1.png,s,l,pic/AffRest2.png,,,,,,,,,,,,,,,,,,,,,,,,,0,1,1,1,0,18,18,43,,,,923.9201878000022,None,922.7369822,923.9368797999996,s,1,心慌,l,1,0.45137379999869154,1.2400851999991573,fjc,f,22,2024_Apr_15_1428,mian,2021.2.3,59.875506846191094,
,,,,,,0,1,pic/flanker6.png,pic/flanker2.png,a,k,pic/AffRest2.png,,,,,,,,,,,,,,,,,,,,,,,,,0,1,1,1,0,19,19,58,,,,927.553506799999,None,926.3704418000016,927.5701473000008,a,1,留恋,k,1,0.43997879999733414,0.7881419000004826,fjc,f,22,2024_Apr_15_1428,mian,2021.2.3,59.875506846191094,
,,,,,,0,1,pic/flanker6.png,pic/flanker2.png,a,k,pic/AffRest2.png,,,,,,,,,,,,,,,,,,,,,,,,,0,1,1,1,0,20,20,34,,,,930.7036819999994,None,929.5201787000005,930.7202023999998,a,1,爽朗,k,1,0.5619803000008687,2.0526014999995823,fjc,f,22,2024_Apr_15_1428,mian,2021.2.3,59.875506846191094,
,,,,,,0,1,pic/flanker6.png,pic/flanker2.png,a,k,pic/AffRest2.png,,,,,,,,,,,,,,,,,,,,,,,,,0,1,1,1,0,21,21,26,,,,935.3202485000002,None,934.1368275999994,935.3368909000019,a,1,舒畅,k,1,1.1834018000008655,0.8274314000009326,fjc,f,22,2024_Apr_15_1428,mian,2021.2.3,59.875506846191094,
,,,,,,0,1,pic/flanker5.png,pic/flanker1.png,s,k,pic/AffRest2.png,,,,,,,,,,,,,,,,,,,,,,,,,0,1,1,1,0,22,22,56,,,,939.4034847000003,None,938.2202211000003,939.4200945000011,s,1,典雅,k,1,0.446455799999967,0.63238629999978,fjc,f,22,2024_Apr_15_1428,mian,2021.2.3,59.875506846191094,
,,,,,,0,1,pic/flanker6.png,pic/flanker2.png,a,k,pic/AffRest2.png,,,,,,,,,,,,,,,,,,,,,,,,,0,1,1,1,0,23,23,10,,,,942.3030489000012,None,941.1203600000008,942.3197648000023,a,1,羡慕,k,1,1.0554494999996678,0.6077965999975277,fjc,f,22,2024_Apr_15_1428,mian,2021.2.3,59.875506846191094,
,,,,,,1,1,pic/flanker6.png,pic/flanker4.png,s,k,pic/AffRest2.png,,,,,,,,,,,,,,,,,,,,,,,,,0,1,1,1,0,24,24,62,,,,945.9537898000017,None,944.7702446000003,945.9704010999994,s,1,清秀,k,1,0.67429230000198,0.6390236999977787,fjc,f,22,2024_Apr_15_1428,mian,2021.2.3,59.875506846191094,
,,,,,,0,1,pic/flanker5.png,pic/flanker1.png,s,k,pic/AffRest2.png,,,,,,,,,,,,,,,,,,,,,,,,,0,1,1,1,0,25,25,0,,,,949.1695989,None,947.9862308000011,949.1863234000011,s,1,卓越,k,1,0.49557959999947343,0.6355008999998972,fjc,f,22,2024_Apr_15_1428,mian,2021.2.3,59.875506846191094,
,,,,,,0,0,pic/flanker6.png,pic/flanker2.png,a,l,pic/AffRest2.png,,,,,,,,,,,,,,,,,,,,,,,,,0,1,1,1,0,26,26,9,,,,952.170070600001,None,950.9866244000004,952.1862819000016,a,1,排斥,l,1,0.4898786999983713,1.6159656000018003,fjc,f,22,2024_Apr_15_1428,mian,2021.2.3,59.875506846191094,
,,,,,,1,0,pic/flanker5.png,pic/flanker3.png,a,l,pic/AffRest2.png,,,,,,,,,,,,,,,,,,,,,,,,,0,1,1,1,0,27,27,39,,,,956.1531804000006,None,954.9696943000017,956.1701178000003,s,0,轻率,l,1,0.28398960000049556,2.3557575000013458,fjc,f,22,2024_Apr_15_1428,mian,2021.2.3,59.875506846191094,
,,,,,,1,0,pic/flanker6.png,pic/flanker4.png,s,l,pic/AffRest2.png,,,,,,,,,,,,,,,,,,,,,,,,,0,1,1,1,0,28,28,21,,,,960.7034251000005,None,959.5198221999999,960.7202892000023,s,1,堵塞,l,1,0.6454850000009174,0.8096960000002582,fjc,f,22,2024_Apr_15_1428,mian,2021.2.3,59.875506846191094,
,,,,,,1,0,pic/flanker6.png,pic/flanker4.png,s,l,pic/AffRest2.png,,,,,,,,,,,,,,,,,,,,,,,,,0,1,1,1,0,29,29,37,,,,964.0034807000011,None,962.8200749999996,964.0200919000017,s,1,禁止,l,1,0.6258622000023024,0.7671320999979798,fjc,f,22,2024_Apr_15_1428,mian,2021.2.3,59.875506846191094,
,,,,,,1,1,pic/flanker5.png,pic/flanker3.png,a,k,pic/AffRest2.png,,,,,,,,,,,,,,,,,,,,,,,,,0,1,1,1,0,30,30,44,,,,967.4195078000012,None,966.2370895000022,967.4362201000004,a,1,秀丽,k,1,0.5980796000003465,1.0846438000007765,fjc,f,22,2024_Apr_15_1428,mian,2021.2.3,59.875506846191094,
,,,,,,1,1,pic/flanker6.png,pic/flanker4.png,s,k,pic/AffRest2.png,,,,,,,,,,,,,,,,,,,,,,,,,0,1,1,1,0,31,31,6,,,,970.9196575999995,None,969.7367369999993,970.936063600002,s,1,永恒,k,1,0.7108698000010918,1.8122660000008182,fjc,f,22,2024_Apr_15_1428,mian,2021.2.3,59.875506846191094,
,,,,,,0,1,pic/flanker6.png,pic/flanker2.png,a,k,pic/AffRest2.png,,,,,,,,,,,,,,,,,,,,,,,,,0,1,1,1,0,32,32,2,,,,975.2700010000008,None,974.0867754999999,975.2867523999994,a,1,富足,k,1,0.7513686999991478,1.9714289000003191,fjc,f,22,2024_Apr_15_1428,mian,2021.2.3,59.875506846191094,
,,,,,,1,0,pic/flanker5.png,pic/flanker3.png,a,l,pic/AffRest2.png,,,,,,,,,,,,,,,,,,,,,,,,,0,1,1,1,0,33,33,71,,,,979.8363721999995,None,978.653330000001,979.8528485000024,a,1,忧虑,l,1,0.8128699000008055,1.7530656000017188,fjc,f,22,2024_Apr_15_1428,mian,2021.2.3,59.875506846191094,
,,,,,,0,0,pic/flanker5.png,pic/flanker1.png,s,l,pic/AffRest2.png,,,,,,,,,,,,,,,,,,,,,,,,,0,1,1,1,0,34,34,11,,,,984.2532768000019,None,983.0701559000008,984.2699740999997,s,1,穷苦,l,1,0.454004300001543,0.8236326000005647,fjc,f,22,2024_Apr_15_1428,mian,2021.2.3,59.875506846191094,
,,,,,,1,0,pic/flanker5.png,pic/flanker3.png,a,l,pic/AffRest2.png,,,,,,,,,,,,,,,,,,,,,,,,,0,1,1,1,0,35,35,55,,,,987.4861797000012,None,986.3032985999998,987.5033043000003,a,1,假冒,k,0,0.6013452999977744,1.1953712000031373,fjc,f,22,2024_Apr_15_1428,mian,2021.2.3,59.875506846191094,
,,,,,,0,0,pic/flanker5.png,pic/flanker1.png,s,l,pic/AffRest2.png,,,,,,,,,,,,,,,,,,,,,,,,,0,1,1,1,0,36,36,51,,,,991.220389500002,None,990.0367875000011,991.2370427999995,s,1,闷热,l,1,0.4385279000016453,2.460415400000784,fjc,f,22,2024_Apr_15_1428,mian,2021.2.3,59.875506846191094,
,,,,,,0,0,pic/flanker6.png,pic/flanker2.png,a,l,pic/AffRest2.png,,,,,,,,,,,,,,,,,,,,,,,,,0,1,1,1,0,37,37,33,,,,995.9868440999999,None,994.8032022000007,996.0033470000017,a,1,逃避,l,1,0.4489342000015313,1.459999599999719,fjc,f,22,2024_Apr_15_1428,mian,2021.2.3,59.875506846191094,
,,,,,,1,1,pic/flanker6.png,pic/flanker4.png,s,k,pic/AffRest2.png,,,,,,,,,,,,,,,,,,,,,,,,,0,1,1,1,0,38,38,78,,,,999.9360863000002,None,998.7529164000007,999.9531019999995,s,1,富丽,k,1,0.7584825000012643,1.056024499997875,fjc,f,22,2024_Apr_15_1428,mian,2021.2.3,59.875506846191094,
,,,,,,1,0,pic/flanker5.png,pic/flanker3.png,a,l,pic/AffRest2.png,,,,,,,,,,,,,,,,,,,,,,,,,0,1,1,1,0,39,39,79,,,,1003.6533756000026,None,1002.4699060000021,1003.6700387000019,a,1,争吵,None,0,0.7291736999977729,,fjc,f,22,2024_Apr_15_1428,mian,2021.2.3,59.875506846191094,
,,,,,,0,0,pic/flanker6.png,pic/flanker2.png,a,l,pic/AffRest2.png,,,,,,,,,,,,,,,,,,,,,,,,,0,1,1,1,0,40,40,17,,,,1008.7199959999998,None,1007.5360698000004,1008.7368042000016,a,1,胡涂,l,1,0.5515479000023333,1.3280488999989757,fjc,f,22,2024_Apr_15_1428,mian,2021.2.3,59.875506846191094,
,,,,,,1,0,pic/flanker6.png,pic/flanker4.png,s,l,pic/AffRest2.png,,,,,,,,,,,,,,,,,,,,,,,,,0,1,1,1,0,41,41,5,,,,1012.5537361000024,None,1011.3700509000009,1012.5702679999995,s,1,伤心,l,1,0.6521959999990941,0.8452374000007694,fjc,f,22,2024_Apr_15_1428,mian,2021.2.3,59.875506846191094,
,,,,,,0,1,pic/flanker5.png,pic/flanker1.png,s,k,pic/AffRest2.png,,,,,,,,,,,,,,,,,,,,,,,,,0,1,1,1,0,42,42,16,,,,1015.9034706999992,None,1014.7198451000004,1015.9201518000009,s,1,鲜艳,k,1,0.4187239999992016,0.955822600000829,fjc,f,22,2024_Apr_15_1428,mian,2021.2.3,59.875506846191094,
,,,,,,0,1,pic/flanker5.png,pic/flanker1.png,s,k,pic/AffRest2.png,,,,,,,,,,,,,,,,,,,,,,,,,0,1,1,1,0,43,43,8,,,,1019.170062600002,None,1017.9867454000014,1019.1866537000024,s,1,珍藏,k,1,0.3249800999983563,1.2147117999993498,fjc,f,22,2024_Apr_15_1428,mian,2021.2.3,59.875506846191094,
,,,,,,0,0,pic/flanker6.png,pic/flanker2.png,a,l,pic/AffRest2.png,,,,,,,,,,,,,,,,,,,,,,,,,0,1,1,1,0,44,44,49,,,,1022.5865598000019,None,1021.4032797,1022.6033387000025,a,1,处罚,k,0,0.387592200000654,1.371964999998454,fjc,f,22,2024_Apr_15_1428,mian,2021.2.3,59.875506846191094,
,,,,,,1,0,pic/flanker6.png,pic/flanker4.png,s,l,pic/AffRest2.png,,,,,,,,,,,,,,,,,,,,,,,,,0,1,1,1,0,45,45,61,,,,1026.2033819000026,None,1025.0198144999995,1026.220185000002,s,1,消沉,l,1,0.5068819000007352,1.053452299998753,fjc,f,22,2024_Apr_15_1428,mian,2021.2.3,59.875506846191094,
,,,,,,0,0,pic/flanker6.png,pic/flanker2.png,a,l,pic/AffRest2.png,,,,,,,,,,,,,,,,,,,,,,,,,0,1,1,1,0,46,46,25,,,,1029.6198394999992,None,1028.4370808000021,1029.6364635999998,a,1,失意,l,1,0.3528418999994756,1.34344830000191,fjc,f,22,2024_Apr_15_1428,mian,2021.2.3,59.875506846191094,
,,,,,,1,0,pic/flanker6.png,pic/flanker4.png,s,l,pic/AffRest2.png,,,,,,,,,,,,,,,,,,,,,,,,,0,1,1,1,0,47,47,13,,,,1033.3199784999997,None,1032.1367943000005,1033.3360471000015,s,1,沮丧,l,1,0.5338193000025058,1.1873324000007415,fjc,f,22,2024_Apr_15_1428,mian,2021.2.3,59.875506846191094,
,,,,,,1,1,pic/flanker5.png,pic/flanker3.png,a,k,pic/AffRest2.png,,,,,,,,,,,,,,,,,,,,,,,,,0,1,1,1,0,48,48,76,,,,1037.0867512000004,None,1035.9033937999993,1037.1033205999993,a,1,赞成,k,1,0.6123195000000123,0.7693732000007003,fjc,f,22,2024_Apr_15_1428,mian,2021.2.3,59.875506846191094,
,,,,,,0,0,pic/flanker5.png,pic/flanker1.png,s,l,pic/AffRest2.png,,,,,,,,,,,,,,,,,,,,,,,,,0,1,1,1,0,49,49,3,,,,1040.3032993000015,None,1039.1200099000016,1040.3200324999998,s,1,悲观,k,0,0.6966974999995728,0.6750578999999561,fjc,f,22,2024_Apr_15_1428,mian,2021.2.3,59.875506846191094,
,,,,,,0,1,pic/flanker5.png,pic/flanker1.png,s,k,pic/AffRest2.png,,,,,,,,,,,,,,,,,,,,,,,,,0,1,1,1,0,50,50,72,,,,1043.6533853,None,1042.4698172999997,1043.6699044000015,s,1,敬佩,k,1,0.5483027000009315,1.8960942999983672,fjc,f,22,2024_Apr_15_1428,mian,2021.2.3,59.875506846191094,
,,,,,,0,1,pic/flanker5.png,pic/flanker1.png,s,k,pic/AffRest2.png,,,,,,,,,,,,,,,,,,,,,,,,,0,1,1,1,0,51,51,40,,,,1048.0699697000018,None,1046.8866691000003,1048.086545500002,s,1,生动,l,0,0.40412100000321516,0.737100599999394,fjc,f,22,2024_Apr_15_1428,mian,2021.2.3,59.875506846191094,
,,,,,,0,0,pic/flanker6.png,pic/flanker2.png,a,l,pic/AffRest2.png,,,,,,,,,,,,,,,,,,,,,,,,,0,1,1,1,0,52,52,41,,,,1051.2031750999995,None,1050.0200636000009,1051.2199868000025,a,1,焦躁,l,1,0.4426288000031491,0.737977899996622,fjc,f,22,2024_Apr_15_1428,mian,2021.2.3,59.875506846191094,
,,,,,,0,1,pic/flanker6.png,pic/flanker2.png,a,k,pic/AffRest2.png,,,,,,,,,,,,,,,,,,,,,,,,,0,1,1,1,0,53,53,50,,,,1054.3866683000015,None,1053.2031296000023,1054.4032134000008,a,1,如愿,k,1,0.44318639999983134,0.7155953000001318,fjc,f,22,2024_Apr_15_1428,mian,2021.2.3,59.875506846191094,
,,,,,,1,0,pic/flanker5.png,pic/flanker3.png,a,l,pic/AffRest2.png,,,,,,,,,,,,,,,,,,,,,,,,,0,1,1,1,0,54,54,47,,,,1057.5198735000013,None,1056.3365513999997,1057.5366915000013,a,1,缺乏,k,0,0.6688518000009935,0.8511271999996097,fjc,f,22,2024_Apr_15_1428,mian,2021.2.3,59.875506846191094,
,,,,,,1,0,pic/flanker5.png,pic/flanker3.png,a,l,pic/AffRest2.png,,,,,,,,,,,,,,,,,,,,,,,,,0,1,1,1,0,55,55,7,,,,1060.8865759,None,1059.7033106000017,1060.9032173000014,a,1,浪费,l,1,0.7196436000012909,2.067190500001743,fjc,f,22,2024_Apr_15_1428,mian,2021.2.3,59.875506846191094,
,,,,,,1,0,pic/flanker6.png,pic/flanker4.png,s,l,pic/AffRest2.png,,,,,,,,,,,,,,,,,,,,,,,,,0,1,1,1,0,56,56,45,,,,1065.6367396999995,None,1064.453586300002,1065.6534076000025,s,1,鲁莽,l,1,0.49907840000014403,0.6757743999987724,fjc,f,22,2024_Apr_15_1428,mian,2021.2.3,59.875506846191094,
,,,,,,0,0,pic/flanker5.png,pic/flanker1.png,s,l,pic/AffRest2.png,,,,,,,,,,,,,,,,,,,,,,,,,0,1,1,1,0,57,57,75,,,,1068.8032558000014,None,1067.6199530000013,1068.8199007000003,s,1,冷笑,l,1,0.3308380999988003,0.7496328999986872,fjc,f,22,2024_Apr_15_1428,mian,2021.2.3,59.875506846191094,
,,,,,,1,1,pic/flanker5.png,pic/flanker3.png,a,k,pic/AffRest2.png,,,,,,,,,,,,,,,,,,,,,,,,,0,1,1,1,0,58,58,68,,,,1071.9033286000013,None,1070.719772200002,1071.919955100002,a,1,有利,k,1,0.5348015999989002,0.7322089000008418,fjc,f,22,2024_Apr_15_1428,mian,2021.2.3,59.875506846191094,
,,,,,,0,1,pic/flanker6.png,pic/flanker2.png,a,k,pic/AffRest2.png,,,,,,,,,,,,,,,,,,,,,,,,,0,1,1,1,0,59,59,42,,,,1075.0694550000007,None,1073.8864977000012,1075.086173399999,a,1,瑰丽,k,1,0.4179318999995303,0.7275036999999429,fjc,f,22,2024_Apr_15_1428,mian,2021.2.3,59.875506846191094,
,,,,,,1,1,pic/flanker5.png,pic/flanker3.png,a,k,pic/AffRest2.png,,,,,,,,,,,,,,,,,,,,,,,,,0,1,1,1,0,60,60,20,,,,1078.1200585000006,None,1076.9367433000007,1078.1367648000014,a,1,公平,k,1,0.5040511000006518,1.772441200002504,fjc,f,22,2024_Apr_15_1428,mian,2021.2.3,59.875506846191094,
,,,,,,1,1,pic/flanker6.png,pic/flanker4.png,s,k,pic/AffRest2.png,,,,,,,,,,,,,,,,,,,,,,,,,0,1,1,1,0,61,61,30,,,,1082.4200148000018,None,1081.2366632000012,1082.4367158999994,s,1,前进,k,1,0.6712387000006856,0.5713657000014791,fjc,f,22,2024_Apr_15_1428,mian,2021.2.3,59.875506846191094,
,,,,,,0,0,pic/flanker6.png,pic/flanker2.png,a,l,pic/AffRest2.png,,,,,,,,,,,,,,,,,,,,,,,,,0,1,1,1,0,62,62,1,,,,1085.7033463000007,None,1084.519650000002,1085.7200269999994,a,1,自卑,l,1,0.43664970000099856,1.6643074000021443,fjc,f,22,2024_Apr_15_1428,mian,2021.2.3,59.875506846191094,
,,,,,,1,0,pic/flanker5.png,pic/flanker3.png,a,l,pic/AffRest2.png,,,,,,,,,,,,,,,,,,,,,,,,,0,1,1,1,0,63,63,63,,,,1089.6534286000024,None,1088.469967000001,1089.669993800002,a,1,懒惰,l,1,0.5673432000003231,0.7486652999978105,fjc,f,22,2024_Apr_15_1428,mian,2021.2.3,59.875506846191094,
,,,,,,1,1,pic/flanker6.png,pic/flanker4.png,s,k,pic/AffRest2.png,,,,,,,,,,,,,,,,,,,,,,,,,0,1,1,1,0,64,64,54,,,,1092.9528439000023,None,1091.7695504000003,1092.9694130000025,s,1,热切,k,1,0.6004553999991913,0.8867327000007208,fjc,f,22,2024_Apr_15_1428,mian,2021.2.3,59.875506846191094,
,,,,,,1,0,pic/flanker6.png,pic/flanker4.png,s,l,pic/AffRest2.png,,,,,,,,,,,,,,,,,,,,,,,,,0,1,1,1,0,65,65,69,,,,1096.403223100002,None,1095.2199543000024,1096.4198340000003,s,1,孤单,k,0,0.5405829000010272,0.9530902000005881,fjc,f,22,2024_Apr_15_1428,mian,2021.2.3,59.875506846191094,
,,,,,,1,0,pic/flanker5.png,pic/flanker3.png,a,l,pic/AffRest2.png,,,,,,,,,,,,,,,,,,,,,,,,,0,1,1,1,0,66,66,23,,,,1099.853332900002,None,1098.6699568000004,1099.8697826999996,a,1,落后,l,1,0.5426770999984001,1.5775270000012824,fjc,f,22,2024_Apr_15_1428,mian,2021.2.3,59.875506846191094,
,,,,,,0,1,pic/flanker5.png,pic/flanker1.png,s,k,pic/AffRest2.png,,,,,,,,,,,,,,,,,,,,,,,,,0,1,1,1,0,67,67,48,,,,1104.0200277000004,None,1102.8365043000013,1104.0365262000014,s,1,雄厚,k,1,0.48474999999962165,0.8612764999998035,fjc,f,22,2024_Apr_15_1428,mian,2021.2.3,59.875506846191094,
,,,,,,0,0,pic/flanker5.png,pic/flanker1.png,s,l,pic/AffRest2.png,,,,,,,,,,,,,,,,,,,,,,,,,0,1,1,1,0,68,68,35,,,,1107.4197449000021,None,1106.2365272999996,1107.4366785999991,s,1,损害,k,0,0.428934700001264,0.7079066000005696,fjc,f,22,2024_Apr_15_1428,mian,2021.2.3,59.875506846191094,
,,,,,,1,0,pic/flanker6.png,pic/flanker4.png,s,l,pic/AffRest2.png,,,,,,,,,,,,,,,,,,,,,,,,,0,1,1,1,0,69,69,29,,,,1110.4865554999997,None,1109.3031083000024,1110.5027228,s,1,杂乱,l,1,0.5077872000001662,2.023558500000945,fjc,f,22,2024_Apr_15_1428,mian,2021.2.3,59.875506846191094,
,,,,,,0,0,pic/flanker6.png,pic/flanker2.png,a,l,pic/AffRest2.png,,,,,,,,,,,,,,,,,,,,,,,,,0,1,1,1,0,70,70,65,,,,1115.0029163,None,1113.8193288000002,1115.0196991000012,a,1,罚款,l,1,0.4383407999994233,0.5859248000015214,fjc,f,22,2024_Apr_15_1428,mian,2021.2.3,59.875506846191094,
,,,,,,1,0,pic/flanker6.png,pic/flanker4.png,s,l,pic/AffRest2.png,,,,,,,,,,,,,,,,,,,,,,,,,0,1,1,1,0,71,71,53,,,,1118.0867137000023,None,1116.9032552999997,1118.1032083999999,s,1,怀疑,l,1,0.5217071999977634,0.7170866999986174,fjc,f,22,2024_Apr_15_1428,mian,2021.2.3,59.875506846191094,
,,,,,,0,0,pic/flanker6.png,pic/flanker2.png,a,l,pic/AffRest2.png,,,,,,,,,,,,,,,,,,,,,,,,,0,1,1,1,0,72,72,73,,,,1121.2192799000004,None,1120.0363041000019,1121.235851100002,a,1,慌忙,l,1,0.5194492000009632,0.7743950999974913,fjc,f,22,2024_Apr_15_1428,mian,2021.2.3,59.875506846191094,
,,,,,,0,0,pic/flanker5.png,pic/flanker1.png,s,l,pic/AffRest2.png,,,,,,,,,,,,,,,,,,,,,,,,,0,1,1,1,0,73,73,59,,,,1124.5694201000006,None,1123.3865872000024,1124.5860457000017,s,1,烦恼,l,1,0.3941217999999935,1.4320569000010437,fjc,f,22,2024_Apr_15_1428,mian,2021.2.3,59.875506846191094,
,,,,,,1,1,pic/flanker5.png,pic/flanker3.png,a,k,pic/AffRest2.png,,,,,,,,,,,,,,,,,,,,,,,,,0,1,1,1,0,74,74,52,,,,1128.4199267000004,None,1127.2365499000007,1128.436600500001,a,1,奉献,k,1,0.5533706999995047,1.4095655000019178,fjc,f,22,2024_Apr_15_1428,mian,2021.2.3,59.875506846191094,
,,,,,,1,1,pic/flanker6.png,pic/flanker4.png,s,k,pic/AffRest2.png,,,,,,,,,,,,,,,,,,,,,,,,,0,1,1,1,0,75,75,14,,,,1132.2368251000007,None,1131.0526215999998,1132.2534842999994,s,1,吉祥,k,1,0.6332192000008945,0.785301600000821,fjc,f,22,2024_Apr_15_1428,mian,2021.2.3,59.875506846191094,
,,,,,,1,1,pic/flanker5.png,pic/flanker3.png,a,k,pic/AffRest2.png,,,,,,,,,,,,,,,,,,,,,,,,,0,1,1,1,0,76,76,12,,,,1135.6534100999997,None,1134.4699672999996,1135.6700468000017,a,1,廉洁,k,1,0.7056811999973434,2.0356732999971427,fjc,f,22,2024_Apr_15_1428,mian,2021.2.3,59.875506846191094,
,,,,,,0,0,pic/flanker5.png,pic/flanker1.png,s,l,pic/AffRest2.png,,,,,,,,,,,,,,,,,,,,,,,,,0,1,1,1,0,77,77,67,,,,1140.3529597000015,None,1139.1693078000026,1140.3695012999997,s,1,丢失,l,1,0.5129561999965517,0.8746947999970871,fjc,f,22,2024_Apr_15_1428,mian,2021.2.3,59.875506846191094,
,,,,,,0,0,pic/flanker5.png,pic/flanker1.png,s,l,pic/AffRest2.png,,,,,,,,,,,,,,,,,,,,,,,,,0,1,1,1,0,78,78,19,,,,1143.619866500001,None,1142.4364664000022,1143.6366028000011,s,1,郁闷,k,0,0.4384535999997752,1.551931500001956,fjc,f,22,2024_Apr_15_1428,mian,2021.2.3,59.875506846191094,
,,,,,,1,0,pic/flanker5.png,pic/flanker3.png,a,l,pic/AffRest2.png,,,,,,,,,,,,,,,,,,,,,,,,,0,1,1,1,0,79,79,31,,,,1147.5534208999998,None,1146.3697733000008,1147.569883600001,a,1,撒谎,l,1,0.9576502000018081,0.9774749000025622,fjc,f,22,2024_Apr_15_1428,mian,2021.2.3,59.875506846191094,
,,,,,,,,,,,,pic/AffRest2.png,,,,,,,,,,,,,,,,,,,,,,,,,0,1,1,1,,,,,,,,,,,,,,,,,,,fjc,f,22,2024_Apr_15_1428,mian,2021.2.3,59.875506846191094,
,,,,,,1,1,pic/flanker5.png,pic/flanker3.png,a,k,pic/AffRest3.png,,,,,,,,,,,,,,,,,,,,,,,,,0,2,2,2,0,0,0,60,,,,1164.236600600001,None,1163.0444291999993,1164.2531015000022,a,1,敬佩,k,1,0.8059403000006569,0.7299610000009125,fjc,f,22,2024_Apr_15_1428,mian,2021.2.3,59.875506846191094,
,,,,,,0,1,pic/flanker6.png,pic/flanker2.png,a,k,pic/AffRest3.png,,,,,,,,,,,,,,,,,,,,,,,,,0,2,2,2,0,1,1,2,,,,1167.7698192999997,None,1166.5864605999996,1167.7864817000009,a,1,鲜艳,k,1,0.502179499999329,0.709898199998861,fjc,f,22,2024_Apr_15_1428,mian,2021.2.3,59.875506846191094,
,,,,,,1,1,pic/flanker5.png,pic/flanker3.png,a,k,pic/AffRest3.png,,,,,,,,,,,,,,,,,,,,,,,,,0,2,2,2,0,2,2,12,,,,1170.8197455000009,None,1169.6367105999998,1170.836494700001,a,1,爽朗,k,1,0.7644823999980872,0.7365332999979728,fjc,f,22,2024_Apr_15_1428,mian,2021.2.3,59.875506846191094,
,,,,,,1,0,pic/flanker6.png,pic/flanker4.png,s,l,pic/AffRest3.png,,,,,,,,,,,,,,,,,,,,,,,,,0,2,2,2,0,3,3,13,,,,1174.2032560000007,None,1173.0197980000012,1174.219905599999,s,1,焦躁,k,0,0.5697491999999329,0.7048678999999538,fjc,f,22,2024_Apr_15_1428,mian,2021.2.3,59.875506846191094,
,,,,,,0,0,pic/flanker6.png,pic/flanker2.png,a,l,pic/AffRest3.png,,,,,,,,,,,,,,,,,,,,,,,,,0,2,2,2,0,4,4,49,,,,1177.5197217999994,None,1176.3362091000017,1177.5364293999992,a,1,心慌,l,1,0.42319010000210255,0.8783124000001408,fjc,f,22,2024_Apr_15_1428,mian,2021.2.3,59.875506846191094,
,,,,,,0,0,pic/flanker5.png,pic/flanker1.png,s,l,pic/AffRest3.png,,,,,,,,,,,,,,,,,,,,,,,,,0,2,2,2,0,5,5,59,,,,1180.7698313,None,1179.5864628000018,1180.7864464000013,s,1,慌忙,k,0,0.4710401999982423,0.8759768999989319,fjc,f,22,2024_Apr_15_1428,mian,2021.2.3,59.875506846191094,
,,,,,,1,1,pic/flanker6.png,pic/flanker4.png,s,k,pic/AffRest3.png,,,,,,,,,,,,,,,,,,,,,,,,,0,2,2,2,0,6,6,14,,,,1184.1032099000004,None,1182.9197292000026,1184.1197643000014,s,1,充裕,k,1,0.587067799999204,0.8141825000020617,fjc,f,22,2024_Apr_15_1428,mian,2021.2.3,59.875506846191094,
,,,,,,0,1,pic/flanker5.png,pic/flanker1.png,s,k,pic/AffRest3.png,,,,,,,,,,,,,,,,,,,,,,,,,0,2,2,2,0,7,7,24,,,,1187.3363439999994,None,1186.1532611000002,1187.353137099999,s,1,典雅,k,1,0.45248370000263094,0.654297700002644,fjc,f,22,2024_Apr_15_1428,mian,2021.2.3,59.875506846191094,
,,,,,,1,1,pic/flanker6.png,pic/flanker4.png,s,k,pic/AffRest3.png,,,,,,,,,,,,,,,,,,,,,,,,,0,2,2,2,0,8,8,62,,,,1190.3531401,None,1189.1695799000008,1190.3697623000007,s,1,如愿,k,1,0.5376414999991539,0.8695705999998609,fjc,f,22,2024_Apr_15_1428,mian,2021.2.3,59.875506846191094,
,,,,,,1,0,pic/flanker5.png,pic/flanker3.png,a,l,pic/AffRest3.png,,,,,,,,,,,,,,,,,,,,,,,,,0,2,2,2,0,9,9,55,,,,1193.753072200001,None,1192.5698298000025,1193.7698845000014,a,1,胡涂,l,1,0.4964960999968753,0.9544504000004963,fjc,f,22,2024_Apr_15_1428,mian,2021.2.3,59.875506846191094,
,,,,,,0,0,pic/flanker6.png,pic/flanker2.png,a,l,pic/AffRest3.png,,,,,,,,,,,,,,,,,,,,,,,,,0,2,2,2,0,10,10,33,,,,1197.0698109000004,None,1195.886374400001,1197.0864182000005,a,1,争吵,l,1,0.3658318000016152,0.6437435000007099,fjc,f,22,2024_Apr_15_1428,mian,2021.2.3,59.875506846191094,
,,,,,,0,1,pic/flanker5.png,pic/flanker1.png,s,k,pic/AffRest3.png,,,,,,,,,,,,,,,,,,,,,,,,,0,2,2,2,0,11,11,64,,,,1200.0197761000018,None,1198.836525900002,1200.0363825999993,s,1,享受,k,1,0.5460177999993903,0.7630008999985876,fjc,f,22,2024_Apr_15_1428,mian,2021.2.3,59.875506846191094,
,,,,,,1,0,pic/flanker6.png,pic/flanker4.png,s,l,pic/AffRest3.png,,,,,,,,,,,,,,,,,,,,,,,,,0,2,2,2,0,12,12,61,,,,1203.2530485999996,None,1202.0698698000015,1203.269855300001,s,1,缺乏,l,1,0.5176783999995678,1.4153387999976985,fjc,f,22,2024_Apr_15_1428,mian,2021.2.3,59.875506846191094,
,,,,,,0,1,pic/flanker6.png,pic/flanker2.png,a,k,pic/AffRest3.png,,,,,,,,,,,,,,,,,,,,,,,,,0,2,2,2,0,13,13,66,,,,1207.2197278999993,None,1206.0364155000025,1207.2365334000024,a,1,富足,l,0,0.3877665999971214,0.7704510999974445,fjc,f,22,2024_Apr_15_1428,mian,2021.2.3,59.875506846191094,
,,,,,,0,1,pic/flanker5.png,pic/flanker1.png,s,k,pic/AffRest3.png,,,,,,,,,,,,,,,,,,,,,,,,,0,2,2,2,0,14,14,0,,,,1210.2198190000017,None,1209.0363342000019,1210.2364753000002,s,1,诚恳,k,1,0.4521138999989489,0.8695402000012109,fjc,f,22,2024_Apr_15_1428,mian,2021.2.3,59.875506846191094,
,,,,,,0,0,pic/flanker5.png,pic/flanker1.png,s,l,pic/AffRest3.png,,,,,,,,,,,,,,,,,,,,,,,,,0,2,2,2,0,15,15,27,,,,1213.5524330000007,None,1212.3695160000025,1213.5695650000016,s,1,损害,l,1,0.2966740000010759,0.7361047000013059,fjc,f,22,2024_Apr_15_1428,mian,2021.2.3,59.875506846191094,
,,,,,,1,1,pic/flanker5.png,pic/flanker3.png,a,k,pic/AffRest3.png,,,,,,,,,,,,,,,,,,,,,,,,,0,2,2,2,0,16,16,20,,,,1216.5864924000016,None,1215.4031300000024,1216.6030095000024,a,1,豪放,k,1,0.5536968000014895,1.8244530000010855,fjc,f,22,2024_Apr_15_1428,mian,2021.2.3,59.875506846191094,
,,,,,,0,1,pic/flanker5.png,pic/flanker1.png,s,k,pic/AffRest3.png,,,,,,,,,,,,,,,,,,,,,,,,,0,2,2,2,0,17,17,56,,,,1220.9030643000006,None,1219.7200067000012,1220.9200127000004,s,1,热切,k,1,0.37528519999978016,0.9747695000005479,fjc,f,22,2024_Apr_15_1428,mian,2021.2.3,59.875506846191094,
,,,,,,1,0,pic/flanker6.png,pic/flanker4.png,s,l,pic/AffRest3.png,,,,,,,,,,,,,,,,,,,,,,,,,0,2,2,2,0,18,18,5,,,,1224.2030493999991,None,1223.0195760000024,1224.2198093000006,s,1,冷笑,l,1,0.528623800000787,0.9529342000023462,fjc,f,22,2024_Apr_15_1428,mian,2021.2.3,59.875506846191094,
,,,,,,1,1,pic/flanker6.png,pic/flanker4.png,s,k,pic/AffRest3.png,,,,,,,,,,,,,,,,,,,,,,,,,0,2,2,2,0,19,19,70,,,,1227.536344,None,1226.3531755000004,1227.5530107000013,s,1,舒畅,k,1,0.552397800001927,1.0616955000004964,fjc,f,22,2024_Apr_15_1428,mian,2021.2.3,59.875506846191094,
,,,,,,0,0,pic/flanker6.png,pic/flanker2.png,a,l,pic/AffRest3.png,,,,,,,,,,,,,,,,,,,,,,,,,0,2,2,2,0,20,20,73,,,,1231.0363118000023,None,1229.8528883,1231.0531340000016,a,1,逃避,l,1,0.6193830000011076,0.7855061999980535,fjc,f,22,2024_Apr_15_1428,mian,2021.2.3,59.875506846191094,
,,,,,,0,0,pic/flanker5.png,pic/flanker1.png,s,l,pic/AffRest3.png,,,,,,,,,,,,,,,,,,,,,,,,,0,2,2,2,0,21,21,3,,,,1234.3030351000016,None,1233.1197773999993,1234.3197968000022,s,1,黑暗,l,1,1.1074148000006971,0.6605703999994148,fjc,f,22,2024_Apr_15_1428,mian,2021.2.3,59.875506846191094,
,,,,,,1,1,pic/flanker6.png,pic/flanker4.png,s,k,pic/AffRest3.png,,,,,,,,,,,,,,,,,,,,,,,,,0,2,2,2,0,22,22,30,,,,1238.1029215000017,None,1236.919724200001,1238.1198177000006,s,1,赞成,k,1,0.50536700000157,0.6545532000018284,fjc,f,22,2024_Apr_15_1428,mian,2021.2.3,59.875506846191094,
,,,,,,0,1,pic/flanker6.png,pic/flanker2.png,a,k,pic/AffRest3.png,,,,,,,,,,,,,,,,,,,,,,,,,0,2,2,2,0,23,23,10,,,,1241.268927699999,None,1240.0863363000026,1241.285882600001,a,1,正直,k,1,0.5794345000031171,0.8549798999993072,fjc,f,22,2024_Apr_15_1428,mian,2021.2.3,59.875506846191094,
,,,,,,1,1,pic/flanker6.png,pic/flanker4.png,s,k,pic/AffRest3.png,,,,,,,,,,,,,,,,,,,,,,,,,0,2,2,2,0,24,24,6,,,,1244.7030185000003,None,1243.5196729000018,1244.7196752000018,s,1,丰满,k,1,0.5184915000027104,0.5906568000027619,fjc,f,22,2024_Apr_15_1428,mian,2021.2.3,59.875506846191094,
,,,,,,0,1,pic/flanker6.png,pic/flanker2.png,a,k,pic/AffRest3.png,,,,,,,,,,,,,,,,,,,,,,,,,0,2,2,2,0,25,25,58,,,,1247.8697869000025,None,1246.6861449999997,1247.8863485000002,a,1,留恋,k,1,0.48128799999904004,0.7525127999979304,fjc,f,22,2024_Apr_15_1428,mian,2021.2.3,59.875506846191094,
,,,,,,1,1,pic/flanker5.png,pic/flanker3.png,a,k,pic/AffRest3.png,,,,,,,,,,,,,,,,,,,,,,,,,0,2,2,2,0,26,26,76,,,,1251.1363990999998,None,1249.9530309000002,1251.1530629000008,None,0,羡慕,k,1,,1.2181603999997606,fjc,f,22,2024_Apr_15_1428,mian,2021.2.3,59.875506846191094,
,,,,,,0,0,pic/flanker6.png,pic/flanker2.png,a,l,pic/AffRest3.png,,,,,,,,,,,,,,,,,,,,,,,,,0,2,2,2,0,27,27,41,,,,1255.6697320999992,None,1254.486342600001,1255.6864571000006,a,1,郁闷,l,1,0.4118223000004946,1.2159116000002541,fjc,f,22,2024_Apr_15_1428,mian,2021.2.3,59.875506846191094,
,,,,,,0,0,pic/flanker5.png,pic/flanker1.png,s,l,pic/AffRest3.png,,,,,,,,,,,,,,,,,,,,,,,,,0,2,2,2,0,28,28,11,,,,1259.353259800002,None,1258.1696497000012,1259.3693344999992,s,1,闷热,l,1,0.4307418999997026,0.723786000002292,fjc,f,22,2024_Apr_15_1428,mian,2021.2.3,59.875506846191094,
,,,,,,1,0,pic/flanker6.png,pic/flanker4.png,s,l,pic/AffRest3.png,,,,,,,,,,,,,,,,,,,,,,,,,0,2,2,2,0,29,29,53,,,,1262.5697087000008,None,1261.3862883000002,1262.5864770000007,s,1,杂乱,l,1,0.6046004999989236,0.6716373999988718,fjc,f,22,2024_Apr_15_1428,mian,2021.2.3,59.875506846191094,
,,,,,,0,0,pic/flanker5.png,pic/flanker1.png,s,l,pic/AffRest3.png,,,,,,,,,,,,,,,,,,,,,,,,,0,2,2,2,0,30,30,67,,,,1265.7530058000011,None,1264.5697311000004,1265.769656700002,s,1,别扭,l,1,0.4564642000004824,0.5829006999992998,fjc,f,22,2024_Apr_15_1428,mian,2021.2.3,59.875506846191094,
,,,,,,1,0,pic/flanker5.png,pic/flanker3.png,a,l,pic/AffRest3.png,,,,,,,,,,,,,,,,,,,,,,,,,0,2,2,2,0,31,31,7,,,,1268.6862920000021,None,1267.5032155000008,1268.7029546000012,a,1,假冒,l,1,0.6394682000027387,0.8832518999988679,fjc,f,22,2024_Apr_15_1428,mian,2021.2.3,59.875506846191094,
,,,,,,1,0,pic/flanker5.png,pic/flanker3.png,a,l,pic/AffRest3.png,,,,,,,,,,,,,,,,,,,,,,,,,0,2,2,2,0,32,32,31,,,,1272.102731400002,None,1270.9191944000013,1272.1193652000002,s,0,浪费,l,1,0.31936859999768785,0.9898493999971834,fjc,f,22,2024_Apr_15_1428,mian,2021.2.3,59.875506846191094,
,,,,,,0,0,pic/flanker5.png,pic/flanker1.png,s,l,pic/AffRest3.png,,,,,,,,,,,,,,,,,,,,,,,,,0,2,2,2,0,33,33,43,,,,1275.4529144000007,None,1274.2696638000016,1275.4696912,s,1,处罚,l,1,0.4509414999993169,1.1604322999992291,fjc,f,22,2024_Apr_15_1428,mian,2021.2.3,59.875506846191094,
,,,,,,1,1,pic/flanker5.png,pic/flanker3.png,a,k,pic/AffRest3.png,,,,,,,,,,,,,,,,,,,,,,,,,0,2,2,2,0,34,34,44,,,,1279.1196882000004,None,1277.9364000000023,1279.1361133999999,a,1,圣洁,k,1,0.5028330999994068,0.6633416000004217,fjc,f,22,2024_Apr_15_1428,mian,2021.2.3,59.875506846191094,
,,,,,,1,0,pic/flanker6.png,pic/flanker4.png,s,l,pic/AffRest3.png,,,,,,,,,,,,,,,,,,,,,,,,,0,2,2,2,0,35,35,77,,,,1282.1863845000007,None,1281.0046684000008,1282.2197121999998,s,1,鲁莽,l,1,0.6132880999975896,0.7754807000019355,fjc,f,22,2024_Apr_15_1428,mian,2021.2.3,59.875506846191094,
,,,,,,1,0,pic/flanker5.png,pic/flanker3.png,a,l,pic/AffRest3.png,,,,,,,,,,,,,,,,,,,,,,,,,0,2,2,2,0,36,36,71,,,,1285.6029999999992,None,1284.4196157000006,1285.6196630000013,None,0,悲观,l,1,,2.3010007000011683,fjc,f,22,2024_Apr_15_1428,mian,2021.2.3,59.875506846191094,
,,,,,,1,0,pic/flanker5.png,pic/flanker3.png,a,l,pic/AffRest3.png,,,,,,,,,,,,,,,,,,,,,,,,,0,2,2,2,0,37,37,39,,,,1291.2863333999994,None,1290.1029815000002,1291.3029487000022,a,1,嘲笑,l,1,0.7247930000012275,0.9994583000006969,fjc,f,22,2024_Apr_15_1428,mian,2021.2.3,59.875506846191094,
,,,,,,1,1,pic/flanker5.png,pic/flanker3.png,a,k,pic/AffRest3.png,,,,,,,,,,,,,,,,,,,,,,,,,0,2,2,2,0,38,38,28,,,,1294.9860281,None,1293.8029209000015,1295.0026768000025,a,1,秀丽,k,1,0.7444743000014569,1.4467586999999185,fjc,f,22,2024_Apr_15_1428,mian,2021.2.3,59.875506846191094,
,,,,,,1,1,pic/flanker6.png,pic/flanker4.png,s,k,pic/AffRest3.png,,,,,,,,,,,,,,,,,,,,,,,,,0,2,2,2,0,39,39,22,,,,1299.2196965000003,None,1298.0363682999996,1299.2363853000024,s,1,振作,l,0,0.5371943999998621,1.0291964999996708,fjc,f,22,2024_Apr_15_1428,mian,2021.2.3,59.875506846191094,
,,,,,,0,0,pic/flanker6.png,pic/flanker2.png,a,l,pic/AffRest3.png,,,,,,,,,,,,,,,,,,,,,,,,,0,2,2,2,0,40,40,17,,,,1302.8532014000011,None,1301.6697177000024,1302.869845000001,a,1,怀疑,k,0,0.5175407999995514,1.0086152000003494,fjc,f,22,2024_Apr_15_1428,mian,2021.2.3,59.875506846191094,
,,,,,,1,1,pic/flanker5.png,pic/flanker3.png,a,k,pic/AffRest3.png,,,,,,,,,,,,,,,,,,,,,,,,,0,2,2,2,0,41,41,4,,,,1306.2698739000007,None,1305.0861686000026,1306.286344600001,a,1,廉洁,l,0,0.7405873000025167,0.9220888999989256,fjc,f,22,2024_Apr_15_1428,mian,2021.2.3,59.875506846191094,
,,,,,,0,1,pic/flanker6.png,pic/flanker2.png,a,k,pic/AffRest3.png,,,,,,,,,,,,,,,,,,,,,,,,,0,2,2,2,0,42,42,74,,,,1309.7862870999998,None,1308.602637,1309.802769500002,a,1,卓越,k,1,0.4651787000002514,1.8558105999982217,fjc,f,22,2024_Apr_15_1428,mian,2021.2.3,59.875506846191094,
,,,,,,1,0,pic/flanker6.png,pic/flanker4.png,s,l,pic/AffRest3.png,,,,,,,,,,,,,,,,,,,,,,,,,0,2,2,2,0,43,43,29,,,,1314.1530698000024,None,1312.969517900001,1314.1697406000021,s,1,排斥,k,0,0.5513535999998567,0.6241147000000637,fjc,f,22,2024_Apr_15_1428,mian,2021.2.3,59.875506846191094,
,,,,,,1,0,pic/flanker5.png,pic/flanker3.png,a,l,pic/AffRest3.png,,,,,,,,,,,,,,,,,,,,,,,,,0,2,2,2,0,44,44,79,,,,1317.2864381,None,1316.1029688000017,1317.3028827000016,a,1,伤心,l,1,0.5190269000013359,1.6013107999970089,fjc,f,22,2024_Apr_15_1428,mian,2021.2.3,59.875506846191094,
,,,,,,1,0,pic/flanker6.png,pic/flanker4.png,s,l,pic/AffRest3.png,,,,,,,,,,,,,,,,,,,,,,,,,0,2,2,2,0,45,45,45,,,,1321.4528678999995,None,1320.2694855000009,1321.469074200002,s,1,沮丧,l,1,0.5365153000020655,0.635902599999099,fjc,f,22,2024_Apr_15_1428,mian,2021.2.3,59.875506846191094,
,,,,,,0,0,pic/flanker5.png,pic/flanker1.png,s,l,pic/AffRest3.png,,,,,,,,,,,,,,,,,,,,,,,,,0,2,2,2,0,46,46,35,,,,1324.5364159000019,None,1323.3531385999995,1324.5531407000017,s,1,轻率,l,1,0.33861330000218004,0.6751843999991252,fjc,f,22,2024_Apr_15_1428,mian,2021.2.3,59.875506846191094,
,,,,,,1,1,pic/flanker5.png,pic/flanker3.png,a,k,pic/AffRest3.png,,,,,,,,,,,,,,,,,,,,,,,,,0,2,2,2,0,47,47,68,,,,1327.4364707999994,None,1326.2527762999998,1327.4529985000008,a,1,雄厚,k,1,0.5786914999989676,0.7579045999991649,fjc,f,22,2024_Apr_15_1428,mian,2021.2.3,59.875506846191094,
,,,,,,0,1,pic/flanker5.png,pic/flanker1.png,s,k,pic/AffRest3.png,,,,,,,,,,,,,,,,,,,,,,,,,0,2,2,2,0,48,48,40,,,,1330.8364502000004,None,1329.6527913999998,1330.853130200001,s,1,旺盛,k,1,0.4449830999983533,1.3440373999983422,fjc,f,22,2024_Apr_15_1428,mian,2021.2.3,59.875506846191094,
,,,,,,1,1,pic/flanker5.png,pic/flanker3.png,a,k,pic/AffRest3.png,,,,,,,,,,,,,,,,,,,,,,,,,0,2,2,2,0,49,49,36,,,,1334.6863419000001,None,1333.502814800002,1334.7031527,a,1,俊秀,k,1,0.5199238999994122,0.6838241000004928,fjc,f,22,2024_Apr_15_1428,mian,2021.2.3,59.875506846191094,
,,,,,,0,0,pic/flanker6.png,pic/flanker2.png,a,l,pic/AffRest3.png,,,,,,,,,,,,,,,,,,,,,,,,,0,2,2,2,0,50,50,57,,,,1337.8689828000024,None,1336.6861566000007,1337.8863874000017,a,1,自卑,l,1,0.7532517999970878,0.7151077000016812,fjc,f,22,2024_Apr_15_1428,mian,2021.2.3,59.875506846191094,
,,,,,,0,1,pic/flanker5.png,pic/flanker1.png,s,k,pic/AffRest3.png,,,,,,,,,,,,,,,,,,,,,,,,,0,2,2,2,0,51,51,72,,,,1341.2527234000008,None,1340.0696013000015,1341.2695004000016,s,1,奉献,k,1,0.490585600000486,0.9724704999971436,fjc,f,22,2024_Apr_15_1428,mian,2021.2.3,59.875506846191094,
,,,,,,0,1,pic/flanker6.png,pic/flanker2.png,a,k,pic/AffRest3.png,,,,,,,,,,,,,,,,,,,,,,,,,0,2,2,2,0,52,52,18,,,,1344.6855878999995,None,1343.5028227000003,1344.7020430000011,a,1,前进,k,1,0.447111199999199,1.1345331000011356,fjc,f,22,2024_Apr_15_1428,mian,2021.2.3,59.875506846191094,
,,,,,,1,0,pic/flanker5.png,pic/flanker3.png,a,l,pic/AffRest3.png,,,,,,,,,,,,,,,,,,,,,,,,,0,2,2,2,0,53,53,23,,,,1348.1528658999996,None,1346.9693866000016,1348.1696181000007,a,1,堵塞,l,1,0.7481910999995307,0.7566538999999466,fjc,f,22,2024_Apr_15_1428,mian,2021.2.3,59.875506846191094,
,,,,,,1,1,pic/flanker6.png,pic/flanker4.png,s,k,pic/AffRest3.png,,,,,,,,,,,,,,,,,,,,,,,,,0,2,2,2,0,54,54,46,,,,1351.619580300001,None,1350.4362543999996,1351.6361582999998,s,1,优雅,k,1,0.5932897999991837,1.2836884000025748,fjc,f,22,2024_Apr_15_1428,mian,2021.2.3,59.875506846191094,
,,,,,,0,0,pic/flanker6.png,pic/flanker2.png,a,l,pic/AffRest3.png,,,,,,,,,,,,,,,,,,,,,,,,,0,2,2,2,0,55,55,9,,,,1355.4698198000006,None,1354.286088500001,1355.4864725000007,a,1,丢失,l,1,0.4622276000009151,1.0749111000004632,fjc,f,22,2024_Apr_15_1428,mian,2021.2.3,59.875506846191094,
,,,,,,0,1,pic/flanker5.png,pic/flanker1.png,s,k,pic/AffRest3.png,,,,,,,,,,,,,,,,,,,,,,,,,0,2,2,2,0,56,56,32,,,,1358.9861268999994,None,1357.802900300001,1359.0027398999991,s,1,珍藏,k,1,0.507090099999914,0.7349291999998968,fjc,f,22,2024_Apr_15_1428,mian,2021.2.3,59.875506846191094,
,,,,,,0,0,pic/flanker6.png,pic/flanker2.png,a,l,pic/AffRest3.png,,,,,,,,,,,,,,,,,,,,,,,,,0,2,2,2,0,57,57,1,,,,1362.0694423000023,None,1360.8856210000013,1362.0862386000008,a,1,忧虑,k,0,0.4517564999987371,1.2660801999991236,fjc,f,22,2024_Apr_15_1428,mian,2021.2.3,59.875506846191094,
,,,,,,1,0,pic/flanker6.png,pic/flanker4.png,s,l,pic/AffRest3.png,,,,,,,,,,,,,,,,,,,,,,,,,0,2,2,2,0,58,58,21,,,,1365.6697843000002,None,1364.486084600001,1365.6861733000005,s,1,失意,l,1,0.5802704999987327,0.7721882999976515,fjc,f,22,2024_Apr_15_1428,mian,2021.2.3,59.875506846191094,
,,,,,,1,0,pic/flanker5.png,pic/flanker3.png,a,l,pic/AffRest3.png,,,,,,,,,,,,,,,,,,,,,,,,,0,2,2,2,0,59,59,47,,,,1368.9029121000021,None,1367.7194942000024,1368.9194981,a,1,罚款,l,1,0.5200363000003563,1.7893767999994452,fjc,f,22,2024_Apr_15_1428,mian,2021.2.3,59.875506846191094,
,,,,,,1,1,pic/flanker6.png,pic/flanker4.png,s,k,pic/AffRest3.png,,,,,,,,,,,,,,,,,,,,,,,,,0,2,2,2,0,60,60,78,,,,1373.2528598999997,None,1372.0694999000007,1373.269478099999,s,1,精致,k,1,0.5791196999998647,1.0078977000011946,fjc,f,22,2024_Apr_15_1428,mian,2021.2.3,59.875506846191094,
,,,,,,0,1,pic/flanker5.png,pic/flanker1.png,s,k,pic/AffRest3.png,,,,,,,,,,,,,,,,,,,,,,,,,0,2,2,2,0,61,61,8,,,,1376.8028914000024,None,1375.6194436000005,1376.8195626000015,s,1,吉祥,k,1,0.4528857999976026,0.642856300000858,fjc,f,22,2024_Apr_15_1428,mian,2021.2.3,59.875506846191094,
,,,,,,1,0,pic/flanker6.png,pic/flanker4.png,s,l,pic/AffRest3.png,,,,,,,,,,,,,,,,,,,,,,,,,0,2,2,2,0,62,62,69,,,,1379.9528759000023,None,1378.7693631000002,1379.9686962000014,s,1,落后,l,1,0.5265140999981668,0.8253800999991654,fjc,f,22,2024_Apr_15_1428,mian,2021.2.3,59.875506846191094,
,,,,,,1,1,pic/flanker6.png,pic/flanker4.png,s,k,pic/AffRest3.png,,,,,,,,,,,,,,,,,,,,,,,,,0,2,2,2,0,63,63,54,,,,1383.2194633,None,1382.0361749000003,1383.2362848000012,s,1,顽强,k,1,0.5297830000017711,1.4298167999986617,fjc,f,22,2024_Apr_15_1428,mian,2021.2.3,59.875506846191094,
,,,,,,0,1,pic/flanker5.png,pic/flanker1.png,s,k,pic/AffRest3.png,,,,,,,,,,,,,,,,,,,,,,,,,0,2,2,2,0,64,64,48,,,,1387.1528897999997,None,1385.9694101999994,1387.1696143000008,s,1,生动,k,1,0.3368743000028189,0.6151041999983136,fjc,f,22,2024_Apr_15_1428,mian,2021.2.3,59.875506846191094,
,,,,,,0,1,pic/flanker6.png,pic/flanker2.png,a,k,pic/AffRest3.png,,,,,,,,,,,,,,,,,,,,,,,,,0,2,2,2,0,65,65,26,,,,1390.1362267000004,None,1388.952849199999,1390.1528599000012,a,1,有利,k,1,0.5263120000017807,0.5527269999984128,fjc,f,22,2024_Apr_15_1428,mian,2021.2.3,59.875506846191094,
,,,,,,0,1,pic/flanker5.png,pic/flanker1.png,s,k,pic/AffRest3.png,,,,,,,,,,,,,,,,,,,,,,,,,0,2,2,2,0,66,66,16,,,,1393.1693754000007,None,1391.9861013000009,1393.186175499999,s,1,清秀,k,1,0.5023131999987527,0.6763229999996838,fjc,f,22,2024_Apr_15_1428,mian,2021.2.3,59.875506846191094,
,,,,,,0,1,pic/flanker6.png,pic/flanker2.png,a,k,pic/AffRest3.png,,,,,,,,,,,,,,,,,,,,,,,,,0,2,2,2,0,67,67,50,,,,1396.3527202000005,None,1395.1691945999992,1396.3694080999994,a,1,公平,k,1,0.28389980000065407,0.532197599997744,fjc,f,22,2024_Apr_15_1428,mian,2021.2.3,59.875506846191094,
,,,,,,0,1,pic/flanker6.png,pic/flanker2.png,a,k,pic/AffRest3.png,,,,,,,,,,,,,,,,,,,,,,,,,0,2,2,2,0,68,68,42,,,,1399.2028310999995,None,1398.019435099999,1399.2194254999995,a,1,富丽,k,1,0.5848648999999568,0.5408594000000448,fjc,f,22,2024_Apr_15_1428,mian,2021.2.3,59.875506846191094,
,,,,,,0,0,pic/flanker5.png,pic/flanker1.png,s,l,pic/AffRest3.png,,,,,,,,,,,,,,,,,,,,,,,,,0,2,2,2,0,69,69,51,,,,1402.3527061000023,None,1401.1693382000012,1402.3694448000024,s,1,穷苦,l,1,0.3714395999995759,1.309805900000356,fjc,f,22,2024_Apr_15_1428,mian,2021.2.3,59.875506846191094,
,,,,,,0,0,pic/flanker6.png,pic/flanker2.png,a,l,pic/AffRest3.png,,,,,,,,,,,,,,,,,,,,,,,,,0,2,2,2,0,70,70,25,,,,1405.9527602000016,None,1404.7696432000012,1405.9692565000005,a,1,厌恶,k,0,0.3296542000025511,1.1862388999979885,fjc,f,22,2024_Apr_15_1428,mian,2021.2.3,59.875506846191094,
,,,,,,0,1,pic/flanker6.png,pic/flanker2.png,a,k,pic/AffRest3.png,,,,,,,,,,,,,,,,,,,,,,,,,0,2,2,2,0,71,71,34,,,,1409.5192649000019,None,1408.3359144999995,1409.536098200002,a,1,瑰丽,k,1,0.36325420000139275,0.8711136000019906,fjc,f,22,2024_Apr_15_1428,mian,2021.2.3,59.875506846191094,
,,,,,,1,0,pic/flanker6.png,pic/flanker4.png,s,l,pic/AffRest3.png,,,,,,,,,,,,,,,,,,,,,,,,,0,2,2,2,0,72,72,37,,,,1412.7360319,None,1411.5526477999992,1412.7526968999991,a,0,撒谎,l,1,0.31700119999732124,0.7565049000004365,fjc,f,22,2024_Apr_15_1428,mian,2021.2.3,59.875506846191094,
,,,,,,1,0,pic/flanker5.png,pic/flanker3.png,a,l,pic/AffRest3.png,,,,,,,,,,,,,,,,,,,,,,,,,0,2,2,2,0,73,73,15,,,,1415.8027273000007,None,1414.6192717000013,1415.819529100001,a,1,消沉,k,0,0.6922033000009833,0.8953865999974369,fjc,f,22,2024_Apr_15_1428,mian,2021.2.3,59.875506846191094,
,,,,,,0,0,pic/flanker5.png,pic/flanker1.png,s,l,pic/AffRest3.png,,,,,,,,,,,,,,,,,,,,,,,,,0,2,2,2,0,74,74,19,,,,1419.3193108000014,None,1418.1358538000022,1419.3359979000015,s,1,烦恼,l,1,0.6360186000019894,0.7674606000000495,fjc,f,22,2024_Apr_15_1428,mian,2021.2.3,59.875506846191094,
,,,,,,1,1,pic/flanker5.png,pic/flanker3.png,a,k,pic/AffRest3.png,,,,,,,,,,,,,,,,,,,,,,,,,0,2,2,2,0,75,75,52,,,,1422.6194498000004,None,1421.435941300002,1422.6359150999997,a,1,畅销,k,1,0.4692466000014974,0.7197871999997005,fjc,f,22,2024_Apr_15_1428,mian,2021.2.3,59.875506846191094,
,,,,,,1,1,pic/flanker6.png,pic/flanker4.png,s,k,pic/AffRest3.png,,,,,,,,,,,,,,,,,,,,,,,,,0,2,2,2,0,76,76,38,,,,1425.669177300002,None,1424.4860384000021,1425.6860699000026,s,1,永恒,k,1,1.0483029999995779,0.7484033000000636,fjc,f,22,2024_Apr_15_1428,mian,2021.2.3,59.875506846191094,
,,,,,,0,0,pic/flanker5.png,pic/flanker1.png,s,l,pic/AffRest3.png,,,,,,,,,,,,,,,,,,,,,,,,,0,2,2,2,0,77,77,75,,,,1429.3191456000022,None,1428.1358967000015,1429.3358531000013,s,1,懒惰,l,1,0.5059861000008823,0.9852428999984113,fjc,f,22,2024_Apr_15_1428,mian,2021.2.3,59.875506846191094,
,,,,,,1,0,pic/flanker5.png,pic/flanker3.png,a,l,pic/AffRest3.png,,,,,,,,,,,,,,,,,,,,,,,,,0,2,2,2,0,78,78,63,,,,1432.6526959000003,None,1431.4693779000008,1432.6693742999996,a,1,禁止,l,1,0.7028301999998803,0.9223776999970141,fjc,f,22,2024_Apr_15_1428,mian,2021.2.3,59.875506846191094,
