target,反应类型,条件,truetarget,CorAns,Position,congruency,AffValue,flankerPic,targetPic,corAnsF,corAnsA,RestPic,returnPractice.thisRepN,returnPractice.thisTrialN,returnPractice.thisN,returnPractice.thisIndex,pracNum.thisRepN,pracNum.thisTrialN,pracNum.thisN,pracNum.thisIndex,NumBlock1.thisRepN,NumBlock1.thisTrialN,NumBlock1.thisN,NumBlock1.thisIndex,NumBlock2.thisRepN,NumBlock2.thisTrialN,NumBlock2.thisN,NumBlock2.thisIndex,returnPrac.thisRepN,returnPrac.thisTrialN,returnPrac.thisN,returnPrac.thisIndex,PracAff.thisRepN,PracAff.thisTrialN,PracAff.thisN,PracAff.thisIndex,AffBlocks.thisRepN,AffBlocks.thisTrialN,AffBlocks.thisN,AffBlocks.thisIndex,AffBlock1.thisRepN,AffBlock1.thisTrialN,AffBlock1.thisN,AffBlock1.thisIndex,respNum2word.keys,respNum2word.corr,respNum2word.rt,text.started,text.stopped,blank.started,blank.stopped,respFlanker.keys,respFlanker.corr,thisWord,respAffWord.keys,respAffWord.corr,respAffWord.rt,respFlanker.rt,姓名,性别,年龄（周岁）,date,expName,psychopyVersion,frameRate
2A,1,1,A,a,"[0.2, 0.2]",,,,,,,,0,0,0,0,0,0,0,0,,,,,,,,,,,,,,,,,,,,,,,,,a,1,4.001047,,,,,,,,,,,,gsx,f,19,2024_Apr_17_1641,mian,2021.2.3,60.18697686
A9,1,2,A,a,"[-0.2, 0.2]",,,,,,,,0,0,0,0,0,1,1,1,,,,,,,,,,,,,,,,,,,,,,,,,a,1,0.9809173,,,,,,,,,,,,gsx,f,19,2024_Apr_17_1641,mian,2021.2.3,60.18697686
7e,2,1,7,a,"[-0.2, -0.2]",,,,,,,,0,0,0,0,0,2,2,2,,,,,,,,,,,,,,,,,,,,,,,,,a,1,2.2428805,,,,,,,,,,,,gsx,f,19,2024_Apr_17_1641,mian,2021.2.3,60.18697686
9H,2,2,9,a,"[0.2, -0.2]",,,,,,,,0,0,0,0,0,3,3,3,,,,,,,,,,,,,,,,,,,,,,,,,a,1,1.2473762,,,,,,,,,,,,gsx,f,19,2024_Apr_17_1641,mian,2021.2.3,60.18697686
h4,1,1,h,l,"[0.2, 0.2]",,,,,,,,0,0,0,0,0,4,4,4,,,,,,,,,,,,,,,,,,,,,,,,,l,1,1.4143884,,,,,,,,,,,,gsx,f,19,2024_Apr_17_1641,mian,2021.2.3,60.18697686
4H,1,2,H,a,"[-0.2, 0.2]",,,,,,,,0,0,0,0,0,5,5,5,,,,,,,,,,,,,,,,,,,,,,,,,a,1,0.8474379,,,,,,,,,,,,gsx,f,19,2024_Apr_17_1641,mian,2021.2.3,60.18697686
F8,2,1,8,l,"[-0.2, -0.2]",,,,,,,,0,0,0,0,0,6,6,6,,,,,,,,,,,,,,,,,,,,,,,,,l,1,0.8914013,,,,,,,,,,,,gsx,f,19,2024_Apr_17_1641,mian,2021.2.3,60.18697686
h7,2,2,7,a,"[0.2, -0.2]",,,,,,,,0,0,0,0,0,7,7,7,,,,,,,,,,,,,,,,,,,,,,,,,a,1,0.6735671,,,,,,,,,,,,gsx,f,19,2024_Apr_17_1641,mian,2021.2.3,60.18697686
5e,1,1,e,l,"[0.2, 0.2]",,,,,,,,0,0,0,0,0,8,8,8,,,,,,,,,,,,,,,,,,,,,,,,,l,1,1.3352706,,,,,,,,,,,,gsx,f,19,2024_Apr_17_1641,mian,2021.2.3,60.18697686
e8,1,2,e,l,"[-0.2, 0.2]",,,,,,,,0,0,0,0,0,9,9,9,,,,,,,,,,,,,,,,,,,,,,,,,l,1,0.6707778,,,,,,,,,,,,gsx,f,19,2024_Apr_17_1641,mian,2021.2.3,60.18697686
4E,2,1,4,l,"[-0.2, -0.2]",,,,,,,,0,0,0,0,0,10,10,10,,,,,,,,,,,,,,,,,,,,,,,,,l,1,1.5877333,,,,,,,,,,,,gsx,f,19,2024_Apr_17_1641,mian,2021.2.3,60.18697686
5H,2,2,5,a,"[0.2, -0.2]",,,,,,,,0,0,0,0,0,11,11,11,,,,,,,,,,,,,,,,,,,,,,,,,a,1,1.2908646,,,,,,,,,,,,gsx,f,19,2024_Apr_17_1641,mian,2021.2.3,60.18697686
9E,1,1,E,a,"[0.2, 0.2]",,,,,,,,0,0,0,0,0,12,12,12,,,,,,,,,,,,,,,,,,,,,,,,,a,1,1.3715728,,,,,,,,,,,,gsx,f,19,2024_Apr_17_1641,mian,2021.2.3,60.18697686
h9,1,2,h,l,"[-0.2, 0.2]",,,,,,,,0,0,0,0,0,13,13,13,,,,,,,,,,,,,,,,,,,,,,,,,l,1,1.2437703,,,,,,,,,,,,gsx,f,19,2024_Apr_17_1641,mian,2021.2.3,60.18697686
2a,2,1,2,l,"[-0.2, -0.2]",,,,,,,,0,0,0,0,0,14,14,14,,,,,,,,,,,,,,,,,,,,,,,,,l,1,0.8858489,,,,,,,,,,,,gsx,f,19,2024_Apr_17_1641,mian,2021.2.3,60.18697686
e5,2,2,5,a,"[0.2, -0.2]",,,,,,,,0,0,0,0,0,15,15,15,,,,,,,,,,,,,,,,,,,,,,,,,a,1,0.775852,,,,,,,,,,,,gsx,f,19,2024_Apr_17_1641,mian,2021.2.3,60.18697686
A5,1,1,A,a,"[0.2, 0.2]",,,,,,,,0,0,0,0,0,16,16,16,,,,,,,,,,,,,,,,,,,,,,,,,a,1,0.5881159,,,,,,,,,,,,gsx,f,19,2024_Apr_17_1641,mian,2021.2.3,60.18697686
a6,1,2,a,l,"[-0.2, 0.2]",,,,,,,,0,0,0,0,0,17,17,17,,,,,,,,,,,,,,,,,,,,,,,,,l,1,0.7018296,,,,,,,,,,,,gsx,f,19,2024_Apr_17_1641,mian,2021.2.3,60.18697686
2F,2,1,2,l,"[-0.2, -0.2]",,,,,,,,0,0,0,0,0,18,18,18,,,,,,,,,,,,,,,,,,,,,,,,,l,1,1.0472181,,,,,,,,,,,,gsx,f,19,2024_Apr_17_1641,mian,2021.2.3,60.18697686
e4,2,2,4,l,"[0.2, -0.2]",,,,,,,,0,0,0,0,0,19,19,19,,,,,,,,,,,,,,,,,,,,,,,,,l,1,0.7503788,,,,,,,,,,,,gsx,f,19,2024_Apr_17_1641,mian,2021.2.3,60.18697686
,,,,,,,,,,,,,0,0,0,0,,,,,,,,,,,,,,,,,,,,,,,,,,,,,,,,,,,,,,,,,,,gsx,f,19,2024_Apr_17_1641,mian,2021.2.3,60.18697686
7h,1,1,h,l,"[0.2, 0.2]",,,,,,,,,,,,,,,,0,0,0,0,,,,,,,,,,,,,,,,,,,,,l,1,1.5173339,,,,,,,,,,,,gsx,f,19,2024_Apr_17_1641,mian,2021.2.3,60.18697686
8F,1,2,F,a,"[-0.2, 0.2]",,,,,,,,,,,,,,,,0,1,1,1,,,,,,,,,,,,,,,,,,,,,a,1,2.1591967,,,,,,,,,,,,gsx,f,19,2024_Apr_17_1641,mian,2021.2.3,60.18697686
8h,2,1,8,l,"[-0.2, -0.2]",,,,,,,,,,,,,,,,0,2,2,2,,,,,,,,,,,,,,,,,,,,,l,1,3.6011433,,,,,,,,,,,,gsx,f,19,2024_Apr_17_1641,mian,2021.2.3,60.18697686
a2,2,2,2,l,"[0.2, -0.2]",,,,,,,,,,,,,,,,0,3,3,3,,,,,,,,,,,,,,,,,,,,,l,1,0.8620763,,,,,,,,,,,,gsx,f,19,2024_Apr_17_1641,mian,2021.2.3,60.18697686
8f,1,1,f,l,"[0.2, 0.2]",,,,,,,,,,,,,,,,0,4,4,4,,,,,,,,,,,,,,,,,,,,,l,1,1.3689345,,,,,,,,,,,,gsx,f,19,2024_Apr_17_1641,mian,2021.2.3,60.18697686
6a,1,2,a,l,"[-0.2, 0.2]",,,,,,,,,,,,,,,,0,5,5,5,,,,,,,,,,,,,,,,,,,,,l,1,0.5876998,,,,,,,,,,,,gsx,f,19,2024_Apr_17_1641,mian,2021.2.3,60.18697686
h6,2,1,6,l,"[-0.2, -0.2]",,,,,,,,,,,,,,,,0,6,6,6,,,,,,,,,,,,,,,,,,,,,l,1,0.6978206,,,,,,,,,,,,gsx,f,19,2024_Apr_17_1641,mian,2021.2.3,60.18697686
f9,2,2,9,a,"[0.2, -0.2]",,,,,,,,,,,,,,,,0,7,7,7,,,,,,,,,,,,,,,,,,,,,a,1,0.7469851,,,,,,,,,,,,gsx,f,19,2024_Apr_17_1641,mian,2021.2.3,60.18697686
E4,1,1,E,a,"[0.2, 0.2]",,,,,,,,,,,,,,,,0,8,8,8,,,,,,,,,,,,,,,,,,,,,a,1,1.0684209,,,,,,,,,,,,gsx,f,19,2024_Apr_17_1641,mian,2021.2.3,60.18697686
6e,1,2,e,l,"[-0.2, 0.2]",,,,,,,,,,,,,,,,0,9,9,9,,,,,,,,,,,,,,,,,,,,,l,1,0.675756,,,,,,,,,,,,gsx,f,19,2024_Apr_17_1641,mian,2021.2.3,60.18697686
5G,2,1,5,a,"[-0.2, -0.2]",,,,,,,,,,,,,,,,0,10,10,10,,,,,,,,,,,,,,,,,,,,,a,1,1.040112,,,,,,,,,,,,gsx,f,19,2024_Apr_17_1641,mian,2021.2.3,60.18697686
h3,2,2,3,a,"[0.2, -0.2]",,,,,,,,,,,,,,,,0,11,11,11,,,,,,,,,,,,,,,,,,,,,a,1,0.6724681,,,,,,,,,,,,gsx,f,19,2024_Apr_17_1641,mian,2021.2.3,60.18697686
9e,1,1,e,l,"[0.2, 0.2]",,,,,,,,,,,,,,,,0,12,12,12,,,,,,,,,,,,,,,,,,,,,l,1,1.4596587,,,,,,,,,,,,gsx,f,19,2024_Apr_17_1641,mian,2021.2.3,60.18697686
a8,1,2,a,l,"[-0.2, 0.2]",,,,,,,,,,,,,,,,0,13,13,13,,,,,,,,,,,,,,,,,,,,,l,1,1.6586058,,,,,,,,,,,,gsx,f,19,2024_Apr_17_1641,mian,2021.2.3,60.18697686
e8,2,1,8,l,"[-0.2, -0.2]",,,,,,,,,,,,,,,,0,14,14,14,,,,,,,,,,,,,,,,,,,,,l,1,1.4209134,,,,,,,,,,,,gsx,f,19,2024_Apr_17_1641,mian,2021.2.3,60.18697686
3f,2,2,3,a,"[0.2, -0.2]",,,,,,,,,,,,,,,,0,15,15,15,,,,,,,,,,,,,,,,,,,,,a,1,1.2065071,,,,,,,,,,,,gsx,f,19,2024_Apr_17_1641,mian,2021.2.3,60.18697686
7f,1,1,f,l,"[0.2, 0.2]",,,,,,,,,,,,,,,,0,16,16,16,,,,,,,,,,,,,,,,,,,,,l,1,0.9609233,,,,,,,,,,,,gsx,f,19,2024_Apr_17_1641,mian,2021.2.3,60.18697686
a7,1,2,a,l,"[-0.2, 0.2]",,,,,,,,,,,,,,,,0,17,17,17,,,,,,,,,,,,,,,,,,,,,l,1,0.5767047,,,,,,,,,,,,gsx,f,19,2024_Apr_17_1641,mian,2021.2.3,60.18697686
5A,2,1,5,a,"[-0.2, -0.2]",,,,,,,,,,,,,,,,0,18,18,18,,,,,,,,,,,,,,,,,,,,,a,1,1.33725,,,,,,,,,,,,gsx,f,19,2024_Apr_17_1641,mian,2021.2.3,60.18697686
8g,2,2,8,l,"[0.2, -0.2]",,,,,,,,,,,,,,,,0,19,19,19,,,,,,,,,,,,,,,,,,,,,l,1,0.9372664,,,,,,,,,,,,gsx,f,19,2024_Apr_17_1641,mian,2021.2.3,60.18697686
9a,1,1,a,l,"[0.2, 0.2]",,,,,,,,,,,,,,,,0,20,20,20,,,,,,,,,,,,,,,,,,,,,l,1,2.680407,,,,,,,,,,,,gsx,f,19,2024_Apr_17_1641,mian,2021.2.3,60.18697686
f7,1,2,f,l,"[-0.2, 0.2]",,,,,,,,,,,,,,,,0,21,21,21,,,,,,,,,,,,,,,,,,,,,l,1,0.978023,,,,,,,,,,,,gsx,f,19,2024_Apr_17_1641,mian,2021.2.3,60.18697686
g9,2,1,9,a,"[-0.2, -0.2]",,,,,,,,,,,,,,,,0,22,22,22,,,,,,,,,,,,,,,,,,,,,a,1,1.0068377,,,,,,,,,,,,gsx,f,19,2024_Apr_17_1641,mian,2021.2.3,60.18697686
3h,2,2,3,a,"[0.2, -0.2]",,,,,,,,,,,,,,,,0,23,23,23,,,,,,,,,,,,,,,,,,,,,a,1,0.8486528,,,,,,,,,,,,gsx,f,19,2024_Apr_17_1641,mian,2021.2.3,60.18697686
E6,1,1,E,a,"[0.2, 0.2]",,,,,,,,,,,,,,,,0,24,24,24,,,,,,,,,,,,,,,,,,,,,a,1,0.8448702,,,,,,,,,,,,gsx,f,19,2024_Apr_17_1641,mian,2021.2.3,60.18697686
F6,1,2,F,a,"[-0.2, 0.2]",,,,,,,,,,,,,,,,0,25,25,25,,,,,,,,,,,,,,,,,,,,,a,1,0.4962636,,,,,,,,,,,,gsx,f,19,2024_Apr_17_1641,mian,2021.2.3,60.18697686
3A,2,1,3,a,"[-0.2, -0.2]",,,,,,,,,,,,,,,,0,26,26,26,,,,,,,,,,,,,,,,,,,,,a,1,1.9285283,,,,,,,,,,,,gsx,f,19,2024_Apr_17_1641,mian,2021.2.3,60.18697686
8H,2,2,8,l,"[0.2, -0.2]",,,,,,,,,,,,,,,,0,27,27,27,,,,,,,,,,,,,,,,,,,,,l,1,0.6184791,,,,,,,,,,,,gsx,f,19,2024_Apr_17_1641,mian,2021.2.3,60.18697686
5a,1,1,a,l,"[0.2, 0.2]",,,,,,,,,,,,,,,,0,28,28,28,,,,,,,,,,,,,,,,,,,,,l,1,1.2057747,,,,,,,,,,,,gsx,f,19,2024_Apr_17_1641,mian,2021.2.3,60.18697686
2h,1,2,h,l,"[-0.2, 0.2]",,,,,,,,,,,,,,,,0,29,29,29,,,,,,,,,,,,,,,,,,,,,l,1,2.0043694,,,,,,,,,,,,gsx,f,19,2024_Apr_17_1641,mian,2021.2.3,60.18697686
e5,2,1,5,a,"[-0.2, -0.2]",,,,,,,,,,,,,,,,0,30,30,30,,,,,,,,,,,,,,,,,,,,,a,1,1.2800205,,,,,,,,,,,,gsx,f,19,2024_Apr_17_1641,mian,2021.2.3,60.18697686
a3,2,2,3,a,"[0.2, -0.2]",,,,,,,,,,,,,,,,0,31,31,31,,,,,,,,,,,,,,,,,,,,,a,1,0.5742801,,,,,,,,,,,,gsx,f,19,2024_Apr_17_1641,mian,2021.2.3,60.18697686
f3,1,1,f,l,"[0.2, 0.2]",,,,,,,,,,,,,,,,0,32,32,32,,,,,,,,,,,,,,,,,,,,,l,1,1.2594951,,,,,,,,,,,,gsx,f,19,2024_Apr_17_1641,mian,2021.2.3,60.18697686
2E,1,2,E,a,"[-0.2, 0.2]",,,,,,,,,,,,,,,,0,33,33,33,,,,,,,,,,,,,,,,,,,,,a,1,0.7848941,,,,,,,,,,,,gsx,f,19,2024_Apr_17_1641,mian,2021.2.3,60.18697686
2H,2,1,2,l,"[-0.2, -0.2]",,,,,,,,,,,,,,,,0,34,34,34,,,,,,,,,,,,,,,,,,,,,l,1,0.7758147,,,,,,,,,,,,gsx,f,19,2024_Apr_17_1641,mian,2021.2.3,60.18697686
H8,2,2,8,l,"[0.2, -0.2]",,,,,,,,,,,,,,,,0,35,35,35,,,,,,,,,,,,,,,,,,,,,l,1,0.8673827,,,,,,,,,,,,gsx,f,19,2024_Apr_17_1641,mian,2021.2.3,60.18697686
9g,1,1,g,l,"[0.2, 0.2]",,,,,,,,,,,,,,,,0,36,36,36,,,,,,,,,,,,,,,,,,,,,l,1,2.0039282,,,,,,,,,,,,gsx,f,19,2024_Apr_17_1641,mian,2021.2.3,60.18697686
5h,1,2,h,l,"[-0.2, 0.2]",,,,,,,,,,,,,,,,0,37,37,37,,,,,,,,,,,,,,,,,,,,,l,1,0.8596326,,,,,,,,,,,,gsx,f,19,2024_Apr_17_1641,mian,2021.2.3,60.18697686
e4,2,1,4,l,"[-0.2, -0.2]",,,,,,,,,,,,,,,,0,38,38,38,,,,,,,,,,,,,,,,,,,,,l,1,1.369865,,,,,,,,,,,,gsx,f,19,2024_Apr_17_1641,mian,2021.2.3,60.18697686
9h,2,2,9,a,"[0.2, -0.2]",,,,,,,,,,,,,,,,0,39,39,39,,,,,,,,,,,,,,,,,,,,,a,1,0.7176922,,,,,,,,,,,,gsx,f,19,2024_Apr_17_1641,mian,2021.2.3,60.18697686
G3,1,1,G,a,"[0.2, 0.2]",,,,,,,,,,,,,,,,0,40,40,40,,,,,,,,,,,,,,,,,,,,,a,1,0.9596321,,,,,,,,,,,,gsx,f,19,2024_Apr_17_1641,mian,2021.2.3,60.18697686
9A,1,2,A,a,"[-0.2, 0.2]",,,,,,,,,,,,,,,,0,41,41,41,,,,,,,,,,,,,,,,,,,,,a,1,0.5581978,,,,,,,,,,,,gsx,f,19,2024_Apr_17_1641,mian,2021.2.3,60.18697686
H5,2,1,5,a,"[-0.2, -0.2]",,,,,,,,,,,,,,,,0,42,42,42,,,,,,,,,,,,,,,,,,,,,a,1,0.7489754,,,,,,,,,,,,gsx,f,19,2024_Apr_17_1641,mian,2021.2.3,60.18697686
4e,2,2,4,l,"[0.2, -0.2]",,,,,,,,,,,,,,,,0,43,43,43,,,,,,,,,,,,,,,,,,,,,l,1,1.0394942,,,,,,,,,,,,gsx,f,19,2024_Apr_17_1641,mian,2021.2.3,60.18697686
E2,1,1,E,a,"[0.2, 0.2]",,,,,,,,,,,,,,,,0,44,44,44,,,,,,,,,,,,,,,,,,,,,a,1,1.5740046,,,,,,,,,,,,gsx,f,19,2024_Apr_17_1641,mian,2021.2.3,60.18697686
A5,1,2,A,a,"[-0.2, 0.2]",,,,,,,,,,,,,,,,0,45,45,45,,,,,,,,,,,,,,,,,,,,,a,1,0.5059353,,,,,,,,,,,,gsx,f,19,2024_Apr_17_1641,mian,2021.2.3,60.18697686
2A,2,1,2,l,"[-0.2, -0.2]",,,,,,,,,,,,,,,,0,46,46,46,,,,,,,,,,,,,,,,,,,,,l,1,3.2513338,,,,,,,,,,,,gsx,f,19,2024_Apr_17_1641,mian,2021.2.3,60.18697686
6G,2,2,6,l,"[0.2, -0.2]",,,,,,,,,,,,,,,,0,47,47,47,,,,,,,,,,,,,,,,,,,,,l,1,0.8454964,,,,,,,,,,,,gsx,f,19,2024_Apr_17_1641,mian,2021.2.3,60.18697686
H3,1,1,H,a,"[0.2, 0.2]",,,,,,,,,,,,,,,,0,48,48,48,,,,,,,,,,,,,,,,,,,,,a,1,1.2561925,,,,,,,,,,,,gsx,f,19,2024_Apr_17_1641,mian,2021.2.3,60.18697686
H2,1,2,H,a,"[-0.2, 0.2]",,,,,,,,,,,,,,,,0,49,49,49,,,,,,,,,,,,,,,,,,,,,a,1,0.7243202,,,,,,,,,,,,gsx,f,19,2024_Apr_17_1641,mian,2021.2.3,60.18697686
e9,2,1,9,a,"[-0.2, -0.2]",,,,,,,,,,,,,,,,0,50,50,50,,,,,,,,,,,,,,,,,,,,,a,1,0.77518,,,,,,,,,,,,gsx,f,19,2024_Apr_17_1641,mian,2021.2.3,60.18697686
2G,2,2,2,l,"[0.2, -0.2]",,,,,,,,,,,,,,,,0,51,51,51,,,,,,,,,,,,,,,,,,,,,l,1,0.7310789,,,,,,,,,,,,gsx,f,19,2024_Apr_17_1641,mian,2021.2.3,60.18697686
4f,1,1,f,l,"[0.2, 0.2]",,,,,,,,,,,,,,,,0,52,52,52,,,,,,,,,,,,,,,,,,,,,l,1,0.9264484,,,,,,,,,,,,gsx,f,19,2024_Apr_17_1641,mian,2021.2.3,60.18697686
H6,1,2,H,a,"[-0.2, 0.2]",,,,,,,,,,,,,,,,0,53,53,53,,,,,,,,,,,,,,,,,,,,,a,1,0.5699451,,,,,,,,,,,,gsx,f,19,2024_Apr_17_1641,mian,2021.2.3,60.18697686
A4,2,1,4,l,"[-0.2, -0.2]",,,,,,,,,,,,,,,,0,54,54,54,,,,,,,,,,,,,,,,,,,,,l,1,1.3800297,,,,,,,,,,,,gsx,f,19,2024_Apr_17_1641,mian,2021.2.3,60.18697686
3F,2,2,3,a,"[0.2, -0.2]",,,,,,,,,,,,,,,,0,55,55,55,,,,,,,,,,,,,,,,,,,,,l,0,1.4096569,,,,,,,,,,,,gsx,f,19,2024_Apr_17_1641,mian,2021.2.3,60.18697686
7e,1,1,e,l,"[0.2, 0.2]",,,,,,,,,,,,,,,,0,56,56,56,,,,,,,,,,,,,,,,,,,,,l,1,2.2332778,,,,,,,,,,,,gsx,f,19,2024_Apr_17_1641,mian,2021.2.3,60.18697686
F9,1,2,F,a,"[-0.2, 0.2]",,,,,,,,,,,,,,,,0,57,57,57,,,,,,,,,,,,,,,,,,,,,a,1,0.8255903,,,,,,,,,,,,gsx,f,19,2024_Apr_17_1641,mian,2021.2.3,60.18697686
e2,2,1,2,l,"[-0.2, -0.2]",,,,,,,,,,,,,,,,0,58,58,58,,,,,,,,,,,,,,,,,,,,,l,1,2.3157812,,,,,,,,,,,,gsx,f,19,2024_Apr_17_1641,mian,2021.2.3,60.18697686
5F,2,2,5,a,"[0.2, -0.2]",,,,,,,,,,,,,,,,0,59,59,59,,,,,,,,,,,,,,,,,,,,,a,1,0.7956309,,,,,,,,,,,,gsx,f,19,2024_Apr_17_1641,mian,2021.2.3,60.18697686
f6,1,1,f,l,"[0.2, 0.2]",,,,,,,,,,,,,,,,0,60,60,60,,,,,,,,,,,,,,,,,,,,,l,1,0.7837144,,,,,,,,,,,,gsx,f,19,2024_Apr_17_1641,mian,2021.2.3,60.18697686
7G,1,2,G,a,"[-0.2, 0.2]",,,,,,,,,,,,,,,,0,61,61,61,,,,,,,,,,,,,,,,,,,,,a,1,1.1217667,,,,,,,,,,,,gsx,f,19,2024_Apr_17_1641,mian,2021.2.3,60.18697686
e6,2,1,6,l,"[-0.2, -0.2]",,,,,,,,,,,,,,,,0,62,62,62,,,,,,,,,,,,,,,,,,,,,l,1,1.8914534,,,,,,,,,,,,gsx,f,19,2024_Apr_17_1641,mian,2021.2.3,60.18697686
3G,2,2,3,a,"[0.2, -0.2]",,,,,,,,,,,,,,,,0,63,63,63,,,,,,,,,,,,,,,,,,,,,a,1,0.6892842,,,,,,,,,,,,gsx,f,19,2024_Apr_17_1641,mian,2021.2.3,60.18697686
5E,1,1,E,a,"[0.2, 0.2]",,,,,,,,,,,,,,,,0,64,64,64,,,,,,,,,,,,,,,,,,,,,a,1,0.7661742,,,,,,,,,,,,gsx,f,19,2024_Apr_17_1641,mian,2021.2.3,60.18697686
A6,1,2,A,a,"[-0.2, 0.2]",,,,,,,,,,,,,,,,0,65,65,65,,,,,,,,,,,,,,,,,,,,,a,1,0.6698899,,,,,,,,,,,,gsx,f,19,2024_Apr_17_1641,mian,2021.2.3,60.18697686
E3,2,1,3,a,"[-0.2, -0.2]",,,,,,,,,,,,,,,,0,66,66,66,,,,,,,,,,,,,,,,,,,,,a,1,0.6370631,,,,,,,,,,,,gsx,f,19,2024_Apr_17_1641,mian,2021.2.3,60.18697686
2f,2,2,2,l,"[0.2, -0.2]",,,,,,,,,,,,,,,,0,67,67,67,,,,,,,,,,,,,,,,,,,,,l,1,1.5200007,,,,,,,,,,,,gsx,f,19,2024_Apr_17_1641,mian,2021.2.3,60.18697686
g3,1,1,g,l,"[0.2, 0.2]",,,,,,,,,,,,,,,,0,68,68,68,,,,,,,,,,,,,,,,,,,,,l,1,1.7688163,,,,,,,,,,,,gsx,f,19,2024_Apr_17_1641,mian,2021.2.3,60.18697686
E8,1,2,E,a,"[-0.2, 0.2]",,,,,,,,,,,,,,,,0,69,69,69,,,,,,,,,,,,,,,,,,,,,a,1,0.6437026,,,,,,,,,,,,gsx,f,19,2024_Apr_17_1641,mian,2021.2.3,60.18697686
6g,2,1,6,l,"[-0.2, -0.2]",,,,,,,,,,,,,,,,0,70,70,70,,,,,,,,,,,,,,,,,,,,,l,1,4.28649,,,,,,,,,,,,gsx,f,19,2024_Apr_17_1641,mian,2021.2.3,60.18697686
5H,2,2,5,a,"[0.2, -0.2]",,,,,,,,,,,,,,,,0,71,71,71,,,,,,,,,,,,,,,,,,,,,a,1,0.6564489,,,,,,,,,,,,gsx,f,19,2024_Apr_17_1641,mian,2021.2.3,60.18697686
4A,1,1,A,a,"[0.2, 0.2]",,,,,,,,,,,,,,,,0,72,72,72,,,,,,,,,,,,,,,,,,,,,a,1,3.3298635,,,,,,,,,,,,gsx,f,19,2024_Apr_17_1641,mian,2021.2.3,60.18697686
7F,1,2,F,a,"[-0.2, 0.2]",,,,,,,,,,,,,,,,0,73,73,73,,,,,,,,,,,,,,,,,,,,,a,1,0.829066,,,,,,,,,,,,gsx,f,19,2024_Apr_17_1641,mian,2021.2.3,60.18697686
6H,2,1,6,l,"[-0.2, -0.2]",,,,,,,,,,,,,,,,0,74,74,74,,,,,,,,,,,,,,,,,,,,,l,1,0.8172715,,,,,,,,,,,,gsx,f,19,2024_Apr_17_1641,mian,2021.2.3,60.18697686
3a,2,2,3,a,"[0.2, -0.2]",,,,,,,,,,,,,,,,0,75,75,75,,,,,,,,,,,,,,,,,,,,,l,0,0.7835293,,,,,,,,,,,,gsx,f,19,2024_Apr_17_1641,mian,2021.2.3,60.18697686
9F,1,1,F,a,"[0.2, 0.2]",,,,,,,,,,,,,,,,0,76,76,76,,,,,,,,,,,,,,,,,,,,,a,1,3.6865961,,,,,,,,,,,,gsx,f,19,2024_Apr_17_1641,mian,2021.2.3,60.18697686
G7,1,2,G,a,"[-0.2, 0.2]",,,,,,,,,,,,,,,,0,77,77,77,,,,,,,,,,,,,,,,,,,,,a,1,1.1082952,,,,,,,,,,,,gsx,f,19,2024_Apr_17_1641,mian,2021.2.3,60.18697686
a6,2,1,6,l,"[-0.2, -0.2]",,,,,,,,,,,,,,,,0,78,78,78,,,,,,,,,,,,,,,,,,,,,l,1,0.9345721,,,,,,,,,,,,gsx,f,19,2024_Apr_17_1641,mian,2021.2.3,60.18697686
4h,2,2,4,l,"[0.2, -0.2]",,,,,,,,,,,,,,,,0,79,79,79,,,,,,,,,,,,,,,,,,,,,l,1,0.8740995,,,,,,,,,,,,gsx,f,19,2024_Apr_17_1641,mian,2021.2.3,60.18697686
6A,1,1,A,a,"[0.2, 0.2]",,,,,,,,,,,,,,,,,,,,0,0,0,0,,,,,,,,,,,,,,,,,a,1,1.1303725,,,,,,,,,,,,gsx,f,19,2024_Apr_17_1641,mian,2021.2.3,60.18697686
4H,1,2,H,a,"[-0.2, 0.2]",,,,,,,,,,,,,,,,,,,,0,1,1,1,,,,,,,,,,,,,,,,,a,1,1.2462416,,,,,,,,,,,,gsx,f,19,2024_Apr_17_1641,mian,2021.2.3,60.18697686
3H,2,1,3,a,"[-0.2, -0.2]",,,,,,,,,,,,,,,,,,,,0,2,2,2,,,,,,,,,,,,,,,,,a,1,1.3578434,,,,,,,,,,,,gsx,f,19,2024_Apr_17_1641,mian,2021.2.3,60.18697686
a9,2,2,9,a,"[0.2, -0.2]",,,,,,,,,,,,,,,,,,,,0,3,3,3,,,,,,,,,,,,,,,,,a,1,0.9213813,,,,,,,,,,,,gsx,f,19,2024_Apr_17_1641,mian,2021.2.3,60.18697686
E7,1,1,E,a,"[0.2, 0.2]",,,,,,,,,,,,,,,,,,,,0,4,4,4,,,,,,,,,,,,,,,,,a,1,0.6681093,,,,,,,,,,,,gsx,f,19,2024_Apr_17_1641,mian,2021.2.3,60.18697686
6h,1,2,h,l,"[-0.2, 0.2]",,,,,,,,,,,,,,,,,,,,0,5,5,5,,,,,,,,,,,,,,,,,l,1,0.7124813,,,,,,,,,,,,gsx,f,19,2024_Apr_17_1641,mian,2021.2.3,60.18697686
8A,2,1,8,l,"[-0.2, -0.2]",,,,,,,,,,,,,,,,,,,,0,6,6,6,,,,,,,,,,,,,,,,,l,1,1.2796324,,,,,,,,,,,,gsx,f,19,2024_Apr_17_1641,mian,2021.2.3,60.18697686
f5,2,2,5,a,"[0.2, -0.2]",,,,,,,,,,,,,,,,,,,,0,7,7,7,,,,,,,,,,,,,,,,,a,1,0.7308801,,,,,,,,,,,,gsx,f,19,2024_Apr_17_1641,mian,2021.2.3,60.18697686
2a,1,1,a,l,"[0.2, 0.2]",,,,,,,,,,,,,,,,,,,,0,8,8,8,,,,,,,,,,,,,,,,,l,1,0.9698462,,,,,,,,,,,,gsx,f,19,2024_Apr_17_1641,mian,2021.2.3,60.18697686
F7,1,2,F,a,"[-0.2, 0.2]",,,,,,,,,,,,,,,,,,,,0,9,9,9,,,,,,,,,,,,,,,,,a,1,0.6895327,,,,,,,,,,,,gsx,f,19,2024_Apr_17_1641,mian,2021.2.3,60.18697686
h2,2,1,2,l,"[-0.2, -0.2]",,,,,,,,,,,,,,,,,,,,0,10,10,10,,,,,,,,,,,,,,,,,l,1,0.97325,,,,,,,,,,,,gsx,f,19,2024_Apr_17_1641,mian,2021.2.3,60.18697686
F5,2,2,5,a,"[0.2, -0.2]",,,,,,,,,,,,,,,,,,,,0,11,11,11,,,,,,,,,,,,,,,,,a,1,0.7628393,,,,,,,,,,,,gsx,f,19,2024_Apr_17_1641,mian,2021.2.3,60.18697686
A9,1,1,A,a,"[0.2, 0.2]",,,,,,,,,,,,,,,,,,,,0,12,12,12,,,,,,,,,,,,,,,,,a,1,0.8272212,,,,,,,,,,,,gsx,f,19,2024_Apr_17_1641,mian,2021.2.3,60.18697686
3e,1,2,e,l,"[-0.2, 0.2]",,,,,,,,,,,,,,,,,,,,0,13,13,13,,,,,,,,,,,,,,,,,l,1,0.6693798,,,,,,,,,,,,gsx,f,19,2024_Apr_17_1641,mian,2021.2.3,60.18697686
f8,2,1,8,l,"[-0.2, -0.2]",,,,,,,,,,,,,,,,,,,,0,14,14,14,,,,,,,,,,,,,,,,,l,1,1.2962516,,,,,,,,,,,,gsx,f,19,2024_Apr_17_1641,mian,2021.2.3,60.18697686
G2,2,2,2,l,"[0.2, -0.2]",,,,,,,,,,,,,,,,,,,,0,15,15,15,,,,,,,,,,,,,,,,,l,1,0.7043203,,,,,,,,,,,,gsx,f,19,2024_Apr_17_1641,mian,2021.2.3,60.18697686
F2,1,1,F,a,"[0.2, 0.2]",,,,,,,,,,,,,,,,,,,,0,16,16,16,,,,,,,,,,,,,,,,,a,1,1.3336391,,,,,,,,,,,,gsx,f,19,2024_Apr_17_1641,mian,2021.2.3,60.18697686
5e,1,2,e,l,"[-0.2, 0.2]",,,,,,,,,,,,,,,,,,,,0,17,17,17,,,,,,,,,,,,,,,,,l,1,0.6331073,,,,,,,,,,,,gsx,f,19,2024_Apr_17_1641,mian,2021.2.3,60.18697686
A3,2,1,3,a,"[-0.2, -0.2]",,,,,,,,,,,,,,,,,,,,0,18,18,18,,,,,,,,,,,,,,,,,a,1,1.3584159,,,,,,,,,,,,gsx,f,19,2024_Apr_17_1641,mian,2021.2.3,60.18697686
4g,2,2,4,l,"[0.2, -0.2]",,,,,,,,,,,,,,,,,,,,0,19,19,19,,,,,,,,,,,,,,,,,l,1,0.7595365,,,,,,,,,,,,gsx,f,19,2024_Apr_17_1641,mian,2021.2.3,60.18697686
h7,1,1,h,l,"[0.2, 0.2]",,,,,,,,,,,,,,,,,,,,0,20,20,20,,,,,,,,,,,,,,,,,l,1,1.7347835,,,,,,,,,,,,gsx,f,19,2024_Apr_17_1641,mian,2021.2.3,60.18697686
3g,1,2,g,l,"[-0.2, 0.2]",,,,,,,,,,,,,,,,,,,,0,21,21,21,,,,,,,,,,,,,,,,,l,1,2.137967,,,,,,,,,,,,gsx,f,19,2024_Apr_17_1641,mian,2021.2.3,60.18697686
8a,2,1,8,l,"[-0.2, -0.2]",,,,,,,,,,,,,,,,,,,,0,22,22,22,,,,,,,,,,,,,,,,,l,1,0.7365694,,,,,,,,,,,,gsx,f,19,2024_Apr_17_1641,mian,2021.2.3,60.18697686
4E,2,2,4,l,"[0.2, -0.2]",,,,,,,,,,,,,,,,,,,,0,23,23,23,,,,,,,,,,,,,,,,,l,1,0.5254864,,,,,,,,,,,,gsx,f,19,2024_Apr_17_1641,mian,2021.2.3,60.18697686
E5,1,1,E,a,"[0.2, 0.2]",,,,,,,,,,,,,,,,,,,,0,24,24,24,,,,,,,,,,,,,,,,,a,1,0.6107428,,,,,,,,,,,,gsx,f,19,2024_Apr_17_1641,mian,2021.2.3,60.18697686
g6,1,2,g,l,"[-0.2, 0.2]",,,,,,,,,,,,,,,,,,,,0,25,25,25,,,,,,,,,,,,,,,,,l,1,0.8075892,,,,,,,,,,,,gsx,f,19,2024_Apr_17_1641,mian,2021.2.3,60.18697686
2e,2,1,2,l,"[-0.2, -0.2]",,,,,,,,,,,,,,,,,,,,0,26,26,26,,,,,,,,,,,,,,,,,l,1,2.735059,,,,,,,,,,,,gsx,f,19,2024_Apr_17_1641,mian,2021.2.3,60.18697686
h8,2,2,8,l,"[0.2, -0.2]",,,,,,,,,,,,,,,,,,,,0,27,27,27,,,,,,,,,,,,,,,,,l,1,0.7186284,,,,,,,,,,,,gsx,f,19,2024_Apr_17_1641,mian,2021.2.3,60.18697686
G6,1,1,G,a,"[0.2, 0.2]",,,,,,,,,,,,,,,,,,,,0,28,28,28,,,,,,,,,,,,,,,,,a,1,1.8185239,,,,,,,,,,,,gsx,f,19,2024_Apr_17_1641,mian,2021.2.3,60.18697686
a4,1,2,a,l,"[-0.2, 0.2]",,,,,,,,,,,,,,,,,,,,0,29,29,29,,,,,,,,,,,,,,,,,l,1,0.7082224,,,,,,,,,,,,gsx,f,19,2024_Apr_17_1641,mian,2021.2.3,60.18697686
9H,2,1,9,a,"[-0.2, -0.2]",,,,,,,,,,,,,,,,,,,,0,30,30,30,,,,,,,,,,,,,,,,,a,1,4.054518,,,,,,,,,,,,gsx,f,19,2024_Apr_17_1641,mian,2021.2.3,60.18697686
7H,2,2,7,a,"[0.2, -0.2]",,,,,,,,,,,,,,,,,,,,0,31,31,31,,,,,,,,,,,,,,,,,a,1,2.1129209,,,,,,,,,,,,gsx,f,19,2024_Apr_17_1641,mian,2021.2.3,60.18697686
9f,1,1,f,l,"[0.2, 0.2]",,,,,,,,,,,,,,,,,,,,0,32,32,32,,,,,,,,,,,,,,,,,None,0,,,,,,,,,,,,,gsx,f,19,2024_Apr_17_1641,mian,2021.2.3,60.18697686
8E,1,2,E,a,"[-0.2, 0.2]",,,,,,,,,,,,,,,,,,,,0,33,33,33,,,,,,,,,,,,,,,,,a,1,0.625201,,,,,,,,,,,,gsx,f,19,2024_Apr_17_1641,mian,2021.2.3,60.18697686
A2,2,1,2,l,"[-0.2, -0.2]",,,,,,,,,,,,,,,,,,,,0,34,34,34,,,,,,,,,,,,,,,,,l,1,2.0362907,,,,,,,,,,,,gsx,f,19,2024_Apr_17_1641,mian,2021.2.3,60.18697686
H7,2,2,7,a,"[0.2, -0.2]",,,,,,,,,,,,,,,,,,,,0,35,35,35,,,,,,,,,,,,,,,,,a,1,1.546161,,,,,,,,,,,,gsx,f,19,2024_Apr_17_1641,mian,2021.2.3,60.18697686
h9,1,1,h,l,"[0.2, 0.2]",,,,,,,,,,,,,,,,,,,,0,36,36,36,,,,,,,,,,,,,,,,,l,1,2.3381202,,,,,,,,,,,,gsx,f,19,2024_Apr_17_1641,mian,2021.2.3,60.18697686
8G,1,2,G,a,"[-0.2, 0.2]",,,,,,,,,,,,,,,,,,,,0,37,37,37,,,,,,,,,,,,,,,,,a,1,0.6954186,,,,,,,,,,,,gsx,f,19,2024_Apr_17_1641,mian,2021.2.3,60.18697686
H4,2,1,4,l,"[-0.2, -0.2]",,,,,,,,,,,,,,,,,,,,0,38,38,38,,,,,,,,,,,,,,,,,l,1,3.2678847,,,,,,,,,,,,gsx,f,19,2024_Apr_17_1641,mian,2021.2.3,60.18697686
A8,2,2,8,l,"[0.2, -0.2]",,,,,,,,,,,,,,,,,,,,0,39,39,39,,,,,,,,,,,,,,,,,l,1,0.6781365,,,,,,,,,,,,gsx,f,19,2024_Apr_17_1641,mian,2021.2.3,60.18697686
g7,1,1,g,l,"[0.2, 0.2]",,,,,,,,,,,,,,,,,,,,0,40,40,40,,,,,,,,,,,,,,,,,l,1,0.612979,,,,,,,,,,,,gsx,f,19,2024_Apr_17_1641,mian,2021.2.3,60.18697686
H9,1,2,H,a,"[-0.2, 0.2]",,,,,,,,,,,,,,,,,,,,0,41,41,41,,,,,,,,,,,,,,,,,a,1,0.6316837,,,,,,,,,,,,gsx,f,19,2024_Apr_17_1641,mian,2021.2.3,60.18697686
9E,2,1,9,a,"[-0.2, -0.2]",,,,,,,,,,,,,,,,,,,,0,42,42,42,,,,,,,,,,,,,,,,,a,1,0.9074499,,,,,,,,,,,,gsx,f,19,2024_Apr_17_1641,mian,2021.2.3,60.18697686
a5,2,2,5,a,"[0.2, -0.2]",,,,,,,,,,,,,,,,,,,,0,43,43,43,,,,,,,,,,,,,,,,,a,1,1.0256227,,,,,,,,,,,,gsx,f,19,2024_Apr_17_1641,mian,2021.2.3,60.18697686
3E,1,1,E,a,"[0.2, 0.2]",,,,,,,,,,,,,,,,,,,,0,44,44,44,,,,,,,,,,,,,,,,,a,1,1.0882098,,,,,,,,,,,,gsx,f,19,2024_Apr_17_1641,mian,2021.2.3,60.18697686
6f,1,2,f,l,"[-0.2, 0.2]",,,,,,,,,,,,,,,,,,,,0,45,45,45,,,,,,,,,,,,,,,,,l,1,0.5113655,,,,,,,,,,,,gsx,f,19,2024_Apr_17_1641,mian,2021.2.3,60.18697686
g8,2,1,8,l,"[-0.2, -0.2]",,,,,,,,,,,,,,,,,,,,0,46,46,46,,,,,,,,,,,,,,,,,l,1,0.7500499,,,,,,,,,,,,gsx,f,19,2024_Apr_17_1641,mian,2021.2.3,60.18697686
4F,2,2,4,l,"[0.2, -0.2]",,,,,,,,,,,,,,,,,,,,0,47,47,47,,,,,,,,,,,,,,,,,l,1,0.8065454,,,,,,,,,,,,gsx,f,19,2024_Apr_17_1641,mian,2021.2.3,60.18697686
4a,1,1,a,l,"[0.2, 0.2]",,,,,,,,,,,,,,,,,,,,0,48,48,48,,,,,,,,,,,,,,,,,l,1,1.2228563,,,,,,,,,,,,gsx,f,19,2024_Apr_17_1641,mian,2021.2.3,60.18697686
e3,1,2,e,l,"[-0.2, 0.2]",,,,,,,,,,,,,,,,,,,,0,49,49,49,,,,,,,,,,,,,,,,,l,1,0.4669328,,,,,,,,,,,,gsx,f,19,2024_Apr_17_1641,mian,2021.2.3,60.18697686
5g,2,1,5,a,"[-0.2, -0.2]",,,,,,,,,,,,,,,,,,,,0,50,50,50,,,,,,,,,,,,,,,,,a,1,0.9850883,,,,,,,,,,,,gsx,f,19,2024_Apr_17_1641,mian,2021.2.3,60.18697686
f4,2,2,4,l,"[0.2, -0.2]",,,,,,,,,,,,,,,,,,,,0,51,51,51,,,,,,,,,,,,,,,,,l,1,0.5249649,,,,,,,,,,,,gsx,f,19,2024_Apr_17_1641,mian,2021.2.3,60.18697686
6E,1,1,E,a,"[0.2, 0.2]",,,,,,,,,,,,,,,,,,,,0,52,52,52,,,,,,,,,,,,,,,,,a,1,1.4620685,,,,,,,,,,,,gsx,f,19,2024_Apr_17_1641,mian,2021.2.3,60.18697686
7A,1,2,A,a,"[-0.2, 0.2]",,,,,,,,,,,,,,,,,,,,0,53,53,53,,,,,,,,,,,,,,,,,a,1,0.4720926,,,,,,,,,,,,gsx,f,19,2024_Apr_17_1641,mian,2021.2.3,60.18697686
F4,2,1,4,l,"[-0.2, -0.2]",,,,,,,,,,,,,,,,,,,,0,54,54,54,,,,,,,,,,,,,,,,,l,1,1.4235453,,,,,,,,,,,,gsx,f,19,2024_Apr_17_1641,mian,2021.2.3,60.18697686
2g,2,2,2,l,"[0.2, -0.2]",,,,,,,,,,,,,,,,,,,,0,55,55,55,,,,,,,,,,,,,,,,,l,1,0.5937621,,,,,,,,,,,,gsx,f,19,2024_Apr_17_1641,mian,2021.2.3,60.18697686
7E,1,1,E,a,"[0.2, 0.2]",,,,,,,,,,,,,,,,,,,,0,56,56,56,,,,,,,,,,,,,,,,,a,1,0.785667,,,,,,,,,,,,gsx,f,19,2024_Apr_17_1641,mian,2021.2.3,60.18697686
G4,1,2,G,a,"[-0.2, 0.2]",,,,,,,,,,,,,,,,,,,,0,57,57,57,,,,,,,,,,,,,,,,,a,1,0.5409167,,,,,,,,,,,,gsx,f,19,2024_Apr_17_1641,mian,2021.2.3,60.18697686
2F,2,1,2,l,"[-0.2, -0.2]",,,,,,,,,,,,,,,,,,,,0,58,58,58,,,,,,,,,,,,,,,,,l,1,1.2881483,,,,,,,,,,,,gsx,f,19,2024_Apr_17_1641,mian,2021.2.3,60.18697686
E9,2,2,9,a,"[0.2, -0.2]",,,,,,,,,,,,,,,,,,,,0,59,59,59,,,,,,,,,,,,,,,,,a,1,0.8068722,,,,,,,,,,,,gsx,f,19,2024_Apr_17_1641,mian,2021.2.3,60.18697686
5f,1,1,f,l,"[0.2, 0.2]",,,,,,,,,,,,,,,,,,,,0,60,60,60,,,,,,,,,,,,,,,,,l,1,1.0810341,,,,,,,,,,,,gsx,f,19,2024_Apr_17_1641,mian,2021.2.3,60.18697686
e7,1,2,e,l,"[-0.2, 0.2]",,,,,,,,,,,,,,,,,,,,0,61,61,61,,,,,,,,,,,,,,,,,l,1,0.6550229,,,,,,,,,,,,gsx,f,19,2024_Apr_17_1641,mian,2021.2.3,60.18697686
f2,2,1,2,l,"[-0.2, -0.2]",,,,,,,,,,,,,,,,,,,,0,62,62,62,,,,,,,,,,,,,,,,,l,1,0.6119543,,,,,,,,,,,,gsx,f,19,2024_Apr_17_1641,mian,2021.2.3,60.18697686
G9,2,2,9,a,"[0.2, -0.2]",,,,,,,,,,,,,,,,,,,,0,63,63,63,,,,,,,,,,,,,,,,,a,1,0.993656,,,,,,,,,,,,gsx,f,19,2024_Apr_17_1641,mian,2021.2.3,60.18697686
7g,1,1,g,l,"[0.2, 0.2]",,,,,,,,,,,,,,,,,,,,0,64,64,64,,,,,,,,,,,,,,,,,l,1,1.4269552,,,,,,,,,,,,gsx,f,19,2024_Apr_17_1641,mian,2021.2.3,60.18697686
F8,1,2,F,a,"[-0.2, 0.2]",,,,,,,,,,,,,,,,,,,,0,65,65,65,,,,,,,,,,,,,,,,,a,1,1.1478998,,,,,,,,,,,,gsx,f,19,2024_Apr_17_1641,mian,2021.2.3,60.18697686
A7,2,1,7,a,"[-0.2, -0.2]",,,,,,,,,,,,,,,,,,,,0,66,66,66,,,,,,,,,,,,,,,,,a,1,2.1870954,,,,,,,,,,,,gsx,f,19,2024_Apr_17_1641,mian,2021.2.3,60.18697686
4G,2,2,4,l,"[0.2, -0.2]",,,,,,,,,,,,,,,,,,,,0,67,67,67,,,,,,,,,,,,,,,,,l,1,0.5517679,,,,,,,,,,,,gsx,f,19,2024_Apr_17_1641,mian,2021.2.3,60.18697686
g2,1,1,g,l,"[0.2, 0.2]",,,,,,,,,,,,,,,,,,,,0,68,68,68,,,,,,,,,,,,,,,,,l,1,1.2286061,,,,,,,,,,,,gsx,f,19,2024_Apr_17_1641,mian,2021.2.3,60.18697686
g4,1,2,g,l,"[-0.2, 0.2]",,,,,,,,,,,,,,,,,,,,0,69,69,69,,,,,,,,,,,,,,,,,l,1,0.6035957,,,,,,,,,,,,gsx,f,19,2024_Apr_17_1641,mian,2021.2.3,60.18697686
7a,2,1,7,a,"[-0.2, -0.2]",,,,,,,,,,,,,,,,,,,,0,70,70,70,,,,,,,,,,,,,,,,,None,0,,,,,,,,,,,,,gsx,f,19,2024_Apr_17_1641,mian,2021.2.3,60.18697686
8e,2,2,8,l,"[0.2, -0.2]",,,,,,,,,,,,,,,,,,,,0,71,71,71,,,,,,,,,,,,,,,,,l,1,2.1461987,,,,,,,,,,,,gsx,f,19,2024_Apr_17_1641,mian,2021.2.3,60.18697686
h4,1,1,h,l,"[0.2, 0.2]",,,,,,,,,,,,,,,,,,,,0,72,72,72,,,,,,,,,,,,,,,,,l,1,1.6039557,,,,,,,,,,,,gsx,f,19,2024_Apr_17_1641,mian,2021.2.3,60.18697686
G8,1,2,G,a,"[-0.2, 0.2]",,,,,,,,,,,,,,,,,,,,0,73,73,73,,,,,,,,,,,,,,,,,a,1,0.6128055,,,,,,,,,,,,gsx,f,19,2024_Apr_17_1641,mian,2021.2.3,60.18697686
6F,2,1,6,l,"[-0.2, -0.2]",,,,,,,,,,,,,,,,,,,,0,74,74,74,,,,,,,,,,,,,,,,,a,0,1.536117,,,,,,,,,,,,gsx,f,19,2024_Apr_17_1641,mian,2021.2.3,60.18697686
g5,2,2,5,a,"[0.2, -0.2]",,,,,,,,,,,,,,,,,,,,0,75,75,75,,,,,,,,,,,,,,,,,a,1,0.9245661,,,,,,,,,,,,gsx,f,19,2024_Apr_17_1641,mian,2021.2.3,60.18697686
G5,1,1,G,a,"[0.2, 0.2]",,,,,,,,,,,,,,,,,,,,0,76,76,76,,,,,,,,,,,,,,,,,l,0,0.647187,,,,,,,,,,,,gsx,f,19,2024_Apr_17_1641,mian,2021.2.3,60.18697686
h5,1,2,h,l,"[-0.2, 0.2]",,,,,,,,,,,,,,,,,,,,0,77,77,77,,,,,,,,,,,,,,,,,l,1,2.7162245,,,,,,,,,,,,gsx,f,19,2024_Apr_17_1641,mian,2021.2.3,60.18697686
9G,2,1,9,a,"[-0.2, -0.2]",,,,,,,,,,,,,,,,,,,,0,78,78,78,,,,,,,,,,,,,,,,,a,1,1.586006,,,,,,,,,,,,gsx,f,19,2024_Apr_17_1641,mian,2021.2.3,60.18697686
F3,2,2,3,a,"[0.2, -0.2]",,,,,,,,,,,,,,,,,,,,0,79,79,79,,,,,,,,,,,,,,,,,a,1,0.7530602,,,,,,,,,,,,gsx,f,19,2024_Apr_17_1641,mian,2021.2.3,60.18697686
,,,,,,0,1,pic/flanker6.png,pic/flanker2.png,a,k,,,,,,,,,,,,,,,,,,0,0,0,0,0,0,0,2,,,,,,,,,,,,486.9820776,None,485.7877921,486.9990805,a,1,圣洁,k,1,0.7148641,0.5723433,gsx,f,19,2024_Apr_17_1708,mian,2021.2.3,60.02022682
,,,,,,1,0,pic/flanker6.png,pic/flanker4.png,s,l,,,,,,,,,,,,,,,,,,0,0,0,0,0,1,1,5,,,,,,,,,,,,490.3822402,None,489.1989425,490.3990448,s,1,浪费,l,1,0.7274651,0.5195902,gsx,f,19,2024_Apr_17_1708,mian,2021.2.3,60.02022682
,,,,,,1,1,pic/flanker6.png,pic/flanker4.png,s,k,,,,,,,,,,,,,,,,,,0,0,0,0,0,2,2,6,,,,,,,,,,,,493.6323988,None,492.4490288,493.6490059,s,1,秀丽,k,1,0.475065,0.7758638,gsx,f,19,2024_Apr_17_1708,mian,2021.2.3,60.02022682
,,,,,,0,0,pic/flanker5.png,pic/flanker1.png,s,l,,,,,,,,,,,,,,,,,,0,0,0,0,0,3,3,3,,,,,,,,,,,,496.9489253,None,495.7655728,496.965575,s,1,焦躁,l,1,1.3116717,0.540427,gsx,f,19,2024_Apr_17_1708,mian,2021.2.3,60.02022682
,,,,,,1,0,pic/flanker5.png,pic/flanker3.png,a,l,,,,,,,,,,,,,,,,,,0,0,0,0,0,4,4,7,,,,,,,,,,,,500.682425,None,499.4987291,500.6989812,a,1,损害,l,1,0.7023989,0.5219044,gsx,f,19,2024_Apr_17_1708,mian,2021.2.3,60.02022682
,,,,,,0,0,pic/flanker6.png,pic/flanker2.png,a,l,,,,,,,,,,,,,,,,,,0,0,0,0,0,5,5,1,,,,,,,,,,,,503.815591,None,502.6323081,503.8322947,a,1,伤心,l,1,0.5397019,0.46374,gsx,f,19,2024_Apr_17_1708,mian,2021.2.3,60.02022682
,,,,,,0,1,pic/flanker5.png,pic/flanker1.png,s,k,,,,,,,,,,,,,,,,,,0,0,0,0,0,6,6,0,,,,,,,,,,,,506.7656272,None,505.582372,506.7822539,s,1,丰满,l,0,0.4155098,1.1927641,gsx,f,19,2024_Apr_17_1708,mian,2021.2.3,60.02022682
,,,,,,1,1,pic/flanker5.png,pic/flanker3.png,a,k,,,,,,,,,,,,,,,,,,0,0,0,0,0,7,7,4,,,,,,,,,,,,510.3323231,None,509.1489575,510.3488912,None,0,廉洁,k,1,0.6490373,,gsx,f,19,2024_Apr_17_1708,mian,2021.2.3,60.02022682
,,,,,,,,,,,,,,,,,,,,,,,,,,,,,0,0,0,0,,,,,,,,,,,,,,,,,,,,,,,,,,,gsx,f,19,2024_Apr_17_1708,mian,2021.2.3,60.02022682
,,,,,,0,1,pic/flanker5.png,pic/flanker1.png,s,k,pic/AffRest1.png,,,,,,,,,,,,,,,,,,,,,,,,,0,0,0,0,0,0,0,72,,,,529.498971,None,528.2983262,529.498971,s,1,富丽,k,1,0.5539716,0.6088278,gsx,f,19,2024_Apr_17_1708,mian,2021.2.3,60.02022682
,,,,,,0,1,pic/flanker5.png,pic/flanker1.png,s,k,pic/AffRest1.png,,,,,,,,,,,,,,,,,,,,,,,,,0,0,0,0,0,1,1,0,,,,532.5156184,None,531.3322482,532.5323823,s,1,廉洁,k,1,0.5552342,0.5009554,gsx,f,19,2024_Apr_17_1708,mian,2021.2.3,60.02022682
,,,,,,1,1,pic/flanker6.png,pic/flanker4.png,s,k,pic/AffRest1.png,,,,,,,,,,,,,,,,,,,,,,,,,0,0,0,0,0,2,2,6,,,,535.5823298,None,534.3987895,535.5990825,s,1,俊秀,k,1,0.6936266,0.6461388,gsx,f,19,2024_Apr_17_1708,mian,2021.2.3,60.02022682
,,,,,,1,1,pic/flanker6.png,pic/flanker4.png,s,k,pic/AffRest1.png,,,,,,,,,,,,,,,,,,,,,,,,,0,0,0,0,0,3,3,38,,,,538.7822131,None,537.59874,538.7989555,s,1,富足,k,1,0.5149967,0.5874212,gsx,f,19,2024_Apr_17_1708,mian,2021.2.3,60.02022682
,,,,,,0,0,pic/flanker6.png,pic/flanker2.png,a,l,pic/AffRest1.png,,,,,,,,,,,,,,,,,,,,,,,,,0,0,0,0,0,4,4,57,,,,541.8323768,None,540.648998,541.8489371,a,1,冷笑,l,1,0.4511796,0.6145161,gsx,f,19,2024_Apr_17_1708,mian,2021.2.3,60.02022682
,,,,,,1,0,pic/flanker5.png,pic/flanker3.png,a,l,pic/AffRest1.png,,,,,,,,,,,,,,,,,,,,,,,,,0,0,0,0,0,5,5,47,,,,544.7987701,None,543.615545,544.8155857,a,1,烦恼,l,1,0.5444283,0.5782309,gsx,f,19,2024_Apr_17_1708,mian,2021.2.3,60.02022682
,,,,,,1,1,pic/flanker5.png,pic/flanker3.png,a,k,pic/AffRest1.png,,,,,,,,,,,,,,,,,,,,,,,,,0,0,0,0,0,6,6,76,,,,547.9157097,None,546.7322344,547.9323239,a,1,典雅,k,1,0.5501003,0.5196848,gsx,f,19,2024_Apr_17_1708,mian,2021.2.3,60.02022682
,,,,,,0,0,pic/flanker6.png,pic/flanker2.png,a,l,pic/AffRest1.png,,,,,,,,,,,,,,,,,,,,,,,,,0,0,0,0,0,7,7,9,,,,550.9321984,None,549.7491698,550.9488963,a,1,郁闷,l,1,0.648246,0.3688262,gsx,f,19,2024_Apr_17_1708,mian,2021.2.3,60.02022682
,,,,,,0,0,pic/flanker5.png,pic/flanker1.png,s,l,pic/AffRest1.png,,,,,,,,,,,,,,,,,,,,,,,,,0,0,0,0,0,8,8,75,,,,554.0156719,None,552.832235,554.0323387,s,1,嘲笑,l,1,0.6339278,0.7894736,gsx,f,19,2024_Apr_17_1708,mian,2021.2.3,60.02022682
,,,,,,0,0,pic/flanker6.png,pic/flanker2.png,a,l,pic/AffRest1.png,,,,,,,,,,,,,,,,,,,,,,,,,0,0,0,0,0,9,9,49,,,,557.2821308,None,556.0988986,557.2989352,a,1,落后,l,1,0.9563792,0.4047589,gsx,f,19,2024_Apr_17_1708,mian,2021.2.3,60.02022682
,,,,,,0,0,pic/flanker5.png,pic/flanker1.png,s,l,pic/AffRest1.png,,,,,,,,,,,,,,,,,,,,,,,,,0,0,0,0,0,10,10,19,,,,560.682144,None,559.498976,560.6991359,s,1,焦躁,l,1,0.6325295,0.5235237,gsx,f,19,2024_Apr_17_1708,mian,2021.2.3,60.02022682
,,,,,,1,1,pic/flanker6.png,pic/flanker4.png,s,k,pic/AffRest1.png,,,,,,,,,,,,,,,,,,,,,,,,,0,0,0,0,0,11,11,22,,,,563.6655237,None,562.4821779,563.6821678,s,1,丰满,k,1,0.5944702,0.5354436,gsx,f,19,2024_Apr_17_1708,mian,2021.2.3,60.02022682
,,,,,,0,1,pic/flanker5.png,pic/flanker1.png,s,k,pic/AffRest1.png,,,,,,,,,,,,,,,,,,,,,,,,,0,0,0,0,0,12,12,56,,,,566.6483505,None,565.4655817,566.6654428,s,1,圣洁,k,1,0.5619235,0.4077892,gsx,f,19,2024_Apr_17_1708,mian,2021.2.3,60.02022682
,,,,,,1,0,pic/flanker5.png,pic/flanker3.png,a,l,pic/AffRest1.png,,,,,,,,,,,,,,,,,,,,,,,,,0,0,0,0,0,13,13,39,,,,569.5647746,None,568.3822846,569.5819288,a,1,罚款,l,1,0.5604206,0.4855131,gsx,f,19,2024_Apr_17_1708,mian,2021.2.3,60.02022682
,,,,,,0,1,pic/flanker6.png,pic/flanker2.png,a,k,pic/AffRest1.png,,,,,,,,,,,,,,,,,,,,,,,,,0,0,0,0,0,14,14,58,,,,572.5653841,None,571.3821412,572.5821962,a,1,敬佩,k,1,0.647161,0.4066871,gsx,f,19,2024_Apr_17_1708,mian,2021.2.3,60.02022682
,,,,,,0,1,pic/flanker6.png,pic/flanker2.png,a,k,pic/AffRest1.png,,,,,,,,,,,,,,,,,,,,,,,,,0,0,0,0,0,15,15,74,,,,575.5482843,None,574.3650219,575.5651844,a,1,卓越,k,1,0.492375,0.4212238,gsx,f,19,2024_Apr_17_1708,mian,2021.2.3,60.02022682
,,,,,,1,1,pic/flanker5.png,pic/flanker3.png,a,k,pic/AffRest1.png,,,,,,,,,,,,,,,,,,,,,,,,,0,0,0,0,0,16,16,44,,,,578.4655281,None,577.2819919,578.4821765,a,1,豪放,k,1,0.8520796,0.5331771,gsx,f,19,2024_Apr_17_1708,mian,2021.2.3,60.02022682
,,,,,,0,0,pic/flanker5.png,pic/flanker1.png,s,l,pic/AffRest1.png,,,,,,,,,,,,,,,,,,,,,,,,,0,0,0,0,0,17,17,35,,,,581.8655362,None,580.682232,581.8821584,s,1,消沉,l,1,0.5414068,0.5580053,gsx,f,19,2024_Apr_17_1708,mian,2021.2.3,60.02022682
,,,,,,1,0,pic/flanker6.png,pic/flanker4.png,s,l,pic/AffRest1.png,,,,,,,,,,,,,,,,,,,,,,,,,0,0,0,0,0,18,18,37,,,,584.8154347,None,583.632019,584.8322274,s,1,假冒,l,1,0.4819412,0.6524238,gsx,f,19,2024_Apr_17_1708,mian,2021.2.3,60.02022682
,,,,,,0,1,pic/flanker5.png,pic/flanker1.png,s,k,pic/AffRest1.png,,,,,,,,,,,,,,,,,,,,,,,,,0,0,0,0,0,19,19,32,,,,587.8487547,None,586.6656541,587.8653111,s,1,诚恳,k,1,0.5798746,0.4175187,gsx,f,19,2024_Apr_17_1708,mian,2021.2.3,60.02022682
,,,,,,0,1,pic/flanker6.png,pic/flanker2.png,a,k,pic/AffRest1.png,,,,,,,,,,,,,,,,,,,,,,,,,0,0,0,0,0,20,20,2,,,,590.8487305,None,589.6649589,590.8655825,a,1,爽朗,k,1,0.5573008,0.4169531,gsx,f,19,2024_Apr_17_1708,mian,2021.2.3,60.02022682
,,,,,,1,0,pic/flanker5.png,pic/flanker3.png,a,l,pic/AffRest1.png,,,,,,,,,,,,,,,,,,,,,,,,,0,0,0,0,0,21,21,23,,,,593.7655194,None,592.5821312,593.7821858,a,1,排斥,l,1,0.5635318,0.4924336,gsx,f,19,2024_Apr_17_1708,mian,2021.2.3,60.02022682
,,,,,,0,1,pic/flanker6.png,pic/flanker2.png,a,k,pic/AffRest1.png,,,,,,,,,,,,,,,,,,,,,,,,,0,0,0,0,0,22,22,66,,,,596.8157146,None,595.6321655,596.8323921,a,1,如愿,l,0,0.4831801,0.4188871,gsx,f,19,2024_Apr_17_1708,mian,2021.2.3,60.02022682
,,,,,,0,1,pic/flanker5.png,pic/flanker1.png,s,k,pic/AffRest1.png,,,,,,,,,,,,,,,,,,,,,,,,,0,0,0,0,0,23,23,16,,,,599.6154849,None,598.4319603,599.6322253,s,1,赞成,k,1,0.791746,0.481996,gsx,f,19,2024_Apr_17_1708,mian,2021.2.3,60.02022682
,,,,,,1,0,pic/flanker5.png,pic/flanker3.png,a,l,pic/AffRest1.png,,,,,,,,,,,,,,,,,,,,,,,,,0,0,0,0,0,24,24,15,,,,602.8821704,None,601.6987531,602.8987394,a,1,忧虑,l,1,0.5475907,0.4501498,gsx,f,19,2024_Apr_17_1708,mian,2021.2.3,60.02022682
,,,,,,0,0,pic/flanker6.png,pic/flanker2.png,a,l,pic/AffRest1.png,,,,,,,,,,,,,,,,,,,,,,,,,0,0,0,0,0,25,25,1,,,,605.9155706,None,604.7320498,605.9322082,a,1,怀疑,l,1,0.9900189,0.4213106,gsx,f,19,2024_Apr_17_1708,mian,2021.2.3,60.02022682
,,,,,,1,0,pic/flanker6.png,pic/flanker4.png,s,l,pic/AffRest1.png,,,,,,,,,,,,,,,,,,,,,,,,,0,0,0,0,0,26,26,77,,,,609.165462,None,607.9820374,609.1820842,s,1,厌恶,l,1,0.5280735,0.469968,gsx,f,19,2024_Apr_17_1708,mian,2021.2.3,60.02022682
,,,,,,0,0,pic/flanker6.png,pic/flanker2.png,a,l,pic/AffRest1.png,,,,,,,,,,,,,,,,,,,,,,,,,0,0,0,0,0,27,27,33,,,,612.0655104,None,610.8819767,612.0819625,a,1,心慌,l,1,0.623591,0.3954758,gsx,f,19,2024_Apr_17_1708,mian,2021.2.3,60.02022682
,,,,,,1,1,pic/flanker6.png,pic/flanker4.png,s,k,pic/AffRest1.png,,,,,,,,,,,,,,,,,,,,,,,,,0,0,0,0,0,28,28,54,,,,615.0154678,None,613.8321012,615.032228,s,1,奉献,k,1,0.9555624,0.6551173,gsx,f,19,2024_Apr_17_1708,mian,2021.2.3,60.02022682
,,,,,,0,0,pic/flanker5.png,pic/flanker1.png,s,l,pic/AffRest1.png,,,,,,,,,,,,,,,,,,,,,,,,,0,0,0,0,0,29,29,67,,,,618.6822346,None,617.4987923,618.6989205,s,1,闷热,k,0,0.7554084,0.5106053,gsx,f,19,2024_Apr_17_1708,mian,2021.2.3,60.02022682
,,,,,,1,1,pic/flanker6.png,pic/flanker4.png,s,k,pic/AffRest1.png,,,,,,,,,,,,,,,,,,,,,,,,,0,0,0,0,0,30,30,30,,,,621.7987643,None,620.6154754,621.8154607,s,1,羡慕,k,1,0.6334506,0.5510156,gsx,f,19,2024_Apr_17_1708,mian,2021.2.3,60.02022682
,,,,,,0,1,pic/flanker6.png,pic/flanker2.png,a,k,pic/AffRest1.png,,,,,,,,,,,,,,,,,,,,,,,,,0,0,0,0,0,31,31,34,,,,624.9489153,None,623.7654531,624.9655638,a,1,鲜艳,k,1,0.5879327,0.4041674,gsx,f,19,2024_Apr_17_1708,mian,2021.2.3,60.02022682
,,,,,,1,0,pic/flanker5.png,pic/flanker3.png,a,l,pic/AffRest1.png,,,,,,,,,,,,,,,,,,,,,,,,,0,0,0,0,0,32,32,63,,,,627.9990671,None,626.8154185,628.0155278,a,1,损害,l,1,0.6882463,0.4868658,gsx,f,19,2024_Apr_17_1708,mian,2021.2.3,60.02022682
,,,,,,0,1,pic/flanker5.png,pic/flanker1.png,s,k,pic/AffRest1.png,,,,,,,,,,,,,,,,,,,,,,,,,0,0,0,0,0,33,33,8,,,,631.2154765,None,630.0321344,631.2320884,s,1,瑰丽,k,1,0.8177181,0.4613589,gsx,f,19,2024_Apr_17_1708,mian,2021.2.3,60.02022682
,,,,,,0,0,pic/flanker6.png,pic/flanker2.png,a,l,pic/AffRest1.png,,,,,,,,,,,,,,,,,,,,,,,,,0,0,0,0,0,34,34,25,,,,634.3153085,None,633.132175,634.3320865,a,1,逃避,l,1,0.5434912,0.3921961,gsx,f,19,2024_Apr_17_1708,mian,2021.2.3,60.02022682
,,,,,,1,0,pic/flanker5.png,pic/flanker3.png,a,l,pic/AffRest1.png,,,,,,,,,,,,,,,,,,,,,,,,,0,0,0,0,0,35,35,55,,,,637.1490368,None,635.96539,637.1655987,a,1,胡涂,l,1,0.4893283,0.4614703,gsx,f,19,2024_Apr_17_1708,mian,2021.2.3,60.02022682
,,,,,,0,1,pic/flanker6.png,pic/flanker2.png,a,k,pic/AffRest1.png,,,,,,,,,,,,,,,,,,,,,,,,,0,0,0,0,0,36,36,42,,,,640.0820851,None,638.8989211,640.0986415,a,1,清秀,k,1,0.6360096,0.3644091,gsx,f,19,2024_Apr_17_1708,mian,2021.2.3,60.02022682
,,,,,,1,1,pic/flanker6.png,pic/flanker4.png,s,k,pic/AffRest1.png,,,,,,,,,,,,,,,,,,,,,,,,,0,0,0,0,0,37,37,62,,,,643.0319528,None,641.8482214,643.0484899,s,1,前进,k,1,0.5569541,0.5092165,gsx,f,19,2024_Apr_17_1708,mian,2021.2.3,60.02022682
,,,,,,0,1,pic/flanker5.png,pic/flanker1.png,s,k,pic/AffRest1.png,,,,,,,,,,,,,,,,,,,,,,,,,0,0,0,0,0,38,38,64,,,,646.1321465,None,644.9488466,646.1488236,s,1,畅销,k,1,0.5453427,0.4501668,gsx,f,19,2024_Apr_17_1708,mian,2021.2.3,60.02022682
,,,,,,0,0,pic/flanker6.png,pic/flanker2.png,a,l,pic/AffRest1.png,,,,,,,,,,,,,,,,,,,,,,,,,0,0,0,0,0,39,39,65,,,,649.0655112,None,647.8819121,649.0820743,a,1,沮丧,l,1,0.628221,0.5439555,gsx,f,19,2024_Apr_17_1708,mian,2021.2.3,60.02022682
,,,,,,1,1,pic/flanker5.png,pic/flanker3.png,a,k,pic/AffRest1.png,,,,,,,,,,,,,,,,,,,,,,,,,0,0,0,0,0,40,40,36,,,,652.2320938,None,651.0486749,652.2480786,a,1,雄厚,k,1,0.8010416,1.331705,gsx,f,19,2024_Apr_17_1708,mian,2021.2.3,60.02022682
,,,,,,0,0,pic/flanker5.png,pic/flanker1.png,s,l,pic/AffRest1.png,,,,,,,,,,,,,,,,,,,,,,,,,0,0,0,0,0,41,41,27,,,,656.2654172,None,655.0818895,656.2819985,s,1,自卑,l,1,0.6428664,0.4113348,gsx,f,19,2024_Apr_17_1708,mian,2021.2.3,60.02022682
,,,,,,1,0,pic/flanker6.png,pic/flanker4.png,s,l,pic/AffRest1.png,,,,,,,,,,,,,,,,,,,,,,,,,0,0,0,0,0,42,42,45,,,,659.2652655,None,658.0819761,659.2822634,s,1,轻率,l,1,0.4821536,0.5254571,gsx,f,19,2024_Apr_17_1708,mian,2021.2.3,60.02022682
,,,,,,0,0,pic/flanker5.png,pic/flanker1.png,s,l,pic/AffRest1.png,,,,,,,,,,,,,,,,,,,,,,,,,0,0,0,0,0,43,43,51,,,,662.1656316,None,660.9819496,662.1822885,s,1,杂乱,l,1,0.460695,0.4256751,gsx,f,19,2024_Apr_17_1708,mian,2021.2.3,60.02022682
,,,,,,0,1,pic/flanker6.png,pic/flanker2.png,a,k,pic/AffRest1.png,,,,,,,,,,,,,,,,,,,,,,,,,0,0,0,0,0,44,44,50,,,,664.982014,None,663.7979381,664.9988019,a,1,优雅,k,1,0.6547592,0.3665319,gsx,f,19,2024_Apr_17_1708,mian,2021.2.3,60.02022682
,,,,,,0,1,pic/flanker5.png,pic/flanker1.png,s,k,pic/AffRest1.png,,,,,,,,,,,,,,,,,,,,,,,,,0,0,0,0,0,45,45,48,,,,667.8652203,None,666.6819791,667.8817978,s,1,热切,k,1,0.6083607,0.5034433,gsx,f,19,2024_Apr_17_1708,mian,2021.2.3,60.02022682
,,,,,,0,0,pic/flanker6.png,pic/flanker2.png,a,l,pic/AffRest1.png,,,,,,,,,,,,,,,,,,,,,,,,,0,0,0,0,0,46,46,17,,,,670.9820837,None,669.79859,670.99889,a,1,丢失,l,1,0.5403907,0.463511,gsx,f,19,2024_Apr_17_1708,mian,2021.2.3,60.02022682
,,,,,,1,1,pic/flanker5.png,pic/flanker3.png,a,k,pic/AffRest1.png,,,,,,,,,,,,,,,,,,,,,,,,,0,0,0,0,0,47,47,68,,,,673.831984,None,672.6487367,673.8486949,a,1,旺盛,k,1,0.5764864,0.4872091,gsx,f,19,2024_Apr_17_1708,mian,2021.2.3,60.02022682
,,,,,,1,0,pic/flanker6.png,pic/flanker4.png,s,l,pic/AffRest1.png,,,,,,,,,,,,,,,,,,,,,,,,,0,0,0,0,0,48,48,13,,,,676.7653878,None,675.5819985,676.781922,s,1,撒谎,l,1,0.558591,0.4996418,gsx,f,19,2024_Apr_17_1708,mian,2021.2.3,60.02022682
,,,,,,1,0,pic/flanker6.png,pic/flanker4.png,s,l,pic/AffRest1.png,,,,,,,,,,,,,,,,,,,,,,,,,0,0,0,0,0,49,49,61,,,,679.74879,None,678.5654178,679.7653433,s,1,懒惰,k,0,0.5111535,0.8190561,gsx,f,19,2024_Apr_17_1708,mian,2021.2.3,60.02022682
,,,,,,1,0,pic/flanker6.png,pic/flanker4.png,s,l,pic/AffRest1.png,,,,,,,,,,,,,,,,,,,,,,,,,0,0,0,0,0,50,50,5,,,,683.0153753,None,681.8319113,683.0319323,s,1,孤单,l,1,0.5805655,0.6975889,gsx,f,19,2024_Apr_17_1708,mian,2021.2.3,60.02022682
,,,,,,1,1,pic/flanker5.png,pic/flanker3.png,a,k,pic/AffRest1.png,,,,,,,,,,,,,,,,,,,,,,,,,0,0,0,0,0,51,51,60,,,,686.3486833,None,685.165276,686.3653901,a,1,吉祥,k,1,0.6409473,0.4496944,gsx,f,19,2024_Apr_17_1708,mian,2021.2.3,60.02022682
,,,,,,1,1,pic/flanker5.png,pic/flanker3.png,a,k,pic/AffRest1.png,,,,,,,,,,,,,,,,,,,,,,,,,0,0,0,0,0,52,52,12,,,,689.4985213,None,688.3151838,689.5151502,a,1,享受,k,1,0.5109774,0.5279014,gsx,f,19,2024_Apr_17_1708,mian,2021.2.3,60.02022682
,,,,,,1,0,pic/flanker5.png,pic/flanker3.png,a,l,pic/AffRest1.png,,,,,,,,,,,,,,,,,,,,,,,,,0,0,0,0,0,53,53,7,,,,692.5820126,None,691.3987096,692.5986178,a,1,浪费,l,1,0.5235373,0.5266179,gsx,f,19,2024_Apr_17_1708,mian,2021.2.3,60.02022682
,,,,,,0,1,pic/flanker6.png,pic/flanker2.png,a,k,pic/AffRest1.png,,,,,,,,,,,,,,,,,,,,,,,,,0,0,0,0,0,54,54,26,,,,695.4817528,None,694.2986267,695.4985633,a,1,永恒,k,1,0.5581879,0.4070328,gsx,f,19,2024_Apr_17_1708,mian,2021.2.3,60.02022682
,,,,,,1,1,pic/flanker6.png,pic/flanker4.png,s,k,pic/AffRest1.png,,,,,,,,,,,,,,,,,,,,,,,,,0,0,0,0,0,55,55,14,,,,698.2820621,None,697.0986555,698.2988363,s,1,生动,k,1,0.5804683,0.5051315,gsx,f,19,2024_Apr_17_1708,mian,2021.2.3,60.02022682
,,,,,,1,0,pic/flanker5.png,pic/flanker3.png,a,l,pic/AffRest1.png,,,,,,,,,,,,,,,,,,,,,,,,,0,0,0,0,0,56,56,71,,,,701.1984265,None,700.0151567,701.215236,a,1,失意,l,1,0.6079682,0.4678031,gsx,f,19,2024_Apr_17_1708,mian,2021.2.3,60.02022682
,,,,,,1,1,pic/flanker6.png,pic/flanker4.png,s,k,pic/AffRest1.png,,,,,,,,,,,,,,,,,,,,,,,,,0,0,0,0,0,57,57,46,,,,704.2651372,None,703.0817822,704.2817623,s,1,舒畅,l,0,1.0668461,0.549268,gsx,f,19,2024_Apr_17_1708,mian,2021.2.3,60.02022682
,,,,,,0,0,pic/flanker5.png,pic/flanker1.png,s,l,pic/AffRest1.png,,,,,,,,,,,,,,,,,,,,,,,,,0,0,0,0,0,58,58,43,,,,707.9319035,None,706.7487233,707.9484654,s,1,缺乏,l,1,0.6058332,0.4731316,gsx,f,19,2024_Apr_17_1708,mian,2021.2.3,60.02022682
,,,,,,0,0,pic/flanker6.png,pic/flanker2.png,a,l,pic/AffRest1.png,,,,,,,,,,,,,,,,,,,,,,,,,0,0,0,0,0,59,59,73,,,,710.96507,None,709.7819466,710.9822118,a,1,争吵,l,1,0.6082601,0.3842574,gsx,f,19,2024_Apr_17_1708,mian,2021.2.3,60.02022682
,,,,,,1,1,pic/flanker5.png,pic/flanker3.png,a,k,pic/AffRest1.png,,,,,,,,,,,,,,,,,,,,,,,,,0,0,0,0,0,60,60,52,,,,714.0152893,None,712.8318904,714.0318774,a,1,充裕,k,1,1.1830231,0.5106877,gsx,f,19,2024_Apr_17_1708,mian,2021.2.3,60.02022682
,,,,,,0,1,pic/flanker6.png,pic/flanker2.png,a,k,pic/AffRest1.png,,,,,,,,,,,,,,,,,,,,,,,,,0,0,0,0,0,61,61,10,,,,717.6653244,None,716.482002,717.6817688,a,1,顽强,k,1,1.1202424,0.378877,gsx,f,19,2024_Apr_17_1708,mian,2021.2.3,60.02022682
,,,,,,1,1,pic/flanker5.png,pic/flanker3.png,a,k,pic/AffRest1.png,,,,,,,,,,,,,,,,,,,,,,,,,0,0,0,0,0,62,62,20,,,,721.0985483,None,719.9153143,721.1152268,a,1,有利,k,1,0.5162712,0.495328,gsx,f,19,2024_Apr_17_1708,mian,2021.2.3,60.02022682
,,,,,,1,1,pic/flanker5.png,pic/flanker3.png,a,k,pic/AffRest1.png,,,,,,,,,,,,,,,,,,,,,,,,,0,0,0,0,0,63,63,28,,,,723.9984852,None,722.8155301,724.0152983,a,1,振作,k,1,0.5390586,0.4392834,gsx,f,19,2024_Apr_17_1708,mian,2021.2.3,60.02022682
,,,,,,0,0,pic/flanker6.png,pic/flanker2.png,a,l,pic/AffRest1.png,,,,,,,,,,,,,,,,,,,,,,,,,0,0,0,0,0,64,64,41,,,,726.9818166,None,725.7985471,726.9985979,a,1,禁止,l,1,0.559437,0.903244,gsx,f,19,2024_Apr_17_1708,mian,2021.2.3,60.02022682
,,,,,,1,0,pic/flanker6.png,pic/flanker4.png,s,l,pic/AffRest1.png,,,,,,,,,,,,,,,,,,,,,,,,,0,0,0,0,0,65,65,21,,,,730.4486513,None,729.2651827,730.4653298,s,1,黑暗,l,1,0.9065541,0.7606103,gsx,f,19,2024_Apr_17_1708,mian,2021.2.3,60.02022682
,,,,,,0,0,pic/flanker5.png,pic/flanker1.png,s,l,pic/AffRest1.png,,,,,,,,,,,,,,,,,,,,,,,,,0,0,0,0,0,66,66,59,,,,734.0653332,None,732.8819909,734.0819374,s,1,别扭,l,1,0.5633915,0.5420257,gsx,f,19,2024_Apr_17_1708,mian,2021.2.3,60.02022682
,,,,,,0,1,pic/flanker6.png,pic/flanker2.png,a,k,pic/AffRest1.png,,,,,,,,,,,,,,,,,,,,,,,,,0,0,0,0,0,67,67,18,,,,737.0152684,None,735.8320612,737.031939,a,1,秀丽,k,1,0.5366738,0.4127486,gsx,f,19,2024_Apr_17_1708,mian,2021.2.3,60.02022682
,,,,,,0,1,pic/flanker5.png,pic/flanker1.png,s,k,pic/AffRest1.png,,,,,,,,,,,,,,,,,,,,,,,,,0,0,0,0,0,68,68,40,,,,739.9985626,None,738.8151888,740.0150879,s,1,公平,k,1,0.6191656,0.551922,gsx,f,19,2024_Apr_17_1708,mian,2021.2.3,60.02022682
,,,,,,1,0,pic/flanker6.png,pic/flanker4.png,s,l,pic/AffRest1.png,,,,,,,,,,,,,,,,,,,,,,,,,0,0,0,0,0,69,69,53,,,,743.2317771,None,742.0484987,743.2485919,s,1,处罚,l,1,1.0662753,0.5237678,gsx,f,19,2024_Apr_17_1708,mian,2021.2.3,60.02022682
,,,,,,0,0,pic/flanker5.png,pic/flanker1.png,s,l,pic/AffRest1.png,,,,,,,,,,,,,,,,,,,,,,,,,0,0,0,0,0,70,70,3,,,,746.8647048,None,745.6812448,746.8812503,s,1,鲁莽,l,1,0.5667846,0.8089573,gsx,f,19,2024_Apr_17_1708,mian,2021.2.3,60.02022682
,,,,,,0,0,pic/flanker5.png,pic/flanker1.png,s,l,pic/AffRest1.png,,,,,,,,,,,,,,,,,,,,,,,,,0,0,0,0,0,71,71,11,,,,750.148069,None,748.9647973,750.1648049,s,1,悲观,l,1,0.5014761,0.4236182,gsx,f,19,2024_Apr_17_1708,mian,2021.2.3,60.02022682
,,,,,,1,1,pic/flanker6.png,pic/flanker4.png,s,k,pic/AffRest1.png,,,,,,,,,,,,,,,,,,,,,,,,,0,0,0,0,0,72,72,70,,,,752.9486736,None,751.7646347,752.9647039,s,1,正直,k,1,0.5829586,0.5726263,gsx,f,19,2024_Apr_17_1708,mian,2021.2.3,60.02022682
,,,,,,1,0,pic/flanker5.png,pic/flanker3.png,a,l,pic/AffRest1.png,,,,,,,,,,,,,,,,,,,,,,,,,0,0,0,0,0,73,73,79,,,,755.9983653,None,754.8152776,756.0153251,a,1,伤心,l,1,0.4736579,0.4592913,gsx,f,19,2024_Apr_17_1708,mian,2021.2.3,60.02022682
,,,,,,1,0,pic/flanker6.png,pic/flanker4.png,s,l,pic/AffRest1.png,,,,,,,,,,,,,,,,,,,,,,,,,0,0,0,0,0,74,74,69,,,,758.8645821,None,757.6812607,758.8812075,s,1,穷苦,l,1,0.5098631,0.704903,gsx,f,19,2024_Apr_17_1708,mian,2021.2.3,60.02022682
,,,,,,1,1,pic/flanker6.png,pic/flanker4.png,s,k,pic/AffRest1.png,,,,,,,,,,,,,,,,,,,,,,,,,0,0,0,0,0,75,75,78,,,,761.9485486,None,760.7651762,761.9652595,s,1,精致,k,1,0.4928239,0.4919486,gsx,f,19,2024_Apr_17_1708,mian,2021.2.3,60.02022682
,,,,,,1,0,pic/flanker6.png,pic/flanker4.png,s,l,pic/AffRest1.png,,,,,,,,,,,,,,,,,,,,,,,,,0,0,0,0,0,76,76,29,,,,764.8480329,None,763.665134,764.864669,s,1,堵塞,l,1,0.5838639,0.5321826,gsx,f,19,2024_Apr_17_1708,mian,2021.2.3,60.02022682
,,,,,,1,1,pic/flanker5.png,pic/flanker3.png,a,k,pic/AffRest1.png,,,,,,,,,,,,,,,,,,,,,,,,,0,0,0,0,0,77,77,4,,,,767.9321317,None,766.7485335,767.9487976,a,1,留恋,k,1,0.6227034,0.474215,gsx,f,19,2024_Apr_17_1708,mian,2021.2.3,60.02022682
,,,,,,0,1,pic/flanker5.png,pic/flanker1.png,s,k,pic/AffRest1.png,,,,,,,,,,,,,,,,,,,,,,,,,0,0,0,0,0,78,78,24,,,,770.9319552,None,769.7484,770.9486089,s,1,珍藏,k,1,0.6276436,0.4590401,gsx,f,19,2024_Apr_17_1708,mian,2021.2.3,60.02022682
,,,,,,1,0,pic/flanker5.png,pic/flanker3.png,a,l,pic/AffRest1.png,,,,,,,,,,,,,,,,,,,,,,,,,0,0,0,0,0,79,79,31,,,,773.8987388,None,772.715185,773.9154562,a,1,慌忙,l,1,0.5248746,0.4389958,gsx,f,19,2024_Apr_17_1708,mian,2021.2.3,60.02022682
,,,,,,,,,,,,pic/AffRest1.png,,,,,,,,,,,,,,,,,,,,,,,,,0,0,0,0,,,,,,,,,,,,,,,,,,,gsx,f,19,2024_Apr_17_1708,mian,2021.2.3,60.02022682
,,,,,,1,0,pic/flanker5.png,pic/flanker3.png,a,l,pic/AffRest2.png,,,,,,,,,,,,,,,,,,,,,,,,,0,1,1,1,0,0,0,23,,,,784.3652592,None,783.1768439,784.3819544,a,1,厌恶,l,1,0.5098571,0.4603374,gsx,f,19,2024_Apr_17_1708,mian,2021.2.3,60.02022682
,,,,,,0,0,pic/flanker6.png,pic/flanker2.png,a,l,pic/AffRest2.png,,,,,,,,,,,,,,,,,,,,,,,,,0,1,1,1,0,1,1,17,,,,787.3653018,None,786.1817101,787.3819256,a,1,处罚,l,1,0.4811298,0.7292276,gsx,f,19,2024_Apr_17_1708,mian,2021.2.3,60.02022682
,,,,,,1,0,pic/flanker5.png,pic/flanker3.png,a,l,pic/AffRest2.png,,,,,,,,,,,,,,,,,,,,,,,,,0,1,1,1,0,2,2,47,,,,790.5820039,None,789.3984122,790.5987223,a,1,懒惰,l,1,0.2978521,0.4154466,gsx,f,19,2024_Apr_17_1708,mian,2021.2.3,60.02022682
,,,,,,0,0,pic/flanker6.png,pic/flanker2.png,a,l,pic/AffRest2.png,,,,,,,,,,,,,,,,,,,,,,,,,0,1,1,1,0,3,3,9,,,,793.3820518,None,792.198349,793.3987178,a,1,闷热,l,1,0.597305,0.3160239,gsx,f,19,2024_Apr_17_1708,mian,2021.2.3,60.02022682
,,,,,,1,0,pic/flanker5.png,pic/flanker3.png,a,l,pic/AffRest2.png,,,,,,,,,,,,,,,,,,,,,,,,,0,1,1,1,0,4,4,55,,,,796.3650819,None,795.1818431,796.3819231,a,1,伤心,l,1,0.4152469,0.5182567,gsx,f,19,2024_Apr_17_1708,mian,2021.2.3,60.02022682
,,,,,,1,0,pic/flanker5.png,pic/flanker3.png,a,l,pic/AffRest2.png,,,,,,,,,,,,,,,,,,,,,,,,,0,1,1,1,0,5,5,39,,,,799.2484597,None,798.0650815,799.2652166,a,1,焦躁,l,1,0.3897012,0.9679858,gsx,f,19,2024_Apr_17_1708,mian,2021.2.3,60.02022682
,,,,,,0,0,pic/flanker6.png,pic/flanker2.png,a,l,pic/AffRest2.png,,,,,,,,,,,,,,,,,,,,,,,,,0,1,1,1,0,6,6,73,,,,802.5649804,None,801.3818281,802.5820149,s,0,别扭,l,1,0.5221912,0.6456068,gsx,f,19,2024_Apr_17_1708,mian,2021.2.3,60.02022682
,,,,,,0,1,pic/flanker5.png,pic/flanker1.png,s,k,pic/AffRest2.png,,,,,,,,,,,,,,,,,,,,,,,,,0,1,1,1,0,7,7,16,,,,805.7986379,None,804.6151594,805.8153521,s,1,奉献,k,1,0.8246635,1.0305282,gsx,f,19,2024_Apr_17_1708,mian,2021.2.3,60.02022682
,,,,,,1,0,pic/flanker6.png,pic/flanker4.png,s,l,pic/AffRest2.png,,,,,,,,,,,,,,,,,,,,,,,,,0,1,1,1,0,8,8,29,,,,809.5153516,None,808.3316346,809.5320435,None,0,郁闷,l,1,0.7371699,,gsx,f,19,2024_Apr_17_1708,mian,2021.2.3,60.02022682
,,,,,,1,1,pic/flanker5.png,pic/flanker3.png,a,k,pic/AffRest2.png,,,,,,,,,,,,,,,,,,,,,,,,,0,1,1,1,0,9,9,28,,,,813.5817991,None,812.3983939,813.5984259,a,1,充裕,l,0,0.5596365,0.6696419,gsx,f,19,2024_Apr_17_1708,mian,2021.2.3,60.02022682
,,,,,,1,0,pic/flanker5.png,pic/flanker3.png,a,l,pic/AffRest2.png,,,,,,,,,,,,,,,,,,,,,,,,,0,1,1,1,0,10,10,7,,,,816.7650833,None,815.5817597,816.781796,a,1,忧虑,l,1,0.777127,0.9392033,gsx,f,19,2024_Apr_17_1708,mian,2021.2.3,60.02022682
,,,,,,1,0,pic/flanker6.png,pic/flanker4.png,s,l,pic/AffRest2.png,,,,,,,,,,,,,,,,,,,,,,,,,0,1,1,1,0,11,11,45,,,,820.3484592,None,819.1652043,820.3644103,s,1,嘲笑,l,1,0.5569292,0.8355104,gsx,f,19,2024_Apr_17_1708,mian,2021.2.3,60.02022682
,,,,,,1,1,pic/flanker5.png,pic/flanker3.png,a,k,pic/AffRest2.png,,,,,,,,,,,,,,,,,,,,,,,,,0,1,1,1,0,12,12,20,,,,823.8152591,None,822.6317513,823.8317811,a,1,典雅,k,1,0.5553083,0.7179276,gsx,f,19,2024_Apr_17_1708,mian,2021.2.3,60.02022682
,,,,,,1,0,pic/flanker5.png,pic/flanker3.png,a,l,pic/AffRest2.png,,,,,,,,,,,,,,,,,,,,,,,,,0,1,1,1,0,13,13,15,,,,827.0483618,None,825.8651076,827.0650003,a,1,撒谎,l,1,0.5184924,0.60262,gsx,f,19,2024_Apr_17_1708,mian,2021.2.3,60.02022682
,,,,,,1,1,pic/flanker6.png,pic/flanker4.png,s,k,pic/AffRest2.png,,,,,,,,,,,,,,,,,,,,,,,,,0,1,1,1,0,14,14,38,,,,830.0150607,None,828.8316501,830.0317811,s,1,优雅,k,1,0.4691113,0.6925538,gsx,f,19,2024_Apr_17_1708,mian,2021.2.3,60.02022682
,,,,,,1,1,pic/flanker5.png,pic/flanker3.png,a,k,pic/AffRest2.png,,,,,,,,,,,,,,,,,,,,,,,,,0,1,1,1,0,15,15,12,,,,833.1153395,None,831.931609,833.1318521,a,1,顽强,k,1,0.5822808,1.0649922,gsx,f,19,2024_Apr_17_1708,mian,2021.2.3,60.02022682
,,,,,,1,1,pic/flanker5.png,pic/flanker3.png,a,k,pic/AffRest2.png,,,,,,,,,,,,,,,,,,,,,,,,,0,1,1,1,0,16,16,36,,,,836.715074,None,835.5317055,836.7318521,a,1,圣洁,k,1,0.5287594,0.6547822,gsx,f,19,2024_Apr_17_1708,mian,2021.2.3,60.02022682
,,,,,,0,1,pic/flanker5.png,pic/flanker1.png,s,k,pic/AffRest2.png,,,,,,,,,,,,,,,,,,,,,,,,,0,1,1,1,0,17,17,8,,,,839.8486719,None,838.6648642,839.8653138,s,1,吉祥,k,1,0.3884694,0.5541838,gsx,f,19,2024_Apr_17_1708,mian,2021.2.3,60.02022682
,,,,,,1,0,pic/flanker5.png,pic/flanker3.png,a,l,pic/AffRest2.png,,,,,,,,,,,,,,,,,,,,,,,,,0,1,1,1,0,18,18,31,,,,842.7485262,None,841.5649426,842.7650853,a,1,沮丧,l,1,0.6036438,0.7853535,gsx,f,19,2024_Apr_17_1708,mian,2021.2.3,60.02022682
,,,,,,0,0,pic/flanker6.png,pic/flanker2.png,a,l,pic/AffRest2.png,,,,,,,,,,,,,,,,,,,,,,,,,0,1,1,1,0,19,19,33,,,,846.1816655,None,844.9982581,846.198307,a,1,孤单,l,1,0.4858932,0.5112904,gsx,f,19,2024_Apr_17_1708,mian,2021.2.3,60.02022682
,,,,,,0,0,pic/flanker5.png,pic/flanker1.png,s,l,pic/AffRest2.png,,,,,,,,,,,,,,,,,,,,,,,,,0,1,1,1,0,20,20,35,,,,849.2315998,None,848.0483895,849.2482769,s,1,怀疑,k,0,0.3758754,0.7704854,gsx,f,19,2024_Apr_17_1708,mian,2021.2.3,60.02022682
,,,,,,1,1,pic/flanker6.png,pic/flanker4.png,s,k,pic/AffRest2.png,,,,,,,,,,,,,,,,,,,,,,,,,0,1,1,1,0,21,21,46,,,,852.4481841,None,851.2649793,852.4649116,s,1,精致,k,1,0.5309195,0.9105145,gsx,f,19,2024_Apr_17_1708,mian,2021.2.3,60.02022682
,,,,,,0,0,pic/flanker6.png,pic/flanker2.png,a,l,pic/AffRest2.png,,,,,,,,,,,,,,,,,,,,,,,,,0,1,1,1,0,22,22,41,,,,855.7481186,None,854.5650508,855.7651203,a,1,冷笑,l,1,0.5684443,0.5266874,gsx,f,19,2024_Apr_17_1708,mian,2021.2.3,60.02022682
,,,,,,0,1,pic/flanker6.png,pic/flanker2.png,a,k,pic/AffRest2.png,,,,,,,,,,,,,,,,,,,,,,,,,0,1,1,1,0,23,23,58,,,,858.8315171,None,857.6482345,858.8482736,a,1,富丽,k,1,0.6769066,0.5162796,gsx,f,19,2024_Apr_17_1708,mian,2021.2.3,60.02022682
,,,,,,1,1,pic/flanker5.png,pic/flanker3.png,a,k,pic/AffRest2.png,,,,,,,,,,,,,,,,,,,,,,,,,0,1,1,1,0,24,24,44,,,,862.0986066,None,860.9148562,862.1152105,a,1,廉洁,k,1,0.8176807,0.5986272,gsx,f,19,2024_Apr_17_1708,mian,2021.2.3,60.02022682
,,,,,,1,0,pic/flanker6.png,pic/flanker4.png,s,l,pic/AffRest2.png,,,,,,,,,,,,,,,,,,,,,,,,,0,1,1,1,0,25,25,13,,,,865.4816809,None,864.2985604,865.4983931,s,1,消沉,l,1,0.5779247,0.601243,gsx,f,19,2024_Apr_17_1708,mian,2021.2.3,60.02022682
,,,,,,0,0,pic/flanker5.png,pic/flanker1.png,s,l,pic/AffRest2.png,,,,,,,,,,,,,,,,,,,,,,,,,0,1,1,1,0,26,26,43,,,,868.5647992,None,867.381494,868.581653,s,1,杂乱,l,1,0.5439987,0.6571315,gsx,f,19,2024_Apr_17_1708,mian,2021.2.3,60.02022682
,,,,,,1,0,pic/flanker5.png,pic/flanker3.png,a,l,pic/AffRest2.png,,,,,,,,,,,,,,,,,,,,,,,,,0,1,1,1,0,27,27,79,,,,871.8316564,None,870.6480876,871.8483922,a,1,假冒,l,1,0.4933718,0.5608919,gsx,f,19,2024_Apr_17_1708,mian,2021.2.3,60.02022682
,,,,,,0,0,pic/flanker6.png,pic/flanker2.png,a,l,pic/AffRest2.png,,,,,,,,,,,,,,,,,,,,,,,,,0,1,1,1,0,28,28,1,,,,874.8482227,None,873.6650133,874.864748,a,1,逃避,l,1,0.5122678,0.4177307,gsx,f,19,2024_Apr_17_1708,mian,2021.2.3,60.02022682
,,,,,,1,0,pic/flanker6.png,pic/flanker4.png,s,l,pic/AffRest2.png,,,,,,,,,,,,,,,,,,,,,,,,,0,1,1,1,0,29,29,21,,,,877.6813811,None,876.4981558,877.6983506,s,1,失意,l,1,0.4796619,0.5236782,gsx,f,19,2024_Apr_17_1708,mian,2021.2.3,60.02022682
,,,,,,0,0,pic/flanker5.png,pic/flanker1.png,s,l,pic/AffRest2.png,,,,,,,,,,,,,,,,,,,,,,,,,0,1,1,1,0,30,30,59,,,,880.531667,None,879.3482676,880.5483938,s,1,鲁莽,l,1,1.0383908,0.5529773,gsx,f,19,2024_Apr_17_1708,mian,2021.2.3,60.02022682
,,,,,,0,1,pic/flanker5.png,pic/flanker1.png,s,k,pic/AffRest2.png,,,,,,,,,,,,,,,,,,,,,,,,,0,1,1,1,0,31,31,48,,,,884.1481949,None,882.9649067,884.1647813,s,1,清秀,k,1,0.557947,0.4935137,gsx,f,19,2024_Apr_17_1708,mian,2021.2.3,60.02022682
,,,,,,0,0,pic/flanker5.png,pic/flanker1.png,s,l,pic/AffRest2.png,,,,,,,,,,,,,,,,,,,,,,,,,0,1,1,1,0,32,32,3,,,,887.098343,None,885.9149253,887.1148893,s,1,自卑,l,1,0.5301065,0.4808258,gsx,f,19,2024_Apr_17_1708,mian,2021.2.3,60.02022682
,,,,,,1,1,pic/flanker6.png,pic/flanker4.png,s,k,pic/AffRest2.png,,,,,,,,,,,,,,,,,,,,,,,,,0,1,1,1,0,33,33,22,,,,890.0316606,None,888.8481515,890.0481519,s,1,俊秀,l,0,0.7330705,0.7530547,gsx,f,19,2024_Apr_17_1708,mian,2021.2.3,60.02022682
,,,,,,0,1,pic/flanker5.png,pic/flanker1.png,s,k,pic/AffRest2.png,,,,,,,,,,,,,,,,,,,,,,,,,0,1,1,1,0,34,34,0,,,,893.3647655,None,892.1816231,893.381511,s,1,赞成,k,1,0.5662678,0.5575075,gsx,f,19,2024_Apr_17_1708,mian,2021.2.3,60.02022682
,,,,,,0,1,pic/flanker6.png,pic/flanker2.png,a,k,pic/AffRest2.png,,,,,,,,,,,,,,,,,,,,,,,,,0,1,1,1,0,35,35,34,,,,896.314899,None,895.131619,896.3316282,a,1,振作,k,1,0.6508609,0.4285312,gsx,f,19,2024_Apr_17_1708,mian,2021.2.3,60.02022682
,,,,,,0,0,pic/flanker6.png,pic/flanker2.png,a,l,pic/AffRest2.png,,,,,,,,,,,,,,,,,,,,,,,,,0,1,1,1,0,36,36,25,,,,899.3981209,None,898.2148224,899.4149038,a,1,悲观,l,1,0.652234,0.4893856,gsx,f,19,2024_Apr_17_1708,mian,2021.2.3,60.02022682
,,,,,,1,1,pic/flanker6.png,pic/flanker4.png,s,k,pic/AffRest2.png,,,,,,,,,,,,,,,,,,,,,,,,,0,1,1,1,0,37,37,54,,,,902.4483444,None,901.2651983,902.464766,s,1,鲜艳,k,1,0.5184552,0.7048141,gsx,f,19,2024_Apr_17_1708,mian,2021.2.3,60.02022682
,,,,,,0,1,pic/flanker5.png,pic/flanker1.png,s,k,pic/AffRest2.png,,,,,,,,,,,,,,,,,,,,,,,,,0,1,1,1,0,38,38,32,,,,905.7314876,None,904.5481448,905.7481118,s,1,享受,k,1,0.5649792,0.6843075,gsx,f,19,2024_Apr_17_1708,mian,2021.2.3,60.02022682
,,,,,,1,0,pic/flanker6.png,pic/flanker4.png,s,l,pic/AffRest2.png,,,,,,,,,,,,,,,,,,,,,,,,,0,1,1,1,0,39,39,53,,,,908.9815696,None,907.7984593,908.9983306,s,1,罚款,l,1,0.5215215,0.7490412,gsx,f,19,2024_Apr_17_1708,mian,2021.2.3,60.02022682
,,,,,,0,1,pic/flanker6.png,pic/flanker2.png,a,k,pic/AffRest2.png,,,,,,,,,,,,,,,,,,,,,,,,,0,1,1,1,0,40,40,42,,,,912.1644087,None,910.981584,912.1813057,a,1,诚恳,k,1,0.7112129,0.5693058,gsx,f,19,2024_Apr_17_1708,mian,2021.2.3,60.02022682
,,,,,,0,1,pic/flanker6.png,pic/flanker2.png,a,k,pic/AffRest2.png,,,,,,,,,,,,,,,,,,,,,,,,,0,1,1,1,0,41,41,10,,,,915.2981805,None,914.1149463,915.3148976,a,1,有利,k,1,0.9373807,0.561212,gsx,f,19,2024_Apr_17_1708,mian,2021.2.3,60.02022682
,,,,,,0,1,pic/flanker6.png,pic/flanker2.png,a,k,pic/AffRest2.png,,,,,,,,,,,,,,,,,,,,,,,,,0,1,1,1,0,42,42,50,,,,918.6982432,None,917.5148143,918.7147787,a,1,旺盛,k,1,0.5930051,0.3809556,gsx,f,19,2024_Apr_17_1708,mian,2021.2.3,60.02022682
,,,,,,0,1,pic/flanker6.png,pic/flanker2.png,a,k,pic/AffRest2.png,,,,,,,,,,,,,,,,,,,,,,,,,0,1,1,1,0,43,43,18,,,,921.5817807,None,920.3979381,921.5984651,a,1,瑰丽,k,1,0.4988578,0.3348137,gsx,f,19,2024_Apr_17_1708,mian,2021.2.3,60.02022682
,,,,,,0,0,pic/flanker5.png,pic/flanker1.png,s,l,pic/AffRest2.png,,,,,,,,,,,,,,,,,,,,,,,,,0,1,1,1,0,44,44,51,,,,924.314824,None,923.1314722,924.3314727,s,1,穷苦,l,1,0.5521572,0.6174594,gsx,f,19,2024_Apr_17_1708,mian,2021.2.3,60.02022682
,,,,,,0,1,pic/flanker6.png,pic/flanker2.png,a,k,pic/AffRest2.png,,,,,,,,,,,,,,,,,,,,,,,,,0,1,1,1,0,45,45,74,,,,927.4480923,None,926.2649042,927.464817,a,1,爽朗,k,1,0.635981,0.3976102,gsx,f,19,2024_Apr_17_1708,mian,2021.2.3,60.02022682
,,,,,,0,0,pic/flanker5.png,pic/flanker1.png,s,l,pic/AffRest2.png,,,,,,,,,,,,,,,,,,,,,,,,,0,1,1,1,0,46,46,27,,,,930.4983369,None,929.3148534,930.5148716,s,1,黑暗,l,1,0.6819995,0.4944687,gsx,f,19,2024_Apr_17_1708,mian,2021.2.3,60.02022682
,,,,,,0,1,pic/flanker5.png,pic/flanker1.png,s,k,pic/AffRest2.png,,,,,,,,,,,,,,,,,,,,,,,,,0,1,1,1,0,47,47,64,,,,933.6314241,None,932.4480226,933.6481407,s,1,卓越,k,1,0.5978454,0.4087505,gsx,f,19,2024_Apr_17_1708,mian,2021.2.3,60.02022682
,,,,,,1,1,pic/flanker5.png,pic/flanker3.png,a,k,pic/AffRest2.png,,,,,,,,,,,,,,,,,,,,,,,,,0,1,1,1,0,48,48,68,,,,936.4650078,None,935.2815591,936.4818816,a,1,留恋,k,1,0.574979,0.6342415,gsx,f,19,2024_Apr_17_1708,mian,2021.2.3,60.02022682
,,,,,,1,1,pic/flanker6.png,pic/flanker4.png,s,k,pic/AffRest2.png,,,,,,,,,,,,,,,,,,,,,,,,,0,1,1,1,0,49,49,30,,,,939.6643276,None,938.4812971,939.6808285,s,1,秀丽,k,1,0.4974914,0.6026005,gsx,f,19,2024_Apr_17_1708,mian,2021.2.3,60.02022682
,,,,,,1,0,pic/flanker6.png,pic/flanker4.png,s,l,pic/AffRest2.png,,,,,,,,,,,,,,,,,,,,,,,,,0,1,1,1,0,50,50,61,,,,942.7975646,None,941.6146151,942.8142575,s,1,心慌,l,1,0.7441162,0.6401746,gsx,f,19,2024_Apr_17_1708,mian,2021.2.3,60.02022682
,,,,,,1,1,pic/flanker6.png,pic/flanker4.png,s,k,pic/AffRest2.png,,,,,,,,,,,,,,,,,,,,,,,,,0,1,1,1,0,51,51,70,,,,946.1309078,None,944.9481449,946.1481608,s,1,雄厚,k,1,0.6887798,0.559064,gsx,f,19,2024_Apr_17_1708,mian,2021.2.3,60.02022682
,,,,,,0,1,pic/flanker6.png,pic/flanker2.png,a,k,pic/AffRest2.png,,,,,,,,,,,,,,,,,,,,,,,,,0,1,1,1,0,52,52,26,,,,949.3309789,None,948.148381,949.3482251,a,1,前进,k,1,0.5517404,0.5408847,gsx,f,19,2024_Apr_17_1708,mian,2021.2.3,60.02022682
,,,,,,0,0,pic/flanker5.png,pic/flanker1.png,s,l,pic/AffRest2.png,,,,,,,,,,,,,,,,,,,,,,,,,0,1,1,1,0,53,53,19,,,,952.3979415,None,951.2147013,952.4148551,s,1,丢失,l,1,0.5130554,0.5951611,gsx,f,19,2024_Apr_17_1708,mian,2021.2.3,60.02022682
,,,,,,1,1,pic/flanker6.png,pic/flanker4.png,s,k,pic/AffRest2.png,,,,,,,,,,,,,,,,,,,,,,,,,0,1,1,1,0,54,54,62,,,,955.4149364,None,954.2314516,955.4308858,s,1,富足,k,1,0.8165575,0.8530106,gsx,f,19,2024_Apr_17_1708,mian,2021.2.3,60.02022682
,,,,,,0,0,pic/flanker5.png,pic/flanker1.png,s,l,pic/AffRest2.png,,,,,,,,,,,,,,,,,,,,,,,,,0,1,1,1,0,55,55,67,,,,959.1481702,None,957.9647764,959.1647161,s,1,排斥,l,1,0.6318148,0.8154067,gsx,f,19,2024_Apr_17_1708,mian,2021.2.3,60.02022682
,,,,,,1,1,pic/flanker6.png,pic/flanker4.png,s,k,pic/AffRest2.png,,,,,,,,,,,,,,,,,,,,,,,,,0,1,1,1,0,56,56,14,,,,962.4315253,None,961.247883,962.4481939,s,1,丰满,k,1,0.4428916,0.5580942,gsx,f,19,2024_Apr_17_1708,mian,2021.2.3,60.02022682
,,,,,,0,1,pic/flanker5.png,pic/flanker1.png,s,k,pic/AffRest2.png,,,,,,,,,,,,,,,,,,,,,,,,,0,1,1,1,0,57,57,72,,,,965.2813995,None,964.097842,965.2981743,s,1,如愿,k,1,0.5040324,0.6000133,gsx,f,19,2024_Apr_17_1708,mian,2021.2.3,60.02022682
,,,,,,1,0,pic/flanker6.png,pic/flanker4.png,s,l,pic/AffRest2.png,,,,,,,,,,,,,,,,,,,,,,,,,0,1,1,1,0,58,58,69,,,,968.2148518,None,967.0313768,968.2315055,s,1,烦恼,l,1,0.8170231,0.5517607,gsx,f,19,2024_Apr_17_1708,mian,2021.2.3,60.02022682
,,,,,,0,0,pic/flanker5.png,pic/flanker1.png,s,l,pic/AffRest2.png,,,,,,,,,,,,,,,,,,,,,,,,,0,1,1,1,0,59,59,75,,,,971.5647271,None,970.38146,971.5809237,s,1,堵塞,l,1,1.0681496,1.2659779,gsx,f,19,2024_Apr_17_1708,mian,2021.2.3,60.02022682
,,,,,,1,0,pic/flanker6.png,pic/flanker4.png,s,l,pic/AffRest2.png,,,,,,,,,,,,,,,,,,,,,,,,,0,1,1,1,0,60,60,77,,,,975.7813927,None,974.5981542,975.7983713,s,1,损害,l,1,0.5160525,0.5043862,gsx,f,19,2024_Apr_17_1708,mian,2021.2.3,60.02022682
,,,,,,1,1,pic/flanker6.png,pic/flanker4.png,s,k,pic/AffRest2.png,,,,,,,,,,,,,,,,,,,,,,,,,0,1,1,1,0,61,61,78,,,,978.7479186,None,977.5648301,978.7646193,s,1,公平,k,1,0.6541946,0.5308709,gsx,f,19,2024_Apr_17_1708,mian,2021.2.3,60.02022682
,,,,,,1,1,pic/flanker6.png,pic/flanker4.png,s,k,pic/AffRest2.png,,,,,,,,,,,,,,,,,,,,,,,,,0,1,1,1,0,62,62,6,,,,981.8641239,None,980.680791,981.8807306,s,1,珍藏,k,1,0.545471,0.5669314,gsx,f,19,2024_Apr_17_1708,mian,2021.2.3,60.02022682
,,,,,,0,0,pic/flanker5.png,pic/flanker1.png,s,l,pic/AffRest2.png,,,,,,,,,,,,,,,,,,,,,,,,,0,1,1,1,0,63,63,11,,,,984.9648566,None,983.7814824,984.9814899,s,1,缺乏,l,1,1.0905785,0.5171937,gsx,f,19,2024_Apr_17_1708,mian,2021.2.3,60.02022682
,,,,,,1,1,pic/flanker5.png,pic/flanker3.png,a,k,pic/AffRest2.png,,,,,,,,,,,,,,,,,,,,,,,,,0,1,1,1,0,64,64,52,,,,988.5147497,None,987.3314489,988.5313816,a,1,畅销,k,1,0.5363907,0.5202136,gsx,f,19,2024_Apr_17_1708,mian,2021.2.3,60.02022682
,,,,,,1,1,pic/flanker5.png,pic/flanker3.png,a,k,pic/AffRest2.png,,,,,,,,,,,,,,,,,,,,,,,,,0,1,1,1,0,65,65,76,,,,991.5147949,None,990.3307334,991.5307705,a,1,羡慕,k,1,0.4707685,0.5301698,gsx,f,19,2024_Apr_17_1708,mian,2021.2.3,60.02022682
,,,,,,1,0,pic/flanker5.png,pic/flanker3.png,a,l,pic/AffRest2.png,,,,,,,,,,,,,,,,,,,,,,,,,0,1,1,1,0,66,66,63,,,,994.3480784,None,993.1644869,994.3646013,a,1,浪费,l,1,0.7871954,0.4309065,gsx,f,19,2024_Apr_17_1708,mian,2021.2.3,60.02022682
,,,,,,1,0,pic/flanker5.png,pic/flanker3.png,a,l,pic/AffRest2.png,,,,,,,,,,,,,,,,,,,,,,,,,0,1,1,1,0,67,67,71,,,,997.4978713,None,996.3146609,997.5147966,a,1,禁止,l,1,0.8787024,0.4315923,gsx,f,19,2024_Apr_17_1708,mian,2021.2.3,60.02022682
,,,,,,0,0,pic/flanker6.png,pic/flanker2.png,a,l,pic/AffRest2.png,,,,,,,,,,,,,,,,,,,,,,,,,0,1,1,1,0,68,68,49,,,,1000.81482,None,999.6313996,1000.83071,a,1,轻率,l,1,0.6414318,0.3694932,gsx,f,19,2024_Apr_17_1708,mian,2021.2.3,60.02022682
,,,,,,1,1,pic/flanker5.png,pic/flanker3.png,a,k,pic/AffRest2.png,,,,,,,,,,,,,,,,,,,,,,,,,0,1,1,1,0,69,69,60,,,,1003.864617,None,1002.681171,1003.881418,a,1,生动,k,1,0.5299279,0.4714897,gsx,f,19,2024_Apr_17_1708,mian,2021.2.3,60.02022682
,,,,,,0,1,pic/flanker5.png,pic/flanker1.png,s,k,pic/AffRest2.png,,,,,,,,,,,,,,,,,,,,,,,,,0,1,1,1,0,70,70,40,,,,1006.764726,None,1005.581351,1006.781324,a,0,敬佩,k,1,1.9316553,0.5796157,gsx,f,19,2024_Apr_17_1708,mian,2021.2.3,60.02022682
,,,,,,0,1,pic/flanker6.png,pic/flanker2.png,a,k,pic/AffRest2.png,,,,,,,,,,,,,,,,,,,,,,,,,0,1,1,1,0,71,71,66,,,,1011.24804,None,1010.064695,1011.2647,a,1,舒畅,k,1,0.7280735,0.6814117,gsx,f,19,2024_Apr_17_1708,mian,2021.2.3,60.02022682
,,,,,,0,1,pic/flanker5.png,pic/flanker1.png,s,k,pic/AffRest2.png,,,,,,,,,,,,,,,,,,,,,,,,,0,1,1,1,0,72,72,24,,,,1014.497996,None,1013.314814,1014.514842,s,1,热切,k,1,0.8965388,0.8578068,gsx,f,19,2024_Apr_17_1708,mian,2021.2.3,60.02022682
,,,,,,1,1,pic/flanker5.png,pic/flanker3.png,a,k,pic/AffRest2.png,,,,,,,,,,,,,,,,,,,,,,,,,0,1,1,1,0,73,73,4,,,,1018.23138,None,1017.047979,1018.247968,a,1,永恒,k,1,0.5764051,0.5568805,gsx,f,19,2024_Apr_17_1708,mian,2021.2.3,60.02022682
,,,,,,0,1,pic/flanker5.png,pic/flanker1.png,s,k,pic/AffRest2.png,,,,,,,,,,,,,,,,,,,,,,,,,0,1,1,1,0,74,74,56,,,,1021.298041,None,1020.114691,1021.314647,s,1,正直,k,1,0.457781,0.7127478,gsx,f,19,2024_Apr_17_1708,mian,2021.2.3,60.02022682
,,,,,,0,0,pic/flanker6.png,pic/flanker2.png,a,l,pic/AffRest2.png,,,,,,,,,,,,,,,,,,,,,,,,,0,1,1,1,0,75,75,65,,,,1024.348058,None,1023.16459,1024.364712,a,1,争吵,l,1,0.6462514,0.5012617,gsx,f,19,2024_Apr_17_1708,mian,2021.2.3,60.02022682
,,,,,,1,0,pic/flanker6.png,pic/flanker4.png,s,l,pic/AffRest2.png,,,,,,,,,,,,,,,,,,,,,,,,,0,1,1,1,0,76,76,37,,,,1027.381655,None,1026.198024,1027.398226,s,1,胡涂,l,1,0.6324268,0.7331139,gsx,f,19,2024_Apr_17_1708,mian,2021.2.3,60.02022682
,,,,,,0,1,pic/flanker6.png,pic/flanker2.png,a,k,pic/AffRest2.png,,,,,,,,,,,,,,,,,,,,,,,,,0,1,1,1,0,77,77,2,,,,1030.748087,None,1029.564787,1030.764602,a,1,豪放,k,1,1.126437,0.6377121,gsx,f,19,2024_Apr_17_1708,mian,2021.2.3,60.02022682
,,,,,,0,0,pic/flanker6.png,pic/flanker2.png,a,l,pic/AffRest2.png,,,,,,,,,,,,,,,,,,,,,,,,,0,1,1,1,0,78,78,57,,,,1034.498078,None,1033.31476,1034.514476,a,1,慌忙,l,1,0.6500991,0.5124488,gsx,f,19,2024_Apr_17_1708,mian,2021.2.3,60.02022682
,,,,,,1,0,pic/flanker6.png,pic/flanker4.png,s,l,pic/AffRest2.png,,,,,,,,,,,,,,,,,,,,,,,,,0,1,1,1,0,79,79,5,,,,1037.598084,None,1036.414625,1037.614552,s,1,落后,l,1,0.5204481,0.5947644,gsx,f,19,2024_Apr_17_1708,mian,2021.2.3,60.02022682
,,,,,,,,,,,,pic/AffRest2.png,,,,,,,,,,,,,,,,,,,,,,,,,0,1,1,1,,,,,,,,,,,,,,,,,,,gsx,f,19,2024_Apr_17_1708,mian,2021.2.3,60.02022682
,,,,,,0,1,pic/flanker6.png,pic/flanker2.png,a,k,pic/AffRest3.png,,,,,,,,,,,,,,,,,,,,,,,,,0,2,2,2,0,0,0,18,,,,1051.547701,None,1050.348732,1051.547701,a,1,有利,k,1,0.7191313,0.692023,gsx,f,19,2024_Apr_17_1708,mian,2021.2.3,60.02022682
,,,,,,0,1,pic/flanker5.png,pic/flanker1.png,s,k,pic/AffRest3.png,,,,,,,,,,,,,,,,,,,,,,,,,0,2,2,2,0,1,1,24,,,,1054.914549,None,1053.730987,1054.931322,s,1,留恋,k,1,0.3851375,0.4452852,gsx,f,19,2024_Apr_17_1708,mian,2021.2.3,60.02022682
,,,,,,0,1,pic/flanker6.png,pic/flanker2.png,a,k,pic/AffRest3.png,,,,,,,,,,,,,,,,,,,,,,,,,0,2,2,2,0,2,2,34,,,,1057.697996,None,1056.51468,1057.71474,a,1,圣洁,k,1,0.8157068,0.4316538,gsx,f,19,2024_Apr_17_1708,mian,2021.2.3,60.02022682
,,,,,,0,0,pic/flanker6.png,pic/flanker2.png,a,l,pic/AffRest3.png,,,,,,,,,,,,,,,,,,,,,,,,,0,2,2,2,0,3,3,41,,,,1060.99786,None,1059.81461,1061.014654,a,1,损害,l,1,0.5901401,0.3884425,gsx,f,19,2024_Apr_17_1708,mian,2021.2.3,60.02022682
,,,,,,1,0,pic/flanker5.png,pic/flanker3.png,a,l,pic/AffRest3.png,,,,,,,,,,,,,,,,,,,,,,,,,0,2,2,2,0,4,4,15,,,,1063.864671,None,1062.681305,1063.881378,a,1,懒惰,k,0,0.4770345,0.8317637,gsx,f,19,2024_Apr_17_1708,mian,2021.2.3,60.02022682
,,,,,,0,0,pic/flanker6.png,pic/flanker2.png,a,l,pic/AffRest3.png,,,,,,,,,,,,,,,,,,,,,,,,,0,2,2,2,0,5,5,17,,,,1067.181387,None,1065.99794,1067.197771,a,1,悲观,l,1,0.6664373,0.3909308,gsx,f,19,2024_Apr_17_1708,mian,2021.2.3,60.02022682
,,,,,,1,0,pic/flanker6.png,pic/flanker4.png,s,l,pic/AffRest3.png,,,,,,,,,,,,,,,,,,,,,,,,,0,2,2,2,0,6,6,69,,,,1070.231301,None,1069.047867,1070.247988,s,1,闷热,l,1,0.5450096,0.8064704,gsx,f,19,2024_Apr_17_1708,mian,2021.2.3,60.02022682
,,,,,,1,1,pic/flanker5.png,pic/flanker3.png,a,k,pic/AffRest3.png,,,,,,,,,,,,,,,,,,,,,,,,,0,2,2,2,0,7,7,12,,,,1073.514655,None,1072.331344,1073.53123,a,1,羡慕,k,1,0.5901651,0.8526577,gsx,f,19,2024_Apr_17_1708,mian,2021.2.3,60.02022682
,,,,,,1,0,pic/flanker5.png,pic/flanker3.png,a,l,pic/AffRest3.png,,,,,,,,,,,,,,,,,,,,,,,,,0,2,2,2,0,8,8,23,,,,1076.848074,None,1075.664627,1076.864731,a,1,杂乱,l,1,0.5839674,0.5647996,gsx,f,19,2024_Apr_17_1708,mian,2021.2.3,60.02022682
,,,,,,1,0,pic/flanker6.png,pic/flanker4.png,s,l,pic/AffRest3.png,,,,,,,,,,,,,,,,,,,,,,,,,0,2,2,2,0,9,9,77,,,,1079.914591,None,1078.731345,1079.931312,s,1,假冒,l,1,0.6411254,0.6668713,gsx,f,19,2024_Apr_17_1708,mian,2021.2.3,60.02022682
,,,,,,1,0,pic/flanker6.png,pic/flanker4.png,s,l,pic/AffRest3.png,,,,,,,,,,,,,,,,,,,,,,,,,0,2,2,2,0,10,10,37,,,,1083.114538,None,1081.931223,1083.131248,s,1,处罚,l,1,0.5962914,0.7239179,gsx,f,19,2024_Apr_17_1708,mian,2021.2.3,60.02022682
,,,,,,1,1,pic/flanker5.png,pic/flanker3.png,a,k,pic/AffRest3.png,,,,,,,,,,,,,,,,,,,,,,,,,0,2,2,2,0,11,11,28,,,,1086.314561,None,1085.131217,1086.331231,a,1,丰满,k,1,0.9275312,0.8227452,gsx,f,19,2024_Apr_17_1708,mian,2021.2.3,60.02022682
,,,,,,0,0,pic/flanker6.png,pic/flanker2.png,a,l,pic/AffRest3.png,,,,,,,,,,,,,,,,,,,,,,,,,0,2,2,2,0,12,12,57,,,,1090.131343,None,1088.947726,1090.147999,a,1,焦躁,l,1,0.607274,0.4857089,gsx,f,19,2024_Apr_17_1708,mian,2021.2.3,60.02022682
,,,,,,0,1,pic/flanker6.png,pic/flanker2.png,a,k,pic/AffRest3.png,,,,,,,,,,,,,,,,,,,,,,,,,0,2,2,2,0,13,13,2,,,,1093.131244,None,1091.94724,1093.147893,a,1,优雅,k,1,0.6041711,0.6141214,gsx,f,19,2024_Apr_17_1708,mian,2021.2.3,60.02022682
,,,,,,0,0,pic/flanker5.png,pic/flanker1.png,s,l,pic/AffRest3.png,,,,,,,,,,,,,,,,,,,,,,,,,0,2,2,2,0,14,14,11,,,,1096.414547,None,1095.231282,1096.431307,s,1,心慌,l,1,0.6070257,0.4566079,gsx,f,19,2024_Apr_17_1708,mian,2021.2.3,60.02022682
,,,,,,1,0,pic/flanker6.png,pic/flanker4.png,s,l,pic/AffRest3.png,,,,,,,,,,,,,,,,,,,,,,,,,0,2,2,2,0,15,15,5,,,,1099.464572,None,1098.281254,1099.481305,s,1,厌恶,l,1,0.4990633,0.5478713,gsx,f,19,2024_Apr_17_1708,mian,2021.2.3,60.02022682
,,,,,,0,1,pic/flanker5.png,pic/flanker1.png,s,k,pic/AffRest3.png,,,,,,,,,,,,,,,,,,,,,,,,,0,2,2,2,0,16,16,40,,,,1102.447944,None,1101.264412,1102.464531,s,1,秀丽,k,1,0.55853,0.5876651,gsx,f,19,2024_Apr_17_1708,mian,2021.2.3,60.02022682
,,,,,,1,0,pic/flanker5.png,pic/flanker3.png,a,l,pic/AffRest3.png,,,,,,,,,,,,,,,,,,,,,,,,,0,2,2,2,0,17,17,63,,,,1105.681045,None,1104.497847,1105.697402,a,1,伤心,l,1,0.5164087,0.8932678,gsx,f,19,2024_Apr_17_1708,mian,2021.2.3,60.02022682
,,,,,,1,0,pic/flanker5.png,pic/flanker3.png,a,l,pic/AffRest3.png,,,,,,,,,,,,,,,,,,,,,,,,,0,2,2,2,0,18,18,55,,,,1108.914609,None,1107.731176,1108.931166,a,1,逃避,l,1,0.6135637,0.5551812,gsx,f,19,2024_Apr_17_1708,mian,2021.2.3,60.02022682
,,,,,,0,0,pic/flanker5.png,pic/flanker1.png,s,l,pic/AffRest3.png,,,,,,,,,,,,,,,,,,,,,,,,,0,2,2,2,0,19,19,67,,,,1111.964718,None,1110.781081,1111.981458,s,1,缺乏,l,1,0.5120237,0.5981402,gsx,f,19,2024_Apr_17_1708,mian,2021.2.3,60.02022682
,,,,,,0,0,pic/flanker5.png,pic/flanker1.png,s,l,pic/AffRest3.png,,,,,,,,,,,,,,,,,,,,,,,,,0,2,2,2,0,20,20,43,,,,1114.914493,None,1113.731233,1114.931185,s,1,胡涂,l,1,0.5786194,0.454365,gsx,f,19,2024_Apr_17_1708,mian,2021.2.3,60.02022682
,,,,,,1,1,pic/flanker5.png,pic/flanker3.png,a,k,pic/AffRest3.png,,,,,,,,,,,,,,,,,,,,,,,,,0,2,2,2,0,21,21,44,,,,1117.814282,None,1116.631254,1117.831253,a,1,敬佩,k,1,1.0252683,0.5241784,gsx,f,19,2024_Apr_17_1708,mian,2021.2.3,60.02022682
,,,,,,1,1,pic/flanker6.png,pic/flanker4.png,s,k,pic/AffRest3.png,,,,,,,,,,,,,,,,,,,,,,,,,0,2,2,2,0,22,22,46,,,,1121.247402,None,1120.063853,1121.264028,s,1,卓越,k,1,0.5278455,0.659923,gsx,f,19,2024_Apr_17_1708,mian,2021.2.3,60.02022682
,,,,,,0,0,pic/flanker5.png,pic/flanker1.png,s,l,pic/AffRest3.png,,,,,,,,,,,,,,,,,,,,,,,,,0,2,2,2,0,23,23,27,,,,1124.43123,None,1123.247822,1124.447912,s,1,排斥,k,0,1.3229804,0.6446813,gsx,f,19,2024_Apr_17_1708,mian,2021.2.3,60.02022682
,,,,,,1,1,pic/flanker6.png,pic/flanker4.png,s,k,pic/AffRest3.png,,,,,,,,,,,,,,,,,,,,,,,,,0,2,2,2,0,24,24,30,,,,1128.26395,None,1127.080304,1128.280561,s,1,鲜艳,k,1,0.5394929,0.459073,gsx,f,19,2024_Apr_17_1708,mian,2021.2.3,60.02022682
,,,,,,0,1,pic/flanker5.png,pic/flanker1.png,s,k,pic/AffRest3.png,,,,,,,,,,,,,,,,,,,,,,,,,0,2,2,2,0,25,25,8,,,,1131.247528,None,1130.063967,1131.26458,s,1,顽强,k,1,0.5433022,0.4293103,gsx,f,19,2024_Apr_17_1708,mian,2021.2.3,60.02022682
,,,,,,0,1,pic/flanker6.png,pic/flanker2.png,a,k,pic/AffRest3.png,,,,,,,,,,,,,,,,,,,,,,,,,0,2,2,2,0,26,26,10,,,,1134.064357,None,1132.881179,1134.080975,a,1,前进,k,1,0.5942073,0.4989563,gsx,f,19,2024_Apr_17_1708,mian,2021.2.3,60.02022682
,,,,,,1,1,pic/flanker6.png,pic/flanker4.png,s,k,pic/AffRest3.png,,,,,,,,,,,,,,,,,,,,,,,,,0,2,2,2,0,27,27,78,,,,1137.181064,None,1135.997419,1137.19711,s,1,畅销,k,1,0.6265491,0.5990724,gsx,f,19,2024_Apr_17_1708,mian,2021.2.3,60.02022682
,,,,,,0,0,pic/flanker6.png,pic/flanker2.png,a,l,pic/AffRest3.png,,,,,,,,,,,,,,,,,,,,,,,,,0,2,2,2,0,28,28,65,,,,1140.263999,None,1139.081208,1140.280766,a,1,烦恼,l,1,0.7214522,0.5572834,gsx,f,19,2024_Apr_17_1708,mian,2021.2.3,60.02022682
,,,,,,1,1,pic/flanker6.png,pic/flanker4.png,s,k,pic/AffRest3.png,,,,,,,,,,,,,,,,,,,,,,,,,0,2,2,2,0,29,29,6,,,,1143.53088,None,1142.347159,1143.547481,s,1,生动,k,1,0.5554196,0.6315677,gsx,f,19,2024_Apr_17_1708,mian,2021.2.3,60.02022682
,,,,,,0,1,pic/flanker6.png,pic/flanker2.png,a,k,pic/AffRest3.png,,,,,,,,,,,,,,,,,,,,,,,,,0,2,2,2,0,30,30,42,,,,1146.598041,None,1145.414464,1146.614602,a,1,奉献,k,1,1.1276807,0.3972231,gsx,f,19,2024_Apr_17_1708,mian,2021.2.3,60.02022682
,,,,,,0,1,pic/flanker6.png,pic/flanker2.png,a,k,pic/AffRest3.png,,,,,,,,,,,,,,,,,,,,,,,,,0,2,2,2,0,31,31,74,,,,1150.031033,None,1148.847596,1150.047757,a,1,富足,k,1,0.4837612,0.4243873,gsx,f,19,2024_Apr_17_1708,mian,2021.2.3,60.02022682
,,,,,,0,0,pic/flanker6.png,pic/flanker2.png,a,l,pic/AffRest3.png,,,,,,,,,,,,,,,,,,,,,,,,,0,2,2,2,0,32,32,33,,,,1152.780436,None,1151.597877,1152.796978,a,1,争吵,l,1,0.5611922,0.6975061,gsx,f,19,2024_Apr_17_1708,mian,2021.2.3,60.02022682
,,,,,,1,1,pic/flanker5.png,pic/flanker3.png,a,k,pic/AffRest3.png,,,,,,,,,,,,,,,,,,,,,,,,,0,2,2,2,0,33,33,76,,,,1156.014363,None,1154.831015,1156.030985,a,1,赞成,k,1,0.5865974,0.6374537,gsx,f,19,2024_Apr_17_1708,mian,2021.2.3,60.02022682
,,,,,,1,0,pic/flanker6.png,pic/flanker4.png,s,l,pic/AffRest3.png,,,,,,,,,,,,,,,,,,,,,,,,,0,2,2,2,0,34,34,45,,,,1159.31471,None,1158.131239,1159.3315,s,1,嘲笑,l,1,0.7063143,0.6140363,gsx,f,19,2024_Apr_17_1708,mian,2021.2.3,60.02022682
,,,,,,1,1,pic/flanker6.png,pic/flanker4.png,s,k,pic/AffRest3.png,,,,,,,,,,,,,,,,,,,,,,,,,0,2,2,2,0,35,35,62,,,,1162.664343,None,1161.480821,1162.680916,s,1,正直,k,1,0.5451742,0.717373,gsx,f,19,2024_Apr_17_1708,mian,2021.2.3,60.02022682
,,,,,,0,0,pic/flanker6.png,pic/flanker2.png,a,l,pic/AffRest3.png,,,,,,,,,,,,,,,,,,,,,,,,,0,2,2,2,0,36,36,9,,,,1165.914442,None,1164.731055,1165.931201,a,1,冷笑,l,1,0.9775341,0.6283651,gsx,f,19,2024_Apr_17_1708,mian,2021.2.3,60.02022682
,,,,,,0,1,pic/flanker5.png,pic/flanker1.png,s,k,pic/AffRest3.png,,,,,,,,,,,,,,,,,,,,,,,,,0,2,2,2,0,37,37,48,,,,1169.597816,None,1168.41448,1169.614395,s,1,振作,k,1,0.5888943,0.4777378,gsx,f,19,2024_Apr_17_1708,mian,2021.2.3,60.02022682
,,,,,,1,1,pic/flanker6.png,pic/flanker4.png,s,k,pic/AffRest3.png,,,,,,,,,,,,,,,,,,,,,,,,,0,2,2,2,0,38,38,70,,,,1172.714338,None,1171.531727,1172.730833,s,1,俊秀,k,1,0.4994869,0.5400138,gsx,f,19,2024_Apr_17_1708,mian,2021.2.3,60.02022682
,,,,,,0,1,pic/flanker5.png,pic/flanker1.png,s,k,pic/AffRest3.png,,,,,,,,,,,,,,,,,,,,,,,,,0,2,2,2,0,39,39,56,,,,1175.780964,None,1174.598084,1175.797655,s,1,永恒,k,1,0.4696675,0.4741596,gsx,f,19,2024_Apr_17_1708,mian,2021.2.3,60.02022682
,,,,,,0,0,pic/flanker5.png,pic/flanker1.png,s,l,pic/AffRest3.png,,,,,,,,,,,,,,,,,,,,,,,,,0,2,2,2,0,40,40,3,,,,1178.731008,None,1177.547889,1178.747815,s,1,郁闷,l,1,0.4838758,0.486449,gsx,f,19,2024_Apr_17_1708,mian,2021.2.3,60.02022682
,,,,,,0,1,pic/flanker6.png,pic/flanker2.png,a,k,pic/AffRest3.png,,,,,,,,,,,,,,,,,,,,,,,,,0,2,2,2,0,41,41,50,,,,1181.74782,None,1180.564429,1181.764388,a,1,爽朗,k,1,0.5676889,0.3769243,gsx,f,19,2024_Apr_17_1708,mian,2021.2.3,60.02022682
,,,,,,1,0,pic/flanker6.png,pic/flanker4.png,s,l,pic/AffRest3.png,,,,,,,,,,,,,,,,,,,,,,,,,0,2,2,2,0,42,42,29,,,,1184.564549,None,1183.381129,1184.581232,s,1,别扭,l,1,0.6316484,0.5303024,gsx,f,19,2024_Apr_17_1708,mian,2021.2.3,60.02022682
,,,,,,1,1,pic/flanker5.png,pic/flanker3.png,a,k,pic/AffRest3.png,,,,,,,,,,,,,,,,,,,,,,,,,0,2,2,2,0,43,43,36,,,,1187.764425,None,1186.581144,1187.781046,a,1,雄厚,k,1,0.4847541,0.5644896,gsx,f,19,2024_Apr_17_1708,mian,2021.2.3,60.02022682
,,,,,,0,1,pic/flanker5.png,pic/flanker1.png,s,k,pic/AffRest3.png,,,,,,,,,,,,,,,,,,,,,,,,,0,2,2,2,0,44,44,72,,,,1190.797765,None,1189.614495,1190.814401,s,1,瑰丽,k,1,0.4528525,0.4706354,gsx,f,19,2024_Apr_17_1708,mian,2021.2.3,60.02022682
,,,,,,1,0,pic/flanker6.png,pic/flanker4.png,s,l,pic/AffRest3.png,,,,,,,,,,,,,,,,,,,,,,,,,0,2,2,2,0,45,45,21,,,,1193.614707,None,1192.430989,1193.63128,s,1,怀疑,l,1,0.6308315,0.7112133,gsx,f,19,2024_Apr_17_1708,mian,2021.2.3,60.02022682
,,,,,,1,0,pic/flanker5.png,pic/flanker3.png,a,l,pic/AffRest3.png,,,,,,,,,,,,,,,,,,,,,,,,,0,2,2,2,0,46,46,47,,,,1196.897729,None,1195.715021,1196.914392,a,1,落后,l,1,0.5543381,0.5175476,gsx,f,19,2024_Apr_17_1708,mian,2021.2.3,60.02022682
,,,,,,1,0,pic/flanker5.png,pic/flanker3.png,a,l,pic/AffRest3.png,,,,,,,,,,,,,,,,,,,,,,,,,0,2,2,2,0,47,47,31,,,,1199.947751,None,1198.764439,1199.964366,a,1,罚款,l,1,0.4978274,0.5840912,gsx,f,19,2024_Apr_17_1708,mian,2021.2.3,60.02022682
,,,,,,0,0,pic/flanker5.png,pic/flanker1.png,s,l,pic/AffRest3.png,,,,,,,,,,,,,,,,,,,,,,,,,0,2,2,2,0,48,48,19,,,,1202.930963,None,1201.747783,1202.947663,s,1,慌忙,l,1,0.4757863,0.5811767,gsx,f,19,2024_Apr_17_1708,mian,2021.2.3,60.02022682
,,,,,,1,1,pic/flanker5.png,pic/flanker3.png,a,k,pic/AffRest3.png,,,,,,,,,,,,,,,,,,,,,,,,,0,2,2,2,0,49,49,20,,,,1205.881229,None,1204.697965,1205.897798,a,1,舒畅,k,1,0.6535978,0.6789168,gsx,f,19,2024_Apr_17_1708,mian,2021.2.3,60.02022682
,,,,,,1,0,pic/flanker6.png,pic/flanker4.png,s,l,pic/AffRest3.png,,,,,,,,,,,,,,,,,,,,,,,,,0,2,2,2,0,50,50,53,,,,1209.131159,None,1207.947777,1209.147757,s,1,轻率,l,1,0.591474,0.7300732,gsx,f,19,2024_Apr_17_1708,mian,2021.2.3,60.02022682
,,,,,,0,1,pic/flanker5.png,pic/flanker1.png,s,k,pic/AffRest3.png,,,,,,,,,,,,,,,,,,,,,,,,,0,2,2,2,0,51,51,32,,,,1212.314531,None,1211.130789,1212.331296,s,1,廉洁,k,1,0.6058314,0.5116621,gsx,f,19,2024_Apr_17_1708,mian,2021.2.3,60.02022682
,,,,,,1,0,pic/flanker5.png,pic/flanker3.png,a,l,pic/AffRest3.png,,,,,,,,,,,,,,,,,,,,,,,,,0,2,2,2,0,52,52,7,,,,1215.29776,None,1214.114318,1215.314379,a,1,堵塞,l,1,0.4505744,0.5296075,gsx,f,19,2024_Apr_17_1708,mian,2021.2.3,60.02022682
,,,,,,1,1,pic/flanker6.png,pic/flanker4.png,s,k,pic/AffRest3.png,,,,,,,,,,,,,,,,,,,,,,,,,0,2,2,2,0,53,53,22,,,,1218.197914,None,1217.014128,1218.214631,s,1,诚恳,k,1,0.6491723,0.8425,gsx,f,19,2024_Apr_17_1708,mian,2021.2.3,60.02022682
,,,,,,0,0,pic/flanker6.png,pic/flanker2.png,a,l,pic/AffRest3.png,,,,,,,,,,,,,,,,,,,,,,,,,0,2,2,2,0,54,54,25,,,,1221.731044,None,1220.547121,1221.747879,a,1,消沉,l,1,0.48599,0.6917281,gsx,f,19,2024_Apr_17_1708,mian,2021.2.3,60.02022682
,,,,,,1,0,pic/flanker5.png,pic/flanker3.png,a,l,pic/AffRest3.png,,,,,,,,,,,,,,,,,,,,,,,,,0,2,2,2,0,55,55,39,,,,1224.814593,None,1223.630923,1224.831254,a,1,黑暗,l,1,0.4245232,0.4919093,gsx,f,19,2024_Apr_17_1708,mian,2021.2.3,60.02022682
,,,,,,0,0,pic/flanker5.png,pic/flanker1.png,s,l,pic/AffRest3.png,,,,,,,,,,,,,,,,,,,,,,,,,0,2,2,2,0,56,56,51,,,,1227.681069,None,1226.497496,1227.697731,s,1,丢失,l,1,0.6364119,0.5959446,gsx,f,19,2024_Apr_17_1708,mian,2021.2.3,60.02022682
,,,,,,1,1,pic/flanker6.png,pic/flanker4.png,s,k,pic/AffRest3.png,,,,,,,,,,,,,,,,,,,,,,,,,0,2,2,2,0,57,57,14,,,,1230.830999,None,1229.647545,1230.847578,s,1,豪放,k,1,0.97836,0.5320239,gsx,f,19,2024_Apr_17_1708,mian,2021.2.3,60.02022682
,,,,,,0,1,pic/flanker5.png,pic/flanker1.png,s,k,pic/AffRest3.png,,,,,,,,,,,,,,,,,,,,,,,,,0,2,2,2,0,58,58,0,,,,1234.280723,None,1233.097613,1234.297654,s,1,热切,k,1,0.6066514,0.459665,gsx,f,19,2024_Apr_17_1708,mian,2021.2.3,60.02022682
,,,,,,1,0,pic/flanker6.png,pic/flanker4.png,s,l,pic/AffRest3.png,,,,,,,,,,,,,,,,,,,,,,,,,0,2,2,2,0,59,59,13,,,,1237.26432,None,1236.080999,1237.280867,s,1,沮丧,l,1,0.752295,0.7750954,gsx,f,19,2024_Apr_17_1708,mian,2021.2.3,60.02022682
,,,,,,0,0,pic/flanker5.png,pic/flanker1.png,s,l,pic/AffRest3.png,,,,,,,,,,,,,,,,,,,,,,,,,0,2,2,2,0,60,60,35,,,,1240.797938,None,1239.614297,1240.814454,s,1,自卑,l,1,0.642284,0.6651217,gsx,f,19,2024_Apr_17_1708,mian,2021.2.3,60.02022682
,,,,,,0,1,pic/flanker5.png,pic/flanker1.png,s,k,pic/AffRest3.png,,,,,,,,,,,,,,,,,,,,,,,,,0,2,2,2,0,61,61,16,,,,1244.064293,None,1242.880887,1244.080801,s,1,富丽,k,1,0.5250739,0.4360003,gsx,f,19,2024_Apr_17_1708,mian,2021.2.3,60.02022682
,,,,,,1,1,pic/flanker5.png,pic/flanker3.png,a,k,pic/AffRest3.png,,,,,,,,,,,,,,,,,,,,,,,,,0,2,2,2,0,62,62,52,,,,1246.964509,None,1245.780818,1246.981219,a,1,珍藏,k,1,0.5509912,0.4860291,gsx,f,19,2024_Apr_17_1708,mian,2021.2.3,60.02022682
,,,,,,1,0,pic/flanker6.png,pic/flanker4.png,s,l,pic/AffRest3.png,,,,,,,,,,,,,,,,,,,,,,,,,0,2,2,2,0,63,63,61,,,,1249.9641,None,1248.780939,1249.980918,s,1,撒谎,l,1,0.5453599,0.499112,gsx,f,19,2024_Apr_17_1708,mian,2021.2.3,60.02022682
,,,,,,0,1,pic/flanker6.png,pic/flanker2.png,a,k,pic/AffRest3.png,,,,,,,,,,,,,,,,,,,,,,,,,0,2,2,2,0,64,64,58,,,,1252.980956,None,1251.79759,1252.997516,a,1,吉祥,k,1,0.6437511,0.4085344,gsx,f,19,2024_Apr_17_1708,mian,2021.2.3,60.02022682
,,,,,,0,1,pic/flanker5.png,pic/flanker1.png,s,k,pic/AffRest3.png,,,,,,,,,,,,,,,,,,,,,,,,,0,2,2,2,0,65,65,64,,,,1256.064275,None,1254.880875,1256.080937,s,1,公平,k,1,0.9242236,0.4562569,gsx,f,19,2024_Apr_17_1708,mian,2021.2.3,60.02022682
,,,,,,0,0,pic/flanker6.png,pic/flanker2.png,a,l,pic/AffRest3.png,,,,,,,,,,,,,,,,,,,,,,,,,0,2,2,2,0,66,66,1,,,,1259.397601,None,1258.214324,1259.414183,a,1,浪费,l,1,0.7335171,0.4012424,gsx,f,19,2024_Apr_17_1708,mian,2021.2.3,60.02022682
,,,,,,0,1,pic/flanker6.png,pic/flanker2.png,a,k,pic/AffRest3.png,,,,,,,,,,,,,,,,,,,,,,,,,0,2,2,2,0,67,67,26,,,,1262.430956,None,1261.247662,1262.447683,a,1,充裕,k,1,0.663428,0.4671399,gsx,f,19,2024_Apr_17_1708,mian,2021.2.3,60.02022682
,,,,,,0,1,pic/flanker6.png,pic/flanker2.png,a,k,pic/AffRest3.png,,,,,,,,,,,,,,,,,,,,,,,,,0,2,2,2,0,68,68,66,,,,1265.597933,None,1264.414149,1265.61456,a,1,精致,k,1,0.499446,0.5478036,gsx,f,19,2024_Apr_17_1708,mian,2021.2.3,60.02022682
,,,,,,0,0,pic/flanker5.png,pic/flanker1.png,s,l,pic/AffRest3.png,,,,,,,,,,,,,,,,,,,,,,,,,0,2,2,2,0,69,69,59,,,,1268.530792,None,1267.347595,1268.547641,s,1,孤单,l,1,0.5481507,0.5095593,gsx,f,19,2024_Apr_17_1708,mian,2021.2.3,60.02022682
,,,,,,1,0,pic/flanker5.png,pic/flanker3.png,a,l,pic/AffRest3.png,,,,,,,,,,,,,,,,,,,,,,,,,0,2,2,2,0,70,70,71,,,,1271.630921,None,1270.447613,1271.647485,a,1,忧虑,k,0,0.6546938,0.519978,gsx,f,19,2024_Apr_17_1708,mian,2021.2.3,60.02022682
,,,,,,1,1,pic/flanker5.png,pic/flanker3.png,a,k,pic/AffRest3.png,,,,,,,,,,,,,,,,,,,,,,,,,0,2,2,2,0,71,71,4,,,,1274.664304,None,1273.480735,1274.680719,a,1,清秀,k,1,0.9331384,0.5540446,gsx,f,19,2024_Apr_17_1708,mian,2021.2.3,60.02022682
,,,,,,1,0,pic/flanker5.png,pic/flanker3.png,a,l,pic/AffRest3.png,,,,,,,,,,,,,,,,,,,,,,,,,0,2,2,2,0,72,72,79,,,,1277.997602,None,1276.814195,1278.014258,a,1,失意,l,1,0.4999426,0.5688542,gsx,f,19,2024_Apr_17_1708,mian,2021.2.3,60.02022682
,,,,,,0,0,pic/flanker6.png,pic/flanker2.png,a,l,pic/AffRest3.png,,,,,,,,,,,,,,,,,,,,,,,,,0,2,2,2,0,73,73,49,,,,1281.047779,None,1279.864153,1281.064464,a,1,穷苦,l,1,0.8177625,0.5890449,gsx,f,19,2024_Apr_17_1708,mian,2021.2.3,60.02022682
,,,,,,1,1,pic/flanker5.png,pic/flanker3.png,a,k,pic/AffRest3.png,,,,,,,,,,,,,,,,,,,,,,,,,0,2,2,2,0,74,74,68,,,,1284.464128,None,1283.280782,1284.480837,a,1,如愿,k,1,0.6339773,0.512379,gsx,f,19,2024_Apr_17_1708,mian,2021.2.3,60.02022682
,,,,,,0,0,pic/flanker6.png,pic/flanker2.png,a,l,pic/AffRest3.png,,,,,,,,,,,,,,,,,,,,,,,,,0,2,2,2,0,75,75,73,,,,1287.664474,None,1286.480929,1287.681108,a,1,鲁莽,l,1,0.5956363,0.4457039,gsx,f,19,2024_Apr_17_1708,mian,2021.2.3,60.02022682
,,,,,,1,1,pic/flanker5.png,pic/flanker3.png,a,k,pic/AffRest3.png,,,,,,,,,,,,,,,,,,,,,,,,,0,2,2,2,0,76,76,60,,,,1290.66364,None,1289.480409,1290.680464,a,1,典雅,k,1,0.7151533,0.4869524,gsx,f,19,2024_Apr_17_1708,mian,2021.2.3,60.02022682
,,,,,,1,1,pic/flanker6.png,pic/flanker4.png,s,k,pic/AffRest3.png,,,,,,,,,,,,,,,,,,,,,,,,,0,2,2,2,0,77,77,38,,,,1293.914229,None,1292.730732,1293.930841,s,1,旺盛,k,1,0.6157879,0.5422912,gsx,f,19,2024_Apr_17_1708,mian,2021.2.3,60.02022682
,,,,,,0,0,pic/flanker5.png,pic/flanker1.png,s,l,pic/AffRest3.png,,,,,,,,,,,,,,,,,,,,,,,,,0,2,2,2,0,78,78,75,,,,1296.964026,None,1295.78079,1296.980713,s,1,禁止,l,1,0.6251595,0.5121181,gsx,f,19,2024_Apr_17_1708,mian,2021.2.3,60.02022682
,,,,,,1,1,pic/flanker6.png,pic/flanker4.png,s,k,pic/AffRest3.png,,,,,,,,,,,,,,,,,,,,,,,,,0,2,2,2,0,79,79,54,,,,1300.147416,None,1298.964003,1300.164056,s,1,享受,k,1,0.5546576,0.8154548,gsx,f,19,2024_Apr_17_1708,mian,2021.2.3,60.02022682
,,,,,,,,,,,,pic/AffRest3.png,,,,,,,,,,,,,,,,,,,,,,,,,0,2,2,2,,,,,,,,,,,,,,,,,,,gsx,f,19,2024_Apr_17_1708,mian,2021.2.3,60.02022682
,,,,,,1,1,pic/flanker5.png,pic/flanker3.png,a,k,pic/EndExp.PNG,,,,,,,,,,,,,,,,,,,,,,,,,0,3,3,3,0,0,0,68,,,,1321.397431,None,1320.199559,1321.413512,a,1,卓越,k,1,0.5423974,0.5651347,gsx,f,19,2024_Apr_17_1708,mian,2021.2.3,60.02022682
,,,,,,0,0,pic/flanker5.png,pic/flanker1.png,s,l,pic/EndExp.PNG,,,,,,,,,,,,,,,,,,,,,,,,,0,3,3,3,0,1,1,75,,,,1324.59725,None,1323.413478,1324.614043,s,1,排斥,l,1,0.5783346,0.9151795,gsx,f,19,2024_Apr_17_1708,mian,2021.2.3,60.02022682
,,,,,,1,0,pic/flanker5.png,pic/flanker3.png,a,l,pic/EndExp.PNG,,,,,,,,,,,,,,,,,,,,,,,,,0,3,3,3,0,2,2,7,,,,1328.047026,None,1326.863416,1328.063621,a,1,慌忙,l,1,0.873197,0.4918118,gsx,f,19,2024_Apr_17_1708,mian,2021.2.3,60.02022682
,,,,,,0,1,pic/flanker6.png,pic/flanker2.png,a,k,pic/EndExp.PNG,,,,,,,,,,,,,,,,,,,,,,,,,0,3,3,3,0,3,3,2,,,,1331.464134,None,1330.280722,1331.480718,a,1,廉洁,k,1,0.5992466,0.4724437,gsx,f,19,2024_Apr_17_1708,mian,2021.2.3,60.02022682
,,,,,,1,1,pic/flanker5.png,pic/flanker3.png,a,k,pic/EndExp.PNG,,,,,,,,,,,,,,,,,,,,,,,,,0,3,3,3,0,4,4,52,,,,1334.547395,None,1333.364012,1334.564122,a,1,鲜艳,k,1,0.4938262,0.5056236,gsx,f,19,2024_Apr_17_1708,mian,2021.2.3,60.02022682
,,,,,,1,1,pic/flanker5.png,pic/flanker3.png,a,k,pic/EndExp.PNG,,,,,,,,,,,,,,,,,,,,,,,,,0,3,3,3,0,5,5,20,,,,1337.597412,None,1336.414071,1337.614152,a,1,奉献,k,1,0.482996,0.6961408,gsx,f,19,2024_Apr_17_1708,mian,2021.2.3,60.02022682
,,,,,,0,0,pic/flanker6.png,pic/flanker2.png,a,l,pic/EndExp.PNG,,,,,,,,,,,,,,,,,,,,,,,,,0,3,3,3,0,6,6,49,,,,1340.797318,None,1339.613385,1340.813926,a,1,沮丧,l,1,0.9893312,0.4117475,gsx,f,19,2024_Apr_17_1708,mian,2021.2.3,60.02022682
,,,,,,1,0,pic/flanker5.png,pic/flanker3.png,a,l,pic/EndExp.PNG,,,,,,,,,,,,,,,,,,,,,,,,,0,3,3,3,0,7,7,15,,,,1344.247468,None,1343.064001,1344.263519,a,1,厌恶,l,1,0.5091341,0.6607238,gsx,f,19,2024_Apr_17_1708,mian,2021.2.3,60.02022682
,,,,,,0,0,pic/flanker6.png,pic/flanker2.png,a,l,pic/EndExp.PNG,,,,,,,,,,,,,,,,,,,,,,,,,0,3,3,3,0,8,8,73,,,,1347.313856,None,1346.130071,1347.330559,a,1,堵塞,l,1,0.4438733,0.3616557,gsx,f,19,2024_Apr_17_1708,mian,2021.2.3,60.02022682
,,,,,,0,0,pic/flanker5.png,pic/flanker1.png,s,l,pic/EndExp.PNG,,,,,,,,,,,,,,,,,,,,,,,,,0,3,3,3,0,9,9,3,,,,1349.997509,None,1348.814001,1350.014005,s,1,悲观,l,1,0.691385,0.6442348,gsx,f,19,2024_Apr_17_1708,mian,2021.2.3,60.02022682
,,,,,,0,1,pic/flanker5.png,pic/flanker1.png,s,k,pic/EndExp.PNG,,,,,,,,,,,,,,,,,,,,,,,,,0,3,3,3,0,10,10,32,,,,1353.263391,None,1352.080732,1353.280759,s,1,诚恳,k,1,0.7236126,0.6127017,gsx,f,19,2024_Apr_17_1708,mian,2021.2.3,60.02022682
,,,,,,1,0,pic/flanker6.png,pic/flanker4.png,s,l,pic/EndExp.PNG,,,,,,,,,,,,,,,,,,,,,,,,,0,3,3,3,0,11,11,5,,,,1356.430704,None,1355.247355,1356.447449,s,1,嘲笑,l,1,0.5206155,0.5570914,gsx,f,19,2024_Apr_17_1708,mian,2021.2.3,60.02022682
,,,,,,1,1,pic/flanker5.png,pic/flanker3.png,a,k,pic/EndExp.PNG,,,,,,,,,,,,,,,,,,,,,,,,,0,3,3,3,0,12,12,36,,,,1359.530672,None,1358.347556,1359.547352,a,1,生动,k,1,0.7252295,0.7187673,gsx,f,19,2024_Apr_17_1708,mian,2021.2.3,60.02022682
,,,,,,1,1,pic/flanker5.png,pic/flanker3.png,a,k,pic/EndExp.PNG,,,,,,,,,,,,,,,,,,,,,,,,,0,3,3,3,0,13,13,12,,,,1363.013351,None,1361.83066,1363.029975,a,1,精致,k,1,0.5812838,0.4663752,gsx,f,19,2024_Apr_17_1708,mian,2021.2.3,60.02022682
,,,,,,0,0,pic/flanker6.png,pic/flanker2.png,a,l,pic/EndExp.PNG,,,,,,,,,,,,,,,,,,,,,,,,,0,3,3,3,0,14,14,41,,,,1365.997455,None,1364.813773,1366.013277,a,1,假冒,l,1,0.6631031,0.5039864,gsx,f,19,2024_Apr_17_1708,mian,2021.2.3,60.02022682
,,,,,,0,1,pic/flanker5.png,pic/flanker1.png,s,k,pic/EndExp.PNG,,,,,,,,,,,,,,,,,,,,,,,,,0,3,3,3,0,15,15,48,,,,1368.996945,None,1367.813371,1369.013367,s,1,羡慕,k,1,0.4802222,0.5198375,gsx,f,19,2024_Apr_17_1708,mian,2021.2.3,60.02022682
,,,,,,1,0,pic/flanker5.png,pic/flanker3.png,a,l,pic/EndExp.PNG,,,,,,,,,,,,,,,,,,,,,,,,,0,3,3,3,0,16,16,31,,,,1372.04734,None,1370.863973,1372.063291,a,1,杂乱,l,1,0.6223038,0.580804,gsx,f,19,2024_Apr_17_1708,mian,2021.2.3,60.02022682
,,,,,,1,0,pic/flanker5.png,pic/flanker3.png,a,l,pic/EndExp.PNG,,,,,,,,,,,,,,,,,,,,,,,,,0,3,3,3,0,17,17,55,,,,1375.147277,None,1373.96411,1375.163899,a,1,撒谎,l,1,0.5084603,0.5310344,gsx,f,19,2024_Apr_17_1708,mian,2021.2.3,60.02022682
,,,,,,1,1,pic/flanker6.png,pic/flanker4.png,s,k,pic/EndExp.PNG,,,,,,,,,,,,,,,,,,,,,,,,,0,3,3,3,0,18,18,38,,,,1378.080565,None,1376.896892,1378.097366,s,1,有利,k,1,0.5655648,0.6880191,gsx,f,19,2024_Apr_17_1708,mian,2021.2.3,60.02022682
,,,,,,1,1,pic/flanker6.png,pic/flanker4.png,s,k,pic/EndExp.PNG,,,,,,,,,,,,,,,,,,,,,,,,,0,3,3,3,0,19,19,62,,,,1381.313312,None,1380.130676,1381.329976,s,1,旺盛,k,1,0.482332,0.5273929,gsx,f,19,2024_Apr_17_1708,mian,2021.2.3,60.02022682
,,,,,,1,0,pic/flanker6.png,pic/flanker4.png,s,l,pic/EndExp.PNG,,,,,,,,,,,,,,,,,,,,,,,,,0,3,3,3,0,20,20,21,,,,1384.16392,None,1382.980422,1384.180745,s,1,禁止,l,1,0.5339488,0.4865288,gsx,f,19,2024_Apr_17_1708,mian,2021.2.3,60.02022682
,,,,,,1,0,pic/flanker5.png,pic/flanker3.png,a,l,pic/EndExp.PNG,,,,,,,,,,,,,,,,,,,,,,,,,0,3,3,3,0,21,21,23,,,,1387.030483,None,1385.847366,1387.047258,a,1,丢失,l,1,0.6901903,0.5575167,gsx,f,19,2024_Apr_17_1708,mian,2021.2.3,60.02022682
,,,,,,0,1,pic/flanker5.png,pic/flanker1.png,s,k,pic/EndExp.PNG,,,,,,,,,,,,,,,,,,,,,,,,,0,3,3,3,0,22,22,40,,,,1390.263977,None,1389.080691,1390.280748,s,1,赞成,k,1,0.5624435,0.5167431,gsx,f,19,2024_Apr_17_1708,mian,2021.2.3,60.02022682
,,,,,,1,1,pic/flanker5.png,pic/flanker3.png,a,k,pic/EndExp.PNG,,,,,,,,,,,,,,,,,,,,,,,,,0,3,3,3,0,23,23,28,,,,1393.247041,None,1392.063974,1393.263395,a,1,清秀,k,1,0.5745803,0.5043931,gsx,f,19,2024_Apr_17_1708,mian,2021.2.3,60.02022682
,,,,,,0,0,pic/flanker5.png,pic/flanker1.png,s,l,pic/EndExp.PNG,,,,,,,,,,,,,,,,,,,,,,,,,0,3,3,3,0,24,24,51,,,,1396.280786,None,1395.097262,1396.297408,s,1,心慌,l,1,0.5440621,0.4914889,gsx,f,19,2024_Apr_17_1708,mian,2021.2.3,60.02022682
,,,,,,0,0,pic/flanker6.png,pic/flanker2.png,a,l,pic/EndExp.PNG,,,,,,,,,,,,,,,,,,,,,,,,,0,3,3,3,0,25,25,1,,,,1399.29727,None,1398.114172,1399.313919,a,1,消沉,l,1,0.5071942,0.4551279,gsx,f,19,2024_Apr_17_1708,mian,2021.2.3,60.02022682
,,,,,,1,0,pic/flanker6.png,pic/flanker4.png,s,l,pic/EndExp.PNG,,,,,,,,,,,,,,,,,,,,,,,,,0,3,3,3,0,26,26,45,,,,1402.097255,None,1400.914066,1402.113904,s,1,争吵,l,1,1.0347323,0.5372577,gsx,f,19,2024_Apr_17_1708,mian,2021.2.3,60.02022682
,,,,,,0,1,pic/flanker5.png,pic/flanker1.png,s,k,pic/EndExp.PNG,,,,,,,,,,,,,,,,,,,,,,,,,0,3,3,3,0,27,27,64,,,,1405.614015,None,1404.430537,1405.630675,s,1,正直,k,1,0.5940563,0.6279926,gsx,f,19,2024_Apr_17_1708,mian,2021.2.3,60.02022682
,,,,,,1,1,pic/flanker6.png,pic/flanker4.png,s,k,pic/EndExp.PNG,,,,,,,,,,,,,,,,,,,,,,,,,0,3,3,3,0,28,28,46,,,,1408.880761,None,1407.69732,1408.897313,s,1,享受,k,1,0.5349583,0.518836,gsx,f,19,2024_Apr_17_1708,mian,2021.2.3,60.02022682
,,,,,,1,1,pic/flanker5.png,pic/flanker3.png,a,k,pic/EndExp.PNG,,,,,,,,,,,,,,,,,,,,,,,,,0,3,3,3,0,29,29,4,,,,1411.830573,None,1410.647286,1411.847123,a,1,前进,k,1,0.5679061,0.5000416,gsx,f,19,2024_Apr_17_1708,mian,2021.2.3,60.02022682
,,,,,,1,0,pic/flanker6.png,pic/flanker4.png,s,l,pic/EndExp.PNG,,,,,,,,,,,,,,,,,,,,,,,,,0,3,3,3,0,30,30,13,,,,1414.747274,None,1413.563962,1414.764071,s,1,孤单,l,1,0.5267131,0.6873688,gsx,f,19,2024_Apr_17_1708,mian,2021.2.3,60.02022682
,,,,,,0,1,pic/flanker6.png,pic/flanker2.png,a,k,pic/EndExp.PNG,,,,,,,,,,,,,,,,,,,,,,,,,0,3,3,3,0,31,31,58,,,,1417.89725,None,1416.713919,1417.913873,a,1,公平,k,1,0.5638431,0.3955146,gsx,f,19,2024_Apr_17_1708,mian,2021.2.3,60.02022682
,,,,,,1,1,pic/flanker6.png,pic/flanker4.png,s,k,pic/EndExp.PNG,,,,,,,,,,,,,,,,,,,,,,,,,0,3,3,3,0,32,32,54,,,,1420.697301,None,1419.513858,1420.714018,s,1,爽朗,k,1,1.1645817,0.5395023,gsx,f,19,2024_Apr_17_1708,mian,2021.2.3,60.02022682
,,,,,,0,0,pic/flanker6.png,pic/flanker2.png,a,l,pic/EndExp.PNG,,,,,,,,,,,,,,,,,,,,,,,,,0,3,3,3,0,33,33,65,,,,1424.447355,None,1423.264022,1424.463974,a,1,损害,l,1,0.4790368,0.3776797,gsx,f,19,2024_Apr_17_1708,mian,2021.2.3,60.02022682
,,,,,,0,1,pic/flanker5.png,pic/flanker1.png,s,k,pic/EndExp.PNG,,,,,,,,,,,,,,,,,,,,,,,,,0,3,3,3,0,34,34,72,,,,1427.180555,None,1425.997188,1427.197272,s,1,舒畅,k,1,0.7093211,0.5364292,gsx,f,19,2024_Apr_17_1708,mian,2021.2.3,60.02022682
,,,,,,1,0,pic/flanker6.png,pic/flanker4.png,s,l,pic/EndExp.PNG,,,,,,,,,,,,,,,,,,,,,,,,,0,3,3,3,0,35,35,53,,,,1430.363856,None,1429.18063,1430.380682,s,1,焦躁,l,1,0.5268673,0.4659251,gsx,f,19,2024_Apr_17_1708,mian,2021.2.3,60.02022682
,,,,,,1,1,pic/flanker6.png,pic/flanker4.png,s,k,pic/EndExp.PNG,,,,,,,,,,,,,,,,,,,,,,,,,0,3,3,3,0,36,36,70,,,,1433.214047,None,1432.030554,1433.230691,s,1,雄厚,k,1,0.5065924,0.429158,gsx,f,19,2024_Apr_17_1708,mian,2021.2.3,60.02022682
,,,,,,0,1,pic/flanker5.png,pic/flanker1.png,s,k,pic/EndExp.PNG,,,,,,,,,,,,,,,,,,,,,,,,,0,3,3,3,0,37,37,24,,,,1436.130595,None,1434.947207,1436.147127,s,1,秀丽,k,1,0.4701118,0.4435631,gsx,f,19,2024_Apr_17_1708,mian,2021.2.3,60.02022682
,,,,,,0,0,pic/flanker5.png,pic/flanker1.png,s,l,pic/EndExp.PNG,,,,,,,,,,,,,,,,,,,,,,,,,0,3,3,3,0,38,38,43,,,,1439.030152,None,1437.846771,1439.046984,s,1,鲁莽,l,1,0.5271483,0.3694334,gsx,f,19,2024_Apr_17_1708,mian,2021.2.3,60.02022682
,,,,,,0,0,pic/flanker5.png,pic/flanker1.png,s,l,pic/EndExp.PNG,,,,,,,,,,,,,,,,,,,,,,,,,0,3,3,3,0,39,39,27,,,,1441.86393,None,1440.680655,1441.88069,s,1,逃避,l,1,0.5285422,0.5552349,gsx,f,19,2024_Apr_17_1708,mian,2021.2.3,60.02022682
,,,,,,0,0,pic/flanker5.png,pic/flanker1.png,s,l,pic/EndExp.PNG,,,,,,,,,,,,,,,,,,,,,,,,,0,3,3,3,0,40,40,11,,,,1444.830627,None,1443.647247,1444.847288,s,1,冷笑,l,1,0.4866041,0.4660324,gsx,f,19,2024_Apr_17_1708,mian,2021.2.3,60.02022682
,,,,,,1,1,pic/flanker5.png,pic/flanker3.png,a,k,pic/EndExp.PNG,,,,,,,,,,,,,,,,,,,,,,,,,0,3,3,3,0,41,41,76,,,,1447.630554,None,1446.447312,1447.647308,a,1,充裕,l,0,0.4826351,0.4912728,gsx,f,19,2024_Apr_17_1708,mian,2021.2.3,60.02022682
,,,,,,0,1,pic/flanker6.png,pic/flanker2.png,a,k,pic/EndExp.PNG,,,,,,,,,,,,,,,,,,,,,,,,,0,3,3,3,0,42,42,42,,,,1450.580485,None,1449.397245,1450.597166,a,1,豪放,k,1,0.4892653,0.42643,gsx,f,19,2024_Apr_17_1708,mian,2021.2.3,60.02022682
,,,,,,0,1,pic/flanker5.png,pic/flanker1.png,s,k,pic/EndExp.PNG,,,,,,,,,,,,,,,,,,,,,,,,,0,3,3,3,0,43,43,16,,,,1453.39714,None,1452.213889,1453.413955,s,1,如愿,k,1,0.5347758,0.3870378,gsx,f,19,2024_Apr_17_1708,mian,2021.2.3,60.02022682
,,,,,,1,0,pic/flanker6.png,pic/flanker4.png,s,l,pic/EndExp.PNG,,,,,,,,,,,,,,,,,,,,,,,,,0,3,3,3,0,44,44,37,,,,1456.263976,None,1455.080632,1456.280436,s,1,忧虑,l,1,0.6493956,0.6328572,gsx,f,19,2024_Apr_17_1708,mian,2021.2.3,60.02022682
,,,,,,0,0,pic/flanker5.png,pic/flanker1.png,s,l,pic/EndExp.PNG,,,,,,,,,,,,,,,,,,,,,,,,,0,3,3,3,0,45,45,35,,,,1459.547119,None,1458.363807,1459.563822,s,1,缺乏,l,1,0.9101261,0.4491958,gsx,f,19,2024_Apr_17_1708,mian,2021.2.3,60.02022682
,,,,,,1,1,pic/flanker6.png,pic/flanker4.png,s,k,pic/EndExp.PNG,,,,,,,,,,,,,,,,,,,,,,,,,0,3,3,3,0,46,46,78,,,,1462.780439,None,1461.597265,1462.797187,s,1,热切,k,1,0.4867998,0.8255856,gsx,f,19,2024_Apr_17_1708,mian,2021.2.3,60.02022682
,,,,,,0,0,pic/flanker5.png,pic/flanker1.png,s,l,pic/EndExp.PNG,,,,,,,,,,,,,,,,,,,,,,,,,0,3,3,3,0,47,47,67,,,,1466.063788,None,1464.880394,1466.080587,s,1,穷苦,l,1,0.557545,0.4396762,gsx,f,19,2024_Apr_17_1708,mian,2021.2.3,60.02022682
,,,,,,0,0,pic/flanker5.png,pic/flanker1.png,s,l,pic/EndExp.PNG,,,,,,,,,,,,,,,,,,,,,,,,,0,3,3,3,0,48,48,19,,,,1468.913966,None,1467.730753,1468.930583,s,1,失意,l,1,0.5793592,0.4368393,gsx,f,19,2024_Apr_17_1708,mian,2021.2.3,60.02022682
,,,,,,1,0,pic/flanker6.png,pic/flanker4.png,s,l,pic/EndExp.PNG,,,,,,,,,,,,,,,,,,,,,,,,,0,3,3,3,0,49,49,29,,,,1471.847138,None,1470.663772,1471.863897,s,1,别扭,l,1,0.5016282,0.6195382,gsx,f,19,2024_Apr_17_1708,mian,2021.2.3,60.02022682
,,,,,,0,1,pic/flanker6.png,pic/flanker2.png,a,k,pic/EndExp.PNG,,,,,,,,,,,,,,,,,,,,,,,,,0,3,3,3,0,50,50,26,,,,1474.863891,None,1473.680236,1474.880531,a,1,敬佩,k,1,0.6026969,0.6422085,gsx,f,19,2024_Apr_17_1708,mian,2021.2.3,60.02022682
,,,,,,1,0,pic/flanker5.png,pic/flanker3.png,a,l,pic/EndExp.PNG,,,,,,,,,,,,,,,,,,,,,,,,,0,3,3,3,0,51,51,39,,,,1477.997268,None,1476.813925,1478.013887,a,1,闷热,l,1,0.5515982,0.6329711,gsx,f,19,2024_Apr_17_1708,mian,2021.2.3,60.02022682
,,,,,,0,1,pic/flanker6.png,pic/flanker2.png,a,k,pic/EndExp.PNG,,,,,,,,,,,,,,,,,,,,,,,,,0,3,3,3,0,52,52,74,,,,1481.213849,None,1480.030544,1481.230562,a,1,富足,k,1,0.5658209,0.4563034,gsx,f,19,2024_Apr_17_1708,mian,2021.2.3,60.02022682
,,,,,,1,0,pic/flanker5.png,pic/flanker3.png,a,l,pic/EndExp.PNG,,,,,,,,,,,,,,,,,,,,,,,,,0,3,3,3,0,53,53,47,,,,1484.213886,None,1483.030576,1484.230531,a,1,罚款,l,1,0.5934791,0.5106119,gsx,f,19,2024_Apr_17_1708,mian,2021.2.3,60.02022682
,,,,,,0,1,pic/flanker5.png,pic/flanker1.png,s,k,pic/EndExp.PNG,,,,,,,,,,,,,,,,,,,,,,,,,0,3,3,3,0,54,54,8,,,,1487.346693,None,1486.163918,1487.363368,s,1,畅销,k,1,0.7026566,0.724445,gsx,f,19,2024_Apr_17_1708,mian,2021.2.3,60.02022682
,,,,,,1,0,pic/flanker6.png,pic/flanker4.png,s,l,pic/EndExp.PNG,,,,,,,,,,,,,,,,,,,,,,,,,0,3,3,3,0,55,55,61,,,,1490.813473,None,1489.629862,1490.829798,s,1,黑暗,l,1,0.5066918,0.5800863,gsx,f,19,2024_Apr_17_1708,mian,2021.2.3,60.02022682
,,,,,,0,0,pic/flanker6.png,pic/flanker2.png,a,l,pic/EndExp.PNG,,,,,,,,,,,,,,,,,,,,,,,,,0,3,3,3,0,56,56,17,,,,1493.929906,None,1492.747146,1493.946672,a,1,郁闷,l,1,0.5080318,0.3282121,gsx,f,19,2024_Apr_17_1708,mian,2021.2.3,60.02022682
,,,,,,0,0,pic/flanker5.png,pic/flanker1.png,s,l,pic/EndExp.PNG,,,,,,,,,,,,,,,,,,,,,,,,,0,3,3,3,0,57,57,59,,,,1496.747207,None,1495.563801,1496.763889,s,1,胡涂,l,1,0.5005183,0.4729415,gsx,f,19,2024_Apr_17_1708,mian,2021.2.3,60.02022682
,,,,,,0,0,pic/flanker6.png,pic/flanker2.png,a,l,pic/EndExp.PNG,,,,,,,,,,,,,,,,,,,,,,,,,0,3,3,3,0,58,58,33,,,,1499.647149,None,1498.463947,1499.663815,a,1,处罚,l,1,0.4749459,0.356948,gsx,f,19,2024_Apr_17_1708,mian,2021.2.3,60.02022682
,,,,,,1,1,pic/flanker5.png,pic/flanker3.png,a,k,pic/EndExp.PNG,,,,,,,,,,,,,,,,,,,,,,,,,0,3,3,3,0,59,59,44,,,,1502.51316,None,1501.329851,1502.529922,a,1,优雅,k,1,0.6617264,0.4828273,gsx,f,19,2024_Apr_17_1708,mian,2021.2.3,60.02022682
