target,反应类型,条件,truetarget,CorAns,Position,congruency,AffValue,flankerPic,targetPic,corAnsF,corAnsA,RestPic,returnPractice.thisRepN,returnPractice.thisTrialN,returnPractice.thisN,returnPractice.thisIndex,pracNum.thisRepN,pracNum.thisTrialN,pracNum.thisN,pracNum.thisIndex,NumBlock1.thisRepN,NumBlock1.thisTrialN,NumBlock1.thisN,NumBlock1.thisIndex,NumBlock2.thisRepN,NumBlock2.thisTrialN,NumBlock2.thisN,NumBlock2.thisIndex,returnPrac.thisRepN,returnPrac.thisTrialN,returnPrac.thisN,returnPrac.thisIndex,PracAff.thisRepN,PracAff.thisTrialN,PracAff.thisN,PracAff.thisIndex,AffBlocks.thisRepN,AffBlocks.thisTrialN,AffBlocks.thisN,AffBlocks.thisIndex,AffBlock1.thisRepN,AffBlock1.thisTrialN,AffBlock1.thisN,AffBlock1.thisIndex,respNum2word.keys,respNum2word.corr,respNum2word.rt,text.started,text.stopped,blank.started,blank.stopped,respFlanker.keys,respFlanker.corr,thisWord,respAffWord.keys,respAffWord.corr,respAffWord.rt,respFlanker.rt,姓名,性别,年龄（周岁）,date,expName,psychopyVersion,frameRate,
2A,1,1,A,a,"[0.2, 0.2]",,,,,,,,0,0,0,0,0,0,0,0,,,,,,,,,,,,,,,,,,,,,,,,,a,1,1.924474200000077,,,,,,,,,,,,gsy,f,19,2024_Apr_14_1015,mian,2021.2.3,60.00830514941717,
A9,1,2,A,a,"[-0.2, 0.2]",,,,,,,,0,0,0,0,0,1,1,1,,,,,,,,,,,,,,,,,,,,,,,,,a,1,0.9639698999999382,,,,,,,,,,,,gsy,f,19,2024_Apr_14_1015,mian,2021.2.3,60.00830514941717,
7e,2,1,7.0,a,"[-0.2, -0.2]",,,,,,,,0,0,0,0,0,2,2,2,,,,,,,,,,,,,,,,,,,,,,,,,a,1,2.0784547000000657,,,,,,,,,,,,gsy,f,19,2024_Apr_14_1015,mian,2021.2.3,60.00830514941717,
9H,2,2,9.0,a,"[0.2, -0.2]",,,,,,,,0,0,0,0,0,3,3,3,,,,,,,,,,,,,,,,,,,,,,,,,a,1,1.3174380999998903,,,,,,,,,,,,gsy,f,19,2024_Apr_14_1015,mian,2021.2.3,60.00830514941717,
h4,1,1,h,l,"[0.2, 0.2]",,,,,,,,0,0,0,0,0,4,4,4,,,,,,,,,,,,,,,,,,,,,,,,,l,1,0.9701552999999876,,,,,,,,,,,,gsy,f,19,2024_Apr_14_1015,mian,2021.2.3,60.00830514941717,
4H,1,2,H,a,"[-0.2, 0.2]",,,,,,,,0,0,0,0,0,5,5,5,,,,,,,,,,,,,,,,,,,,,,,,,a,1,0.6979475999999067,,,,,,,,,,,,gsy,f,19,2024_Apr_14_1015,mian,2021.2.3,60.00830514941717,
F8,2,1,8.0,l,"[-0.2, -0.2]",,,,,,,,0,0,0,0,0,6,6,6,,,,,,,,,,,,,,,,,,,,,,,,,l,1,2.09812409999995,,,,,,,,,,,,gsy,f,19,2024_Apr_14_1015,mian,2021.2.3,60.00830514941717,
h7,2,2,7.0,a,"[0.2, -0.2]",,,,,,,,0,0,0,0,0,7,7,7,,,,,,,,,,,,,,,,,,,,,,,,,a,1,0.5995520999999826,,,,,,,,,,,,gsy,f,19,2024_Apr_14_1015,mian,2021.2.3,60.00830514941717,
5e,1,1,e,l,"[0.2, 0.2]",,,,,,,,0,0,0,0,0,8,8,8,,,,,,,,,,,,,,,,,,,,,,,,,l,1,1.4980967000001328,,,,,,,,,,,,gsy,f,19,2024_Apr_14_1015,mian,2021.2.3,60.00830514941717,
e8,1,2,e,l,"[-0.2, 0.2]",,,,,,,,0,0,0,0,0,9,9,9,,,,,,,,,,,,,,,,,,,,,,,,,l,1,2.7100277000001824,,,,,,,,,,,,gsy,f,19,2024_Apr_14_1015,mian,2021.2.3,60.00830514941717,
4E,2,1,4.0,l,"[-0.2, -0.2]",,,,,,,,0,0,0,0,0,10,10,10,,,,,,,,,,,,,,,,,,,,,,,,,l,1,2.130382000000054,,,,,,,,,,,,gsy,f,19,2024_Apr_14_1015,mian,2021.2.3,60.00830514941717,
5H,2,2,5.0,a,"[0.2, -0.2]",,,,,,,,0,0,0,0,0,11,11,11,,,,,,,,,,,,,,,,,,,,,,,,,a,1,3.7599119999999857,,,,,,,,,,,,gsy,f,19,2024_Apr_14_1015,mian,2021.2.3,60.00830514941717,
9E,1,1,E,a,"[0.2, 0.2]",,,,,,,,0,0,0,0,0,12,12,12,,,,,,,,,,,,,,,,,,,,,,,,,a,1,1.6215799000001425,,,,,,,,,,,,gsy,f,19,2024_Apr_14_1015,mian,2021.2.3,60.00830514941717,
h9,1,2,h,l,"[-0.2, 0.2]",,,,,,,,0,0,0,0,0,13,13,13,,,,,,,,,,,,,,,,,,,,,,,,,l,1,1.1767661999999746,,,,,,,,,,,,gsy,f,19,2024_Apr_14_1015,mian,2021.2.3,60.00830514941717,
2a,2,1,2.0,l,"[-0.2, -0.2]",,,,,,,,0,0,0,0,0,14,14,14,,,,,,,,,,,,,,,,,,,,,,,,,l,1,1.5794528999999784,,,,,,,,,,,,gsy,f,19,2024_Apr_14_1015,mian,2021.2.3,60.00830514941717,
e5,2,2,5.0,a,"[0.2, -0.2]",,,,,,,,0,0,0,0,0,15,15,15,,,,,,,,,,,,,,,,,,,,,,,,,a,1,0.9610688000000209,,,,,,,,,,,,gsy,f,19,2024_Apr_14_1015,mian,2021.2.3,60.00830514941717,
A5,1,1,A,a,"[0.2, 0.2]",,,,,,,,0,0,0,0,0,16,16,16,,,,,,,,,,,,,,,,,,,,,,,,,a,1,0.8642402000000402,,,,,,,,,,,,gsy,f,19,2024_Apr_14_1015,mian,2021.2.3,60.00830514941717,
a6,1,2,a,l,"[-0.2, 0.2]",,,,,,,,0,0,0,0,0,17,17,17,,,,,,,,,,,,,,,,,,,,,,,,,l,1,0.8854255999999623,,,,,,,,,,,,gsy,f,19,2024_Apr_14_1015,mian,2021.2.3,60.00830514941717,
2F,2,1,2.0,l,"[-0.2, -0.2]",,,,,,,,0,0,0,0,0,18,18,18,,,,,,,,,,,,,,,,,,,,,,,,,a,0,0.5985927000001539,,,,,,,,,,,,gsy,f,19,2024_Apr_14_1015,mian,2021.2.3,60.00830514941717,
e4,2,2,4.0,l,"[0.2, -0.2]",,,,,,,,0,0,0,0,0,19,19,19,,,,,,,,,,,,,,,,,,,,,,,,,l,1,0.95296089999988,,,,,,,,,,,,gsy,f,19,2024_Apr_14_1015,mian,2021.2.3,60.00830514941717,
,,,,,,,,,,,,,0,0,0,0,,,,,,,,,,,,,,,,,,,,,,,,,,,,,,,,,,,,,,,,,,,gsy,f,19,2024_Apr_14_1015,mian,2021.2.3,60.00830514941717,
7h,1,1,h,l,"[0.2, 0.2]",,,,,,,,,,,,,,,,0,0,0,0,,,,,,,,,,,,,,,,,,,,,l,1,0.7735271000001376,,,,,,,,,,,,gsy,f,19,2024_Apr_14_1015,mian,2021.2.3,60.00830514941717,
8F,1,2,F,a,"[-0.2, 0.2]",,,,,,,,,,,,,,,,0,1,1,1,,,,,,,,,,,,,,,,,,,,,a,1,0.9012006000000383,,,,,,,,,,,,gsy,f,19,2024_Apr_14_1015,mian,2021.2.3,60.00830514941717,
8h,2,1,8.0,l,"[-0.2, -0.2]",,,,,,,,,,,,,,,,0,2,2,2,,,,,,,,,,,,,,,,,,,,,l,1,0.9741837999999916,,,,,,,,,,,,gsy,f,19,2024_Apr_14_1015,mian,2021.2.3,60.00830514941717,
a2,2,2,2.0,l,"[0.2, -0.2]",,,,,,,,,,,,,,,,0,3,3,3,,,,,,,,,,,,,,,,,,,,,l,1,1.1738243000002058,,,,,,,,,,,,gsy,f,19,2024_Apr_14_1015,mian,2021.2.3,60.00830514941717,
8f,1,1,f,l,"[0.2, 0.2]",,,,,,,,,,,,,,,,0,4,4,4,,,,,,,,,,,,,,,,,,,,,l,1,0.8525239000000511,,,,,,,,,,,,gsy,f,19,2024_Apr_14_1015,mian,2021.2.3,60.00830514941717,
6a,1,2,a,l,"[-0.2, 0.2]",,,,,,,,,,,,,,,,0,5,5,5,,,,,,,,,,,,,,,,,,,,,l,1,1.0809707000000799,,,,,,,,,,,,gsy,f,19,2024_Apr_14_1015,mian,2021.2.3,60.00830514941717,
h6,2,1,6.0,l,"[-0.2, -0.2]",,,,,,,,,,,,,,,,0,6,6,6,,,,,,,,,,,,,,,,,,,,,l,1,1.3199901999998929,,,,,,,,,,,,gsy,f,19,2024_Apr_14_1015,mian,2021.2.3,60.00830514941717,
f9,2,2,9.0,a,"[0.2, -0.2]",,,,,,,,,,,,,,,,0,7,7,7,,,,,,,,,,,,,,,,,,,,,a,1,1.5443833999997878,,,,,,,,,,,,gsy,f,19,2024_Apr_14_1015,mian,2021.2.3,60.00830514941717,
E4,1,1,E,a,"[0.2, 0.2]",,,,,,,,,,,,,,,,0,8,8,8,,,,,,,,,,,,,,,,,,,,,a,1,1.0474647000000914,,,,,,,,,,,,gsy,f,19,2024_Apr_14_1015,mian,2021.2.3,60.00830514941717,
6e,1,2,e,l,"[-0.2, 0.2]",,,,,,,,,,,,,,,,0,9,9,9,,,,,,,,,,,,,,,,,,,,,l,1,1.4144693000000643,,,,,,,,,,,,gsy,f,19,2024_Apr_14_1015,mian,2021.2.3,60.00830514941717,
5G,2,1,5.0,a,"[-0.2, -0.2]",,,,,,,,,,,,,,,,0,10,10,10,,,,,,,,,,,,,,,,,,,,,a,1,2.020155500000101,,,,,,,,,,,,gsy,f,19,2024_Apr_14_1015,mian,2021.2.3,60.00830514941717,
h3,2,2,3.0,a,"[0.2, -0.2]",,,,,,,,,,,,,,,,0,11,11,11,,,,,,,,,,,,,,,,,,,,,a,1,0.7147515999999996,,,,,,,,,,,,gsy,f,19,2024_Apr_14_1015,mian,2021.2.3,60.00830514941717,
9e,1,1,e,l,"[0.2, 0.2]",,,,,,,,,,,,,,,,0,12,12,12,,,,,,,,,,,,,,,,,,,,,l,1,1.829104000000143,,,,,,,,,,,,gsy,f,19,2024_Apr_14_1015,mian,2021.2.3,60.00830514941717,
a8,1,2,a,l,"[-0.2, 0.2]",,,,,,,,,,,,,,,,0,13,13,13,,,,,,,,,,,,,,,,,,,,,l,1,1.2141043999999965,,,,,,,,,,,,gsy,f,19,2024_Apr_14_1015,mian,2021.2.3,60.00830514941717,
e8,2,1,8.0,l,"[-0.2, -0.2]",,,,,,,,,,,,,,,,0,14,14,14,,,,,,,,,,,,,,,,,,,,,l,1,2.4116348000000016,,,,,,,,,,,,gsy,f,19,2024_Apr_14_1015,mian,2021.2.3,60.00830514941717,
3f,2,2,3.0,a,"[0.2, -0.2]",,,,,,,,,,,,,,,,0,15,15,15,,,,,,,,,,,,,,,,,,,,,a,1,1.0548295999999482,,,,,,,,,,,,gsy,f,19,2024_Apr_14_1015,mian,2021.2.3,60.00830514941717,
7f,1,1,f,l,"[0.2, 0.2]",,,,,,,,,,,,,,,,0,16,16,16,,,,,,,,,,,,,,,,,,,,,l,1,1.706429400000161,,,,,,,,,,,,gsy,f,19,2024_Apr_14_1015,mian,2021.2.3,60.00830514941717,
a7,1,2,a,l,"[-0.2, 0.2]",,,,,,,,,,,,,,,,0,17,17,17,,,,,,,,,,,,,,,,,,,,,l,1,2.902170999999953,,,,,,,,,,,,gsy,f,19,2024_Apr_14_1015,mian,2021.2.3,60.00830514941717,
5A,2,1,5.0,a,"[-0.2, -0.2]",,,,,,,,,,,,,,,,0,18,18,18,,,,,,,,,,,,,,,,,,,,,a,1,1.4346823999999287,,,,,,,,,,,,gsy,f,19,2024_Apr_14_1015,mian,2021.2.3,60.00830514941717,
8g,2,2,8.0,l,"[0.2, -0.2]",,,,,,,,,,,,,,,,0,19,19,19,,,,,,,,,,,,,,,,,,,,,None,0,,,,,,,,,,,,,gsy,f,19,2024_Apr_14_1015,mian,2021.2.3,60.00830514941717,
9a,1,1,a,l,"[0.2, 0.2]",,,,,,,,,,,,,,,,0,20,20,20,,,,,,,,,,,,,,,,,,,,,l,1,1.0843849999998838,,,,,,,,,,,,gsy,f,19,2024_Apr_14_1015,mian,2021.2.3,60.00830514941717,
f7,1,2,f,l,"[-0.2, 0.2]",,,,,,,,,,,,,,,,0,21,21,21,,,,,,,,,,,,,,,,,,,,,l,1,2.952810799999952,,,,,,,,,,,,gsy,f,19,2024_Apr_14_1015,mian,2021.2.3,60.00830514941717,
g9,2,1,9.0,a,"[-0.2, -0.2]",,,,,,,,,,,,,,,,0,22,22,22,,,,,,,,,,,,,,,,,,,,,a,1,1.084032900000011,,,,,,,,,,,,gsy,f,19,2024_Apr_14_1015,mian,2021.2.3,60.00830514941717,
3h,2,2,3.0,a,"[0.2, -0.2]",,,,,,,,,,,,,,,,0,23,23,23,,,,,,,,,,,,,,,,,,,,,a,1,0.7339882999999645,,,,,,,,,,,,gsy,f,19,2024_Apr_14_1015,mian,2021.2.3,60.00830514941717,
E6,1,1,E,a,"[0.2, 0.2]",,,,,,,,,,,,,,,,0,24,24,24,,,,,,,,,,,,,,,,,,,,,a,1,0.9676303000001099,,,,,,,,,,,,gsy,f,19,2024_Apr_14_1015,mian,2021.2.3,60.00830514941717,
F6,1,2,F,a,"[-0.2, 0.2]",,,,,,,,,,,,,,,,0,25,25,25,,,,,,,,,,,,,,,,,,,,,a,1,0.5883724000000257,,,,,,,,,,,,gsy,f,19,2024_Apr_14_1015,mian,2021.2.3,60.00830514941717,
3A,2,1,3.0,a,"[-0.2, -0.2]",,,,,,,,,,,,,,,,0,26,26,26,,,,,,,,,,,,,,,,,,,,,a,1,0.7156780000000253,,,,,,,,,,,,gsy,f,19,2024_Apr_14_1015,mian,2021.2.3,60.00830514941717,
8H,2,2,8.0,l,"[0.2, -0.2]",,,,,,,,,,,,,,,,0,27,27,27,,,,,,,,,,,,,,,,,,,,,l,1,0.4460841000000073,,,,,,,,,,,,gsy,f,19,2024_Apr_14_1015,mian,2021.2.3,60.00830514941717,
5a,1,1,a,l,"[0.2, 0.2]",,,,,,,,,,,,,,,,0,28,28,28,,,,,,,,,,,,,,,,,,,,,l,1,2.598950400000149,,,,,,,,,,,,gsy,f,19,2024_Apr_14_1015,mian,2021.2.3,60.00830514941717,
2h,1,2,h,l,"[-0.2, 0.2]",,,,,,,,,,,,,,,,0,29,29,29,,,,,,,,,,,,,,,,,,,,,l,1,0.5408692000000883,,,,,,,,,,,,gsy,f,19,2024_Apr_14_1015,mian,2021.2.3,60.00830514941717,
e5,2,1,5.0,a,"[-0.2, -0.2]",,,,,,,,,,,,,,,,0,30,30,30,,,,,,,,,,,,,,,,,,,,,a,1,2.0123920000000908,,,,,,,,,,,,gsy,f,19,2024_Apr_14_1015,mian,2021.2.3,60.00830514941717,
a3,2,2,3.0,a,"[0.2, -0.2]",,,,,,,,,,,,,,,,0,31,31,31,,,,,,,,,,,,,,,,,,,,,a,1,1.1982075999999324,,,,,,,,,,,,gsy,f,19,2024_Apr_14_1015,mian,2021.2.3,60.00830514941717,
f3,1,1,f,l,"[0.2, 0.2]",,,,,,,,,,,,,,,,0,32,32,32,,,,,,,,,,,,,,,,,,,,,l,1,0.9077945999999883,,,,,,,,,,,,gsy,f,19,2024_Apr_14_1015,mian,2021.2.3,60.00830514941717,
2E,1,2,E,a,"[-0.2, 0.2]",,,,,,,,,,,,,,,,0,33,33,33,,,,,,,,,,,,,,,,,,,,,a,1,0.9219510999998874,,,,,,,,,,,,gsy,f,19,2024_Apr_14_1015,mian,2021.2.3,60.00830514941717,
2H,2,1,2.0,l,"[-0.2, -0.2]",,,,,,,,,,,,,,,,0,34,34,34,,,,,,,,,,,,,,,,,,,,,l,1,1.3392455999999129,,,,,,,,,,,,gsy,f,19,2024_Apr_14_1015,mian,2021.2.3,60.00830514941717,
H8,2,2,8.0,l,"[0.2, -0.2]",,,,,,,,,,,,,,,,0,35,35,35,,,,,,,,,,,,,,,,,,,,,l,1,0.532633899999837,,,,,,,,,,,,gsy,f,19,2024_Apr_14_1015,mian,2021.2.3,60.00830514941717,
9g,1,1,g,l,"[0.2, 0.2]",,,,,,,,,,,,,,,,0,36,36,36,,,,,,,,,,,,,,,,,,,,,l,1,2.3473179000000073,,,,,,,,,,,,gsy,f,19,2024_Apr_14_1015,mian,2021.2.3,60.00830514941717,
5h,1,2,h,l,"[-0.2, 0.2]",,,,,,,,,,,,,,,,0,37,37,37,,,,,,,,,,,,,,,,,,,,,l,1,3.012886799999933,,,,,,,,,,,,gsy,f,19,2024_Apr_14_1015,mian,2021.2.3,60.00830514941717,
e4,2,1,4.0,l,"[-0.2, -0.2]",,,,,,,,,,,,,,,,0,38,38,38,,,,,,,,,,,,,,,,,,,,,a,0,1.6002770999998575,,,,,,,,,,,,gsy,f,19,2024_Apr_14_1015,mian,2021.2.3,60.00830514941717,
9h,2,2,9.0,a,"[0.2, -0.2]",,,,,,,,,,,,,,,,0,39,39,39,,,,,,,,,,,,,,,,,,,,,a,1,2.3420991999998932,,,,,,,,,,,,gsy,f,19,2024_Apr_14_1015,mian,2021.2.3,60.00830514941717,
G3,1,1,G,a,"[0.2, 0.2]",,,,,,,,,,,,,,,,0,40,40,40,,,,,,,,,,,,,,,,,,,,,a,1,1.0807640999998966,,,,,,,,,,,,gsy,f,19,2024_Apr_14_1015,mian,2021.2.3,60.00830514941717,
9A,1,2,A,a,"[-0.2, 0.2]",,,,,,,,,,,,,,,,0,41,41,41,,,,,,,,,,,,,,,,,,,,,a,1,0.5305740999999671,,,,,,,,,,,,gsy,f,19,2024_Apr_14_1015,mian,2021.2.3,60.00830514941717,
H5,2,1,5.0,a,"[-0.2, -0.2]",,,,,,,,,,,,,,,,0,42,42,42,,,,,,,,,,,,,,,,,,,,,a,1,0.9618348999999853,,,,,,,,,,,,gsy,f,19,2024_Apr_14_1015,mian,2021.2.3,60.00830514941717,
4e,2,2,4.0,l,"[0.2, -0.2]",,,,,,,,,,,,,,,,0,43,43,43,,,,,,,,,,,,,,,,,,,,,l,1,1.3385057999998935,,,,,,,,,,,,gsy,f,19,2024_Apr_14_1015,mian,2021.2.3,60.00830514941717,
E2,1,1,E,a,"[0.2, 0.2]",,,,,,,,,,,,,,,,0,44,44,44,,,,,,,,,,,,,,,,,,,,,a,1,1.2470883000000867,,,,,,,,,,,,gsy,f,19,2024_Apr_14_1015,mian,2021.2.3,60.00830514941717,
A5,1,2,A,a,"[-0.2, 0.2]",,,,,,,,,,,,,,,,0,45,45,45,,,,,,,,,,,,,,,,,,,,,a,1,0.5087507000000642,,,,,,,,,,,,gsy,f,19,2024_Apr_14_1015,mian,2021.2.3,60.00830514941717,
2A,2,1,2.0,l,"[-0.2, -0.2]",,,,,,,,,,,,,,,,0,46,46,46,,,,,,,,,,,,,,,,,,,,,l,1,1.1169548000000304,,,,,,,,,,,,gsy,f,19,2024_Apr_14_1015,mian,2021.2.3,60.00830514941717,
6G,2,2,6.0,l,"[0.2, -0.2]",,,,,,,,,,,,,,,,0,47,47,47,,,,,,,,,,,,,,,,,,,,,l,1,0.4549094999999852,,,,,,,,,,,,gsy,f,19,2024_Apr_14_1015,mian,2021.2.3,60.00830514941717,
H3,1,1,H,a,"[0.2, 0.2]",,,,,,,,,,,,,,,,0,48,48,48,,,,,,,,,,,,,,,,,,,,,a,1,0.8841952999998739,,,,,,,,,,,,gsy,f,19,2024_Apr_14_1015,mian,2021.2.3,60.00830514941717,
H2,1,2,H,a,"[-0.2, 0.2]",,,,,,,,,,,,,,,,0,49,49,49,,,,,,,,,,,,,,,,,,,,,a,1,0.3998715000000175,,,,,,,,,,,,gsy,f,19,2024_Apr_14_1015,mian,2021.2.3,60.00830514941717,
e9,2,1,9.0,a,"[-0.2, -0.2]",,,,,,,,,,,,,,,,0,50,50,50,,,,,,,,,,,,,,,,,,,,,l,0,1.4335272999999233,,,,,,,,,,,,gsy,f,19,2024_Apr_14_1015,mian,2021.2.3,60.00830514941717,
2G,2,2,2.0,l,"[0.2, -0.2]",,,,,,,,,,,,,,,,0,51,51,51,,,,,,,,,,,,,,,,,,,,,a,0,1.3776233999999477,,,,,,,,,,,,gsy,f,19,2024_Apr_14_1015,mian,2021.2.3,60.00830514941717,
4f,1,1,f,l,"[0.2, 0.2]",,,,,,,,,,,,,,,,0,52,52,52,,,,,,,,,,,,,,,,,,,,,l,1,3.1607426999999007,,,,,,,,,,,,gsy,f,19,2024_Apr_14_1015,mian,2021.2.3,60.00830514941717,
H6,1,2,H,a,"[-0.2, 0.2]",,,,,,,,,,,,,,,,0,53,53,53,,,,,,,,,,,,,,,,,,,,,a,1,0.6391641000000163,,,,,,,,,,,,gsy,f,19,2024_Apr_14_1015,mian,2021.2.3,60.00830514941717,
A4,2,1,4.0,l,"[-0.2, -0.2]",,,,,,,,,,,,,,,,0,54,54,54,,,,,,,,,,,,,,,,,,,,,l,1,1.2759628999999677,,,,,,,,,,,,gsy,f,19,2024_Apr_14_1015,mian,2021.2.3,60.00830514941717,
3F,2,2,3.0,a,"[0.2, -0.2]",,,,,,,,,,,,,,,,0,55,55,55,,,,,,,,,,,,,,,,,,,,,a,1,3.809251900000163,,,,,,,,,,,,gsy,f,19,2024_Apr_14_1015,mian,2021.2.3,60.00830514941717,
7e,1,1,e,l,"[0.2, 0.2]",,,,,,,,,,,,,,,,0,56,56,56,,,,,,,,,,,,,,,,,,,,,l,1,1.074587500000007,,,,,,,,,,,,gsy,f,19,2024_Apr_14_1015,mian,2021.2.3,60.00830514941717,
F9,1,2,F,a,"[-0.2, 0.2]",,,,,,,,,,,,,,,,0,57,57,57,,,,,,,,,,,,,,,,,,,,,a,1,0.9036403000000064,,,,,,,,,,,,gsy,f,19,2024_Apr_14_1015,mian,2021.2.3,60.00830514941717,
e2,2,1,2.0,l,"[-0.2, -0.2]",,,,,,,,,,,,,,,,0,58,58,58,,,,,,,,,,,,,,,,,,,,,l,1,2.2593186000001424,,,,,,,,,,,,gsy,f,19,2024_Apr_14_1015,mian,2021.2.3,60.00830514941717,
5F,2,2,5.0,a,"[0.2, -0.2]",,,,,,,,,,,,,,,,0,59,59,59,,,,,,,,,,,,,,,,,,,,,a,1,2.35908419999987,,,,,,,,,,,,gsy,f,19,2024_Apr_14_1015,mian,2021.2.3,60.00830514941717,
f6,1,1,f,l,"[0.2, 0.2]",,,,,,,,,,,,,,,,0,60,60,60,,,,,,,,,,,,,,,,,,,,,l,1,3.0229188000000704,,,,,,,,,,,,gsy,f,19,2024_Apr_14_1015,mian,2021.2.3,60.00830514941717,
7G,1,2,G,a,"[-0.2, 0.2]",,,,,,,,,,,,,,,,0,61,61,61,,,,,,,,,,,,,,,,,,,,,a,1,0.6016296999998758,,,,,,,,,,,,gsy,f,19,2024_Apr_14_1015,mian,2021.2.3,60.00830514941717,
e6,2,1,6.0,l,"[-0.2, -0.2]",,,,,,,,,,,,,,,,0,62,62,62,,,,,,,,,,,,,,,,,,,,,l,1,2.0784753999998884,,,,,,,,,,,,gsy,f,19,2024_Apr_14_1015,mian,2021.2.3,60.00830514941717,
3G,2,2,3.0,a,"[0.2, -0.2]",,,,,,,,,,,,,,,,0,63,63,63,,,,,,,,,,,,,,,,,,,,,a,1,2.0213006999999834,,,,,,,,,,,,gsy,f,19,2024_Apr_14_1015,mian,2021.2.3,60.00830514941717,
5E,1,1,E,a,"[0.2, 0.2]",,,,,,,,,,,,,,,,0,64,64,64,,,,,,,,,,,,,,,,,,,,,a,1,0.768314799999871,,,,,,,,,,,,gsy,f,19,2024_Apr_14_1015,mian,2021.2.3,60.00830514941717,
A6,1,2,A,a,"[-0.2, 0.2]",,,,,,,,,,,,,,,,0,65,65,65,,,,,,,,,,,,,,,,,,,,,a,1,0.40349920000016937,,,,,,,,,,,,gsy,f,19,2024_Apr_14_1015,mian,2021.2.3,60.00830514941717,
E3,2,1,3.0,a,"[-0.2, -0.2]",,,,,,,,,,,,,,,,0,66,66,66,,,,,,,,,,,,,,,,,,,,,a,1,1.207276200000024,,,,,,,,,,,,gsy,f,19,2024_Apr_14_1015,mian,2021.2.3,60.00830514941717,
2f,2,2,2.0,l,"[0.2, -0.2]",,,,,,,,,,,,,,,,0,67,67,67,,,,,,,,,,,,,,,,,,,,,l,1,0.5378125999998247,,,,,,,,,,,,gsy,f,19,2024_Apr_14_1015,mian,2021.2.3,60.00830514941717,
g3,1,1,g,l,"[0.2, 0.2]",,,,,,,,,,,,,,,,0,68,68,68,,,,,,,,,,,,,,,,,,,,,l,1,0.8755999999998494,,,,,,,,,,,,gsy,f,19,2024_Apr_14_1015,mian,2021.2.3,60.00830514941717,
E8,1,2,E,a,"[-0.2, 0.2]",,,,,,,,,,,,,,,,0,69,69,69,,,,,,,,,,,,,,,,,,,,,a,1,0.6325579000001653,,,,,,,,,,,,gsy,f,19,2024_Apr_14_1015,mian,2021.2.3,60.00830514941717,
6g,2,1,6.0,l,"[-0.2, -0.2]",,,,,,,,,,,,,,,,0,70,70,70,,,,,,,,,,,,,,,,,,,,,l,1,1.048697200000106,,,,,,,,,,,,gsy,f,19,2024_Apr_14_1015,mian,2021.2.3,60.00830514941717,
5H,2,2,5.0,a,"[0.2, -0.2]",,,,,,,,,,,,,,,,0,71,71,71,,,,,,,,,,,,,,,,,,,,,a,1,0.5578310999999303,,,,,,,,,,,,gsy,f,19,2024_Apr_14_1015,mian,2021.2.3,60.00830514941717,
4A,1,1,A,a,"[0.2, 0.2]",,,,,,,,,,,,,,,,0,72,72,72,,,,,,,,,,,,,,,,,,,,,a,1,0.8097794000000249,,,,,,,,,,,,gsy,f,19,2024_Apr_14_1015,mian,2021.2.3,60.00830514941717,
7F,1,2,F,a,"[-0.2, 0.2]",,,,,,,,,,,,,,,,0,73,73,73,,,,,,,,,,,,,,,,,,,,,a,1,0.7035467000000608,,,,,,,,,,,,gsy,f,19,2024_Apr_14_1015,mian,2021.2.3,60.00830514941717,
6H,2,1,6.0,l,"[-0.2, -0.2]",,,,,,,,,,,,,,,,0,74,74,74,,,,,,,,,,,,,,,,,,,,,l,1,1.2453805999998622,,,,,,,,,,,,gsy,f,19,2024_Apr_14_1015,mian,2021.2.3,60.00830514941717,
3a,2,2,3.0,a,"[0.2, -0.2]",,,,,,,,,,,,,,,,0,75,75,75,,,,,,,,,,,,,,,,,,,,,a,1,0.5546554000000015,,,,,,,,,,,,gsy,f,19,2024_Apr_14_1015,mian,2021.2.3,60.00830514941717,
9F,1,1,F,a,"[0.2, 0.2]",,,,,,,,,,,,,,,,0,76,76,76,,,,,,,,,,,,,,,,,,,,,a,1,0.6464445999999953,,,,,,,,,,,,gsy,f,19,2024_Apr_14_1015,mian,2021.2.3,60.00830514941717,
G7,1,2,G,a,"[-0.2, 0.2]",,,,,,,,,,,,,,,,0,77,77,77,,,,,,,,,,,,,,,,,,,,,a,1,0.6095955999999205,,,,,,,,,,,,gsy,f,19,2024_Apr_14_1015,mian,2021.2.3,60.00830514941717,
a6,2,1,6.0,l,"[-0.2, -0.2]",,,,,,,,,,,,,,,,0,78,78,78,,,,,,,,,,,,,,,,,,,,,l,1,0.6512030999999752,,,,,,,,,,,,gsy,f,19,2024_Apr_14_1015,mian,2021.2.3,60.00830514941717,
4h,2,2,4.0,l,"[0.2, -0.2]",,,,,,,,,,,,,,,,0,79,79,79,,,,,,,,,,,,,,,,,,,,,l,1,0.8639749999999822,,,,,,,,,,,,gsy,f,19,2024_Apr_14_1015,mian,2021.2.3,60.00830514941717,
6A,1,1,A,a,"[0.2, 0.2]",,,,,,,,,,,,,,,,,,,,0,0,0,0,,,,,,,,,,,,,,,,,a,1,0.7664100000001781,,,,,,,,,,,,gsy,f,19,2024_Apr_14_1015,mian,2021.2.3,60.00830514941717,
4H,1,2,H,a,"[-0.2, 0.2]",,,,,,,,,,,,,,,,,,,,0,1,1,1,,,,,,,,,,,,,,,,,a,1,0.5465816999999333,,,,,,,,,,,,gsy,f,19,2024_Apr_14_1015,mian,2021.2.3,60.00830514941717,
3H,2,1,3.0,a,"[-0.2, -0.2]",,,,,,,,,,,,,,,,,,,,0,2,2,2,,,,,,,,,,,,,,,,,a,1,1.699381399999993,,,,,,,,,,,,gsy,f,19,2024_Apr_14_1015,mian,2021.2.3,60.00830514941717,
a9,2,2,9.0,a,"[0.2, -0.2]",,,,,,,,,,,,,,,,,,,,0,3,3,3,,,,,,,,,,,,,,,,,a,1,0.8299560999998903,,,,,,,,,,,,gsy,f,19,2024_Apr_14_1015,mian,2021.2.3,60.00830514941717,
E7,1,1,E,a,"[0.2, 0.2]",,,,,,,,,,,,,,,,,,,,0,4,4,4,,,,,,,,,,,,,,,,,a,1,0.8399375999999847,,,,,,,,,,,,gsy,f,19,2024_Apr_14_1015,mian,2021.2.3,60.00830514941717,
6h,1,2,h,l,"[-0.2, 0.2]",,,,,,,,,,,,,,,,,,,,0,5,5,5,,,,,,,,,,,,,,,,,l,1,0.6828201000000718,,,,,,,,,,,,gsy,f,19,2024_Apr_14_1015,mian,2021.2.3,60.00830514941717,
8A,2,1,8.0,l,"[-0.2, -0.2]",,,,,,,,,,,,,,,,,,,,0,6,6,6,,,,,,,,,,,,,,,,,l,1,1.1192554000001564,,,,,,,,,,,,gsy,f,19,2024_Apr_14_1015,mian,2021.2.3,60.00830514941717,
f5,2,2,5.0,a,"[0.2, -0.2]",,,,,,,,,,,,,,,,,,,,0,7,7,7,,,,,,,,,,,,,,,,,a,1,0.5549255000000812,,,,,,,,,,,,gsy,f,19,2024_Apr_14_1015,mian,2021.2.3,60.00830514941717,
2a,1,1,a,l,"[0.2, 0.2]",,,,,,,,,,,,,,,,,,,,0,8,8,8,,,,,,,,,,,,,,,,,l,1,1.1690690000000359,,,,,,,,,,,,gsy,f,19,2024_Apr_14_1015,mian,2021.2.3,60.00830514941717,
F7,1,2,F,a,"[-0.2, 0.2]",,,,,,,,,,,,,,,,,,,,0,9,9,9,,,,,,,,,,,,,,,,,a,1,0.7025793999998768,,,,,,,,,,,,gsy,f,19,2024_Apr_14_1015,mian,2021.2.3,60.00830514941717,
h2,2,1,2.0,l,"[-0.2, -0.2]",,,,,,,,,,,,,,,,,,,,0,10,10,10,,,,,,,,,,,,,,,,,l,1,1.065472699999873,,,,,,,,,,,,gsy,f,19,2024_Apr_14_1015,mian,2021.2.3,60.00830514941717,
F5,2,2,5.0,a,"[0.2, -0.2]",,,,,,,,,,,,,,,,,,,,0,11,11,11,,,,,,,,,,,,,,,,,a,1,1.7723309000000427,,,,,,,,,,,,gsy,f,19,2024_Apr_14_1015,mian,2021.2.3,60.00830514941717,
A9,1,1,A,a,"[0.2, 0.2]",,,,,,,,,,,,,,,,,,,,0,12,12,12,,,,,,,,,,,,,,,,,a,1,0.5046869999998762,,,,,,,,,,,,gsy,f,19,2024_Apr_14_1015,mian,2021.2.3,60.00830514941717,
3e,1,2,e,l,"[-0.2, 0.2]",,,,,,,,,,,,,,,,,,,,0,13,13,13,,,,,,,,,,,,,,,,,l,1,0.6458774999998695,,,,,,,,,,,,gsy,f,19,2024_Apr_14_1015,mian,2021.2.3,60.00830514941717,
f8,2,1,8.0,l,"[-0.2, -0.2]",,,,,,,,,,,,,,,,,,,,0,14,14,14,,,,,,,,,,,,,,,,,l,1,1.0513017999999192,,,,,,,,,,,,gsy,f,19,2024_Apr_14_1015,mian,2021.2.3,60.00830514941717,
G2,2,2,2.0,l,"[0.2, -0.2]",,,,,,,,,,,,,,,,,,,,0,15,15,15,,,,,,,,,,,,,,,,,l,1,0.5943108000001303,,,,,,,,,,,,gsy,f,19,2024_Apr_14_1015,mian,2021.2.3,60.00830514941717,
F2,1,1,F,a,"[0.2, 0.2]",,,,,,,,,,,,,,,,,,,,0,16,16,16,,,,,,,,,,,,,,,,,a,1,2.382367400000021,,,,,,,,,,,,gsy,f,19,2024_Apr_14_1015,mian,2021.2.3,60.00830514941717,
5e,1,2,e,l,"[-0.2, 0.2]",,,,,,,,,,,,,,,,,,,,0,17,17,17,,,,,,,,,,,,,,,,,l,1,0.6140985999998065,,,,,,,,,,,,gsy,f,19,2024_Apr_14_1015,mian,2021.2.3,60.00830514941717,
A3,2,1,3.0,a,"[-0.2, -0.2]",,,,,,,,,,,,,,,,,,,,0,18,18,18,,,,,,,,,,,,,,,,,a,1,3.238519100000076,,,,,,,,,,,,gsy,f,19,2024_Apr_14_1015,mian,2021.2.3,60.00830514941717,
4g,2,2,4.0,l,"[0.2, -0.2]",,,,,,,,,,,,,,,,,,,,0,19,19,19,,,,,,,,,,,,,,,,,l,1,0.8580690999999661,,,,,,,,,,,,gsy,f,19,2024_Apr_14_1015,mian,2021.2.3,60.00830514941717,
h7,1,1,h,l,"[0.2, 0.2]",,,,,,,,,,,,,,,,,,,,0,20,20,20,,,,,,,,,,,,,,,,,l,1,0.8894213000000946,,,,,,,,,,,,gsy,f,19,2024_Apr_14_1015,mian,2021.2.3,60.00830514941717,
3g,1,2,g,l,"[-0.2, 0.2]",,,,,,,,,,,,,,,,,,,,0,21,21,21,,,,,,,,,,,,,,,,,l,1,0.4268673999999919,,,,,,,,,,,,gsy,f,19,2024_Apr_14_1015,mian,2021.2.3,60.00830514941717,
8a,2,1,8.0,l,"[-0.2, -0.2]",,,,,,,,,,,,,,,,,,,,0,22,22,22,,,,,,,,,,,,,,,,,l,1,0.8615961000000425,,,,,,,,,,,,gsy,f,19,2024_Apr_14_1015,mian,2021.2.3,60.00830514941717,
4E,2,2,4.0,l,"[0.2, -0.2]",,,,,,,,,,,,,,,,,,,,0,23,23,23,,,,,,,,,,,,,,,,,l,1,0.46846400000003996,,,,,,,,,,,,gsy,f,19,2024_Apr_14_1015,mian,2021.2.3,60.00830514941717,
E5,1,1,E,a,"[0.2, 0.2]",,,,,,,,,,,,,,,,,,,,0,24,24,24,,,,,,,,,,,,,,,,,a,1,0.5038538999999673,,,,,,,,,,,,gsy,f,19,2024_Apr_14_1015,mian,2021.2.3,60.00830514941717,
g6,1,2,g,l,"[-0.2, 0.2]",,,,,,,,,,,,,,,,,,,,0,25,25,25,,,,,,,,,,,,,,,,,l,1,0.5468928000000233,,,,,,,,,,,,gsy,f,19,2024_Apr_14_1015,mian,2021.2.3,60.00830514941717,
2e,2,1,2.0,l,"[-0.2, -0.2]",,,,,,,,,,,,,,,,,,,,0,26,26,26,,,,,,,,,,,,,,,,,l,1,0.7776684000000387,,,,,,,,,,,,gsy,f,19,2024_Apr_14_1015,mian,2021.2.3,60.00830514941717,
h8,2,2,8.0,l,"[0.2, -0.2]",,,,,,,,,,,,,,,,,,,,0,27,27,27,,,,,,,,,,,,,,,,,l,1,1.4398261999999704,,,,,,,,,,,,gsy,f,19,2024_Apr_14_1015,mian,2021.2.3,60.00830514941717,
G6,1,1,G,a,"[0.2, 0.2]",,,,,,,,,,,,,,,,,,,,0,28,28,28,,,,,,,,,,,,,,,,,a,1,0.6653939000000264,,,,,,,,,,,,gsy,f,19,2024_Apr_14_1015,mian,2021.2.3,60.00830514941717,
a4,1,2,a,l,"[-0.2, 0.2]",,,,,,,,,,,,,,,,,,,,0,29,29,29,,,,,,,,,,,,,,,,,l,1,0.8424350000000231,,,,,,,,,,,,gsy,f,19,2024_Apr_14_1015,mian,2021.2.3,60.00830514941717,
9H,2,1,9.0,a,"[-0.2, -0.2]",,,,,,,,,,,,,,,,,,,,0,30,30,30,,,,,,,,,,,,,,,,,a,1,1.0870588999998745,,,,,,,,,,,,gsy,f,19,2024_Apr_14_1015,mian,2021.2.3,60.00830514941717,
7H,2,2,7.0,a,"[0.2, -0.2]",,,,,,,,,,,,,,,,,,,,0,31,31,31,,,,,,,,,,,,,,,,,a,1,0.6962543000001915,,,,,,,,,,,,gsy,f,19,2024_Apr_14_1015,mian,2021.2.3,60.00830514941717,
9f,1,1,f,l,"[0.2, 0.2]",,,,,,,,,,,,,,,,,,,,0,32,32,32,,,,,,,,,,,,,,,,,l,1,2.8240441999998893,,,,,,,,,,,,gsy,f,19,2024_Apr_14_1015,mian,2021.2.3,60.00830514941717,
8E,1,2,E,a,"[-0.2, 0.2]",,,,,,,,,,,,,,,,,,,,0,33,33,33,,,,,,,,,,,,,,,,,a,1,0.5219632999999249,,,,,,,,,,,,gsy,f,19,2024_Apr_14_1015,mian,2021.2.3,60.00830514941717,
A2,2,1,2.0,l,"[-0.2, -0.2]",,,,,,,,,,,,,,,,,,,,0,34,34,34,,,,,,,,,,,,,,,,,l,1,1.2008949999999459,,,,,,,,,,,,gsy,f,19,2024_Apr_14_1015,mian,2021.2.3,60.00830514941717,
H7,2,2,7.0,a,"[0.2, -0.2]",,,,,,,,,,,,,,,,,,,,0,35,35,35,,,,,,,,,,,,,,,,,a,1,0.6395979000001262,,,,,,,,,,,,gsy,f,19,2024_Apr_14_1015,mian,2021.2.3,60.00830514941717,
h9,1,1,h,l,"[0.2, 0.2]",,,,,,,,,,,,,,,,,,,,0,36,36,36,,,,,,,,,,,,,,,,,l,1,2.9725381000000652,,,,,,,,,,,,gsy,f,19,2024_Apr_14_1015,mian,2021.2.3,60.00830514941717,
8G,1,2,G,a,"[-0.2, 0.2]",,,,,,,,,,,,,,,,,,,,0,37,37,37,,,,,,,,,,,,,,,,,a,1,0.5182340000001204,,,,,,,,,,,,gsy,f,19,2024_Apr_14_1015,mian,2021.2.3,60.00830514941717,
H4,2,1,4.0,l,"[-0.2, -0.2]",,,,,,,,,,,,,,,,,,,,0,38,38,38,,,,,,,,,,,,,,,,,l,1,1.0334038000000874,,,,,,,,,,,,gsy,f,19,2024_Apr_14_1015,mian,2021.2.3,60.00830514941717,
A8,2,2,8.0,l,"[0.2, -0.2]",,,,,,,,,,,,,,,,,,,,0,39,39,39,,,,,,,,,,,,,,,,,l,1,0.4489289999999073,,,,,,,,,,,,gsy,f,19,2024_Apr_14_1015,mian,2021.2.3,60.00830514941717,
g7,1,1,g,l,"[0.2, 0.2]",,,,,,,,,,,,,,,,,,,,0,40,40,40,,,,,,,,,,,,,,,,,l,1,2.828410500000018,,,,,,,,,,,,gsy,f,19,2024_Apr_14_1015,mian,2021.2.3,60.00830514941717,
H9,1,2,H,a,"[-0.2, 0.2]",,,,,,,,,,,,,,,,,,,,0,41,41,41,,,,,,,,,,,,,,,,,a,1,0.5766281999999592,,,,,,,,,,,,gsy,f,19,2024_Apr_14_1015,mian,2021.2.3,60.00830514941717,
9E,2,1,9.0,a,"[-0.2, -0.2]",,,,,,,,,,,,,,,,,,,,0,42,42,42,,,,,,,,,,,,,,,,,l,0,1.4613161999998283,,,,,,,,,,,,gsy,f,19,2024_Apr_14_1015,mian,2021.2.3,60.00830514941717,
a5,2,2,5.0,a,"[0.2, -0.2]",,,,,,,,,,,,,,,,,,,,0,43,43,43,,,,,,,,,,,,,,,,,a,1,1.3642002000001412,,,,,,,,,,,,gsy,f,19,2024_Apr_14_1015,mian,2021.2.3,60.00830514941717,
3E,1,1,E,a,"[0.2, 0.2]",,,,,,,,,,,,,,,,,,,,0,44,44,44,,,,,,,,,,,,,,,,,a,1,0.8440121999999519,,,,,,,,,,,,gsy,f,19,2024_Apr_14_1015,mian,2021.2.3,60.00830514941717,
6f,1,2,f,l,"[-0.2, 0.2]",,,,,,,,,,,,,,,,,,,,0,45,45,45,,,,,,,,,,,,,,,,,l,1,0.5274231999999301,,,,,,,,,,,,gsy,f,19,2024_Apr_14_1015,mian,2021.2.3,60.00830514941717,
g8,2,1,8.0,l,"[-0.2, -0.2]",,,,,,,,,,,,,,,,,,,,0,46,46,46,,,,,,,,,,,,,,,,,l,1,1.8397502000000259,,,,,,,,,,,,gsy,f,19,2024_Apr_14_1015,mian,2021.2.3,60.00830514941717,
4F,2,2,4.0,l,"[0.2, -0.2]",,,,,,,,,,,,,,,,,,,,0,47,47,47,,,,,,,,,,,,,,,,,l,1,0.5939198000000943,,,,,,,,,,,,gsy,f,19,2024_Apr_14_1015,mian,2021.2.3,60.00830514941717,
4a,1,1,a,l,"[0.2, 0.2]",,,,,,,,,,,,,,,,,,,,0,48,48,48,,,,,,,,,,,,,,,,,l,1,2.0871825000001536,,,,,,,,,,,,gsy,f,19,2024_Apr_14_1015,mian,2021.2.3,60.00830514941717,
e3,1,2,e,l,"[-0.2, 0.2]",,,,,,,,,,,,,,,,,,,,0,49,49,49,,,,,,,,,,,,,,,,,l,1,0.6907670000000508,,,,,,,,,,,,gsy,f,19,2024_Apr_14_1015,mian,2021.2.3,60.00830514941717,
5g,2,1,5.0,a,"[-0.2, -0.2]",,,,,,,,,,,,,,,,,,,,0,50,50,50,,,,,,,,,,,,,,,,,a,1,1.3869775000000573,,,,,,,,,,,,gsy,f,19,2024_Apr_14_1015,mian,2021.2.3,60.00830514941717,
f4,2,2,4.0,l,"[0.2, -0.2]",,,,,,,,,,,,,,,,,,,,0,51,51,51,,,,,,,,,,,,,,,,,l,1,2.525107799999887,,,,,,,,,,,,gsy,f,19,2024_Apr_14_1015,mian,2021.2.3,60.00830514941717,
6E,1,1,E,a,"[0.2, 0.2]",,,,,,,,,,,,,,,,,,,,0,52,52,52,,,,,,,,,,,,,,,,,a,1,0.6395289999998113,,,,,,,,,,,,gsy,f,19,2024_Apr_14_1015,mian,2021.2.3,60.00830514941717,
7A,1,2,A,a,"[-0.2, 0.2]",,,,,,,,,,,,,,,,,,,,0,53,53,53,,,,,,,,,,,,,,,,,a,1,0.35133509999991475,,,,,,,,,,,,gsy,f,19,2024_Apr_14_1015,mian,2021.2.3,60.00830514941717,
F4,2,1,4.0,l,"[-0.2, -0.2]",,,,,,,,,,,,,,,,,,,,0,54,54,54,,,,,,,,,,,,,,,,,l,1,1.0973877000001266,,,,,,,,,,,,gsy,f,19,2024_Apr_14_1015,mian,2021.2.3,60.00830514941717,
2g,2,2,2.0,l,"[0.2, -0.2]",,,,,,,,,,,,,,,,,,,,0,55,55,55,,,,,,,,,,,,,,,,,l,1,0.8945697999999993,,,,,,,,,,,,gsy,f,19,2024_Apr_14_1015,mian,2021.2.3,60.00830514941717,
7E,1,1,E,a,"[0.2, 0.2]",,,,,,,,,,,,,,,,,,,,0,56,56,56,,,,,,,,,,,,,,,,,a,1,0.6204055999999127,,,,,,,,,,,,gsy,f,19,2024_Apr_14_1015,mian,2021.2.3,60.00830514941717,
G4,1,2,G,a,"[-0.2, 0.2]",,,,,,,,,,,,,,,,,,,,0,57,57,57,,,,,,,,,,,,,,,,,a,1,0.5213616999999431,,,,,,,,,,,,gsy,f,19,2024_Apr_14_1015,mian,2021.2.3,60.00830514941717,
2F,2,1,2.0,l,"[-0.2, -0.2]",,,,,,,,,,,,,,,,,,,,0,58,58,58,,,,,,,,,,,,,,,,,l,1,0.4393248000001222,,,,,,,,,,,,gsy,f,19,2024_Apr_14_1015,mian,2021.2.3,60.00830514941717,
E9,2,2,9.0,a,"[0.2, -0.2]",,,,,,,,,,,,,,,,,,,,0,59,59,59,,,,,,,,,,,,,,,,,a,1,0.536137300000064,,,,,,,,,,,,gsy,f,19,2024_Apr_14_1015,mian,2021.2.3,60.00830514941717,
5f,1,1,f,l,"[0.2, 0.2]",,,,,,,,,,,,,,,,,,,,0,60,60,60,,,,,,,,,,,,,,,,,l,1,0.5953819999999723,,,,,,,,,,,,gsy,f,19,2024_Apr_14_1015,mian,2021.2.3,60.00830514941717,
e7,1,2,e,l,"[-0.2, 0.2]",,,,,,,,,,,,,,,,,,,,0,61,61,61,,,,,,,,,,,,,,,,,l,1,0.5298161000000619,,,,,,,,,,,,gsy,f,19,2024_Apr_14_1015,mian,2021.2.3,60.00830514941717,
f2,2,1,2.0,l,"[-0.2, -0.2]",,,,,,,,,,,,,,,,,,,,0,62,62,62,,,,,,,,,,,,,,,,,a,0,1.1678282000000308,,,,,,,,,,,,gsy,f,19,2024_Apr_14_1015,mian,2021.2.3,60.00830514941717,
G9,2,2,9.0,a,"[0.2, -0.2]",,,,,,,,,,,,,,,,,,,,0,63,63,63,,,,,,,,,,,,,,,,,a,1,3.286615299999994,,,,,,,,,,,,gsy,f,19,2024_Apr_14_1015,mian,2021.2.3,60.00830514941717,
7g,1,1,g,l,"[0.2, 0.2]",,,,,,,,,,,,,,,,,,,,0,64,64,64,,,,,,,,,,,,,,,,,l,1,0.8705168999999842,,,,,,,,,,,,gsy,f,19,2024_Apr_14_1015,mian,2021.2.3,60.00830514941717,
F8,1,2,F,a,"[-0.2, 0.2]",,,,,,,,,,,,,,,,,,,,0,65,65,65,,,,,,,,,,,,,,,,,a,1,0.6428547000000435,,,,,,,,,,,,gsy,f,19,2024_Apr_14_1015,mian,2021.2.3,60.00830514941717,
A7,2,1,7.0,a,"[-0.2, -0.2]",,,,,,,,,,,,,,,,,,,,0,66,66,66,,,,,,,,,,,,,,,,,a,1,1.3333637000000635,,,,,,,,,,,,gsy,f,19,2024_Apr_14_1015,mian,2021.2.3,60.00830514941717,
4G,2,2,4.0,l,"[0.2, -0.2]",,,,,,,,,,,,,,,,,,,,0,67,67,67,,,,,,,,,,,,,,,,,l,1,0.5488659000000098,,,,,,,,,,,,gsy,f,19,2024_Apr_14_1015,mian,2021.2.3,60.00830514941717,
g2,1,1,g,l,"[0.2, 0.2]",,,,,,,,,,,,,,,,,,,,0,68,68,68,,,,,,,,,,,,,,,,,l,1,0.7943176000001131,,,,,,,,,,,,gsy,f,19,2024_Apr_14_1015,mian,2021.2.3,60.00830514941717,
g4,1,2,g,l,"[-0.2, 0.2]",,,,,,,,,,,,,,,,,,,,0,69,69,69,,,,,,,,,,,,,,,,,l,1,0.5003802000001087,,,,,,,,,,,,gsy,f,19,2024_Apr_14_1015,mian,2021.2.3,60.00830514941717,
7a,2,1,7.0,a,"[-0.2, -0.2]",,,,,,,,,,,,,,,,,,,,0,70,70,70,,,,,,,,,,,,,,,,,a,1,1.9232332999999926,,,,,,,,,,,,gsy,f,19,2024_Apr_14_1015,mian,2021.2.3,60.00830514941717,
8e,2,2,8.0,l,"[0.2, -0.2]",,,,,,,,,,,,,,,,,,,,0,71,71,71,,,,,,,,,,,,,,,,,l,1,0.4959931000000779,,,,,,,,,,,,gsy,f,19,2024_Apr_14_1015,mian,2021.2.3,60.00830514941717,
h4,1,1,h,l,"[0.2, 0.2]",,,,,,,,,,,,,,,,,,,,0,72,72,72,,,,,,,,,,,,,,,,,l,1,1.613057400000116,,,,,,,,,,,,gsy,f,19,2024_Apr_14_1015,mian,2021.2.3,60.00830514941717,
G8,1,2,G,a,"[-0.2, 0.2]",,,,,,,,,,,,,,,,,,,,0,73,73,73,,,,,,,,,,,,,,,,,a,1,1.0306293999999525,,,,,,,,,,,,gsy,f,19,2024_Apr_14_1015,mian,2021.2.3,60.00830514941717,
6F,2,1,6.0,l,"[-0.2, -0.2]",,,,,,,,,,,,,,,,,,,,0,74,74,74,,,,,,,,,,,,,,,,,l,1,2.757346699999971,,,,,,,,,,,,gsy,f,19,2024_Apr_14_1015,mian,2021.2.3,60.00830514941717,
g5,2,2,5.0,a,"[0.2, -0.2]",,,,,,,,,,,,,,,,,,,,0,75,75,75,,,,,,,,,,,,,,,,,a,1,0.7285264000001916,,,,,,,,,,,,gsy,f,19,2024_Apr_14_1015,mian,2021.2.3,60.00830514941717,
G5,1,1,G,a,"[0.2, 0.2]",,,,,,,,,,,,,,,,,,,,0,76,76,76,,,,,,,,,,,,,,,,,a,1,1.042613099999926,,,,,,,,,,,,gsy,f,19,2024_Apr_14_1015,mian,2021.2.3,60.00830514941717,
h5,1,2,h,l,"[-0.2, 0.2]",,,,,,,,,,,,,,,,,,,,0,77,77,77,,,,,,,,,,,,,,,,,l,1,0.45171910000021853,,,,,,,,,,,,gsy,f,19,2024_Apr_14_1015,mian,2021.2.3,60.00830514941717,
9G,2,1,9.0,a,"[-0.2, -0.2]",,,,,,,,,,,,,,,,,,,,0,78,78,78,,,,,,,,,,,,,,,,,a,1,3.586343200000101,,,,,,,,,,,,gsy,f,19,2024_Apr_14_1015,mian,2021.2.3,60.00830514941717,
F3,2,2,3.0,a,"[0.2, -0.2]",,,,,,,,,,,,,,,,,,,,0,79,79,79,,,,,,,,,,,,,,,,,a,1,2.3089288000001034,,,,,,,,,,,,gsy,f,19,2024_Apr_14_1015,mian,2021.2.3,60.00830514941717,
,,,,,,1,0,pic/flanker5.png,pic/flanker3.png,a,l,,,,,,,,,,,,,,,,,,0,0,0,0,0,0,0,7,,,,,,,,,,,,543.0718543999999,None,541.8860087,543.0886825,None,0,心慌,l,1,1.6107672999999068,,gsy,f,19,2024_Apr_14_1015,mian,2021.2.3,60.00830514941717,
,,,,,,0,0,pic/flanker5.png,pic/flanker1.png,s,l,,,,,,,,,,,,,,,,,,0,0,0,0,0,1,1,3,,,,,,,,,,,,547.9552785999999,None,546.7717261,547.9718052000001,None,0,失意,l,1,0.9052467000001343,,gsy,f,19,2024_Apr_14_1015,mian,2021.2.3,60.00830514941717,
,,,,,,0,1,pic/flanker5.png,pic/flanker1.png,s,k,,,,,,,,,,,,,,,,,,0,0,0,0,0,2,2,0,,,,,,,,,,,,552.2885262,None,551.1052453,552.3054055,s,1,畅销,k,1,0.7928556000001663,0.9493446000001313,gsy,f,19,2024_Apr_14_1015,mian,2021.2.3,60.00830514941717,
,,,,,,0,1,pic/flanker6.png,pic/flanker2.png,a,k,,,,,,,,,,,,,,,,,,0,0,0,0,0,3,3,2,,,,,,,,,,,,556.0885057,None,554.905031,556.1052385999999,s,0,瑰丽,k,1,0.638268700000026,0.7663612000001194,gsy,f,19,2024_Apr_14_1015,mian,2021.2.3,60.00830514941717,
,,,,,,1,1,pic/flanker6.png,pic/flanker4.png,s,k,,,,,,,,,,,,,,,,,,0,0,0,0,0,4,4,6,,,,,,,,,,,,559.354932,None,558.1713986,559.3715457999999,a,0,前进,k,1,0.634070999999949,0.7289978999999676,gsy,f,19,2024_Apr_14_1015,mian,2021.2.3,60.00830514941717,
,,,,,,1,1,pic/flanker5.png,pic/flanker3.png,a,k,,,,,,,,,,,,,,,,,,0,0,0,0,0,5,5,4,,,,,,,,,,,,562.5551123,None,561.3719206999999,562.5719102999999,a,1,雄厚,k,1,1.376927300000034,0.6820801000001211,gsy,f,19,2024_Apr_14_1015,mian,2021.2.3,60.00830514941717,
,,,,,,1,0,pic/flanker6.png,pic/flanker4.png,s,l,,,,,,,,,,,,,,,,,,0,0,0,0,0,6,6,5,,,,,,,,,,,,566.6218159,None,565.4385812,566.6384579999999,a,0,嘲笑,l,1,0.790343600000142,1.0229199000000335,gsy,f,19,2024_Apr_14_1015,mian,2021.2.3,60.00830514941717,
,,,,,,0,0,pic/flanker6.png,pic/flanker2.png,a,l,,,,,,,,,,,,,,,,,,0,0,0,0,0,7,7,1,,,,,,,,,,,,570.2883890999999,None,569.105028,570.3052134,s,0,罚款,l,1,0.7459776999999121,0.8095080999999027,gsy,f,19,2024_Apr_14_1015,mian,2021.2.3,60.00830514941717,
,,,,,,,,,,,,,,,,,,,,,,,,,,,,,0,0,0,0,,,,,,,,,,,,,,,,,,,,,,,,,,,gsy,f,19,2024_Apr_14_1015,mian,2021.2.3,60.00830514941717,
,,,,,,1,1,pic/flanker6.png,pic/flanker4.png,s,k,pic/AffRest1.png,,,,,,,,,,,,,,,,,,,,,,,,,0,0,0,0,0,0,0,30,,,,592.2885996,None,591.1039781,592.3053912999999,s,1,公平,k,1,0.7441172999999708,0.7326754000000619,gsy,f,19,2024_Apr_14_1015,mian,2021.2.3,60.00830514941717,
,,,,,,0,1,pic/flanker5.png,pic/flanker1.png,s,k,pic/AffRest1.png,,,,,,,,,,,,,,,,,,,,,,,,,0,0,0,0,0,1,1,32,,,,595.7716722,None,594.5879603999999,595.7883772,s,1,优雅,k,1,0.5784458000000541,0.4424436000001606,gsy,f,19,2024_Apr_14_1015,mian,2021.2.3,60.00830514941717,
,,,,,,1,0,pic/flanker5.png,pic/flanker3.png,a,l,pic/AffRest1.png,,,,,,,,,,,,,,,,,,,,,,,,,0,0,0,0,0,2,2,23,,,,598.8053054,None,597.621646,598.8218116999999,a,1,逃避,l,1,0.6253700999998273,0.3698531999998522,gsy,f,19,2024_Apr_14_1015,mian,2021.2.3,60.00830514941717,
,,,,,,0,0,pic/flanker5.png,pic/flanker1.png,s,l,pic/AffRest1.png,,,,,,,,,,,,,,,,,,,,,,,,,0,0,0,0,0,3,3,43,,,,601.8384498,None,600.6552285,601.8546896,s,1,黑暗,l,1,0.596433000000161,0.4231259999999111,gsy,f,19,2024_Apr_14_1015,mian,2021.2.3,60.00830514941717,
,,,,,,1,1,pic/flanker5.png,pic/flanker3.png,a,k,pic/AffRest1.png,,,,,,,,,,,,,,,,,,,,,,,,,0,0,0,0,0,4,4,76,,,,604.8052479,None,603.6218884,604.8217732999999,a,1,羡慕,k,1,0.5919134999999187,0.4820767999999589,gsy,f,19,2024_Apr_14_1015,mian,2021.2.3,60.00830514941717,
,,,,,,1,0,pic/flanker6.png,pic/flanker4.png,s,l,pic/AffRest1.png,,,,,,,,,,,,,,,,,,,,,,,,,0,0,0,0,0,5,5,45,,,,607.9381971999999,None,606.7551109000001,607.9547203,s,1,缺乏,l,1,0.5477349999998751,0.46449729999994815,gsy,f,19,2024_Apr_14_1015,mian,2021.2.3,60.00830514941717,
,,,,,,0,1,pic/flanker5.png,pic/flanker1.png,s,k,pic/AffRest1.png,,,,,,,,,,,,,,,,,,,,,,,,,0,0,0,0,0,6,6,8,,,,611.0051974,None,609.8219108999999,611.0218376999999,s,1,豪放,k,1,0.6275802999998632,0.49503119999985756,gsy,f,19,2024_Apr_14_1015,mian,2021.2.3,60.00830514941717,
,,,,,,1,0,pic/flanker5.png,pic/flanker3.png,a,l,pic/AffRest1.png,,,,,,,,,,,,,,,,,,,,,,,,,0,0,0,0,0,7,7,55,,,,614.0212561000001,None,612.8384108,614.0379436999999,a,1,失意,l,1,0.9380419000001439,0.5006783999999698,gsy,f,19,2024_Apr_14_1015,mian,2021.2.3,60.00830514941717,
,,,,,,1,1,pic/flanker5.png,pic/flanker3.png,a,k,pic/AffRest1.png,,,,,,,,,,,,,,,,,,,,,,,,,0,0,0,0,0,8,8,28,,,,617.4554152999999,None,616.2717392,617.4720551999999,a,1,精致,k,1,0.5156474999998863,0.5351368999999977,gsy,f,19,2024_Apr_14_1015,mian,2021.2.3,60.00830514941717,
,,,,,,0,1,pic/flanker5.png,pic/flanker1.png,s,k,pic/AffRest1.png,,,,,,,,,,,,,,,,,,,,,,,,,0,0,0,0,0,9,9,40,,,,620.5884283999999,None,619.4050491,620.6051064999999,s,1,诚恳,k,1,0.5413630000000467,0.5364242999999078,gsy,f,19,2024_Apr_14_1015,mian,2021.2.3,60.00830514941717,
,,,,,,0,0,pic/flanker5.png,pic/flanker1.png,s,l,pic/AffRest1.png,,,,,,,,,,,,,,,,,,,,,,,,,0,0,0,0,0,10,10,59,,,,623.5713068,None,622.3878849999999,623.5879646999999,s,1,厌恶,l,1,0.6017481000001226,0.5731566999997995,gsy,f,19,2024_Apr_14_1015,mian,2021.2.3,60.00830514941717,
,,,,,,1,0,pic/flanker6.png,pic/flanker4.png,s,l,pic/AffRest1.png,,,,,,,,,,,,,,,,,,,,,,,,,0,0,0,0,0,11,11,69,,,,626.6719453000001,None,625.4882855999999,626.6885362,s,1,懒惰,l,1,0.6464831000000686,0.6049841999999899,gsy,f,19,2024_Apr_14_1015,mian,2021.2.3,60.00830514941717,
,,,,,,0,1,pic/flanker6.png,pic/flanker2.png,a,k,pic/AffRest1.png,,,,,,,,,,,,,,,,,,,,,,,,,0,0,0,0,0,12,12,66,,,,629.7884879999999,None,628.605153,629.8052309,a,1,丰满,k,1,0.49769279999986793,0.554253000000017,gsy,f,19,2024_Apr_14_1015,mian,2021.2.3,60.00830514941717,
,,,,,,0,0,pic/flanker5.png,pic/flanker1.png,s,l,pic/AffRest1.png,,,,,,,,,,,,,,,,,,,,,,,,,0,0,0,0,0,13,13,27,,,,632.9045596999999,None,631.7218794,632.9211895999999,s,1,浪费,l,1,0.5961010000000897,0.44709659999989526,gsy,f,19,2024_Apr_14_1015,mian,2021.2.3,60.00830514941717,
,,,,,,0,0,pic/flanker5.png,pic/flanker1.png,s,l,pic/AffRest1.png,,,,,,,,,,,,,,,,,,,,,,,,,0,0,0,0,0,14,14,75,,,,635.8383285,None,634.6549533,635.8551190999999,s,1,消沉,l,1,0.6278749999999036,0.4793131000001267,gsy,f,19,2024_Apr_14_1015,mian,2021.2.3,60.00830514941717,
,,,,,,0,0,pic/flanker6.png,pic/flanker2.png,a,l,pic/AffRest1.png,,,,,,,,,,,,,,,,,,,,,,,,,0,0,0,0,0,15,15,41,,,,638.8043169,None,637.6220046000001,638.8211056,a,1,鲁莽,l,1,0.6355202999998255,0.47813989999986006,gsy,f,19,2024_Apr_14_1015,mian,2021.2.3,60.00830514941717,
,,,,,,1,1,pic/flanker6.png,pic/flanker4.png,s,k,pic/AffRest1.png,,,,,,,,,,,,,,,,,,,,,,,,,0,0,0,0,0,16,16,6,,,,641.8216358,None,640.6382034999999,641.8382786,s,1,热切,k,1,0.5044113000001289,0.46558570000001964,gsy,f,19,2024_Apr_14_1015,mian,2021.2.3,60.00830514941717,
,,,,,,1,1,pic/flanker5.png,pic/flanker3.png,a,k,pic/AffRest1.png,,,,,,,,,,,,,,,,,,,,,,,,,0,0,0,0,0,17,17,68,,,,644.6384702999999,None,643.4550787000001,644.6551817,a,1,敬佩,k,1,0.520926099999997,0.5465877000001456,gsy,f,19,2024_Apr_14_1015,mian,2021.2.3,60.00830514941717,
,,,,,,1,1,pic/flanker6.png,pic/flanker4.png,s,k,pic/AffRest1.png,,,,,,,,,,,,,,,,,,,,,,,,,0,0,0,0,0,18,18,62,,,,647.6050963,None,646.4217715,647.6218386,s,1,富足,k,1,0.5115716999998767,0.4834876999998414,gsy,f,19,2024_Apr_14_1015,mian,2021.2.3,60.00830514941717,
,,,,,,0,1,pic/flanker6.png,pic/flanker2.png,a,k,pic/AffRest1.png,,,,,,,,,,,,,,,,,,,,,,,,,0,0,0,0,0,19,19,26,,,,650.5552332,None,649.3713174,650.5717385,a,1,圣洁,k,1,0.47117290000005596,0.5645566999999119,gsy,f,19,2024_Apr_14_1015,mian,2021.2.3,60.00830514941717,
,,,,,,1,1,pic/flanker5.png,pic/flanker3.png,a,k,pic/AffRest1.png,,,,,,,,,,,,,,,,,,,,,,,,,0,0,0,0,0,20,20,36,,,,653.6050453999999,None,652.4211625,653.6218762999999,a,1,享受,k,1,0.5383503000000474,0.47290990000010424,gsy,f,19,2024_Apr_14_1015,mian,2021.2.3,60.00830514941717,
,,,,,,0,0,pic/flanker6.png,pic/flanker2.png,a,l,pic/AffRest1.png,,,,,,,,,,,,,,,,,,,,,,,,,0,0,0,0,0,21,21,33,,,,656.5218032999999,None,655.3383663,656.5383658000001,a,1,假冒,l,1,0.5880784999999378,0.4785131999999521,gsy,f,19,2024_Apr_14_1015,mian,2021.2.3,60.00830514941717,
,,,,,,1,0,pic/flanker5.png,pic/flanker3.png,a,l,pic/AffRest1.png,,,,,,,,,,,,,,,,,,,,,,,,,0,0,0,0,0,22,22,15,,,,659.4713366999999,None,658.2884095,659.4879478999999,a,1,排斥,l,1,0.763745100000051,0.5669686999999612,gsy,f,19,2024_Apr_14_1015,mian,2021.2.3,60.00830514941717,
,,,,,,0,0,pic/flanker6.png,pic/flanker2.png,a,l,pic/AffRest1.png,,,,,,,,,,,,,,,,,,,,,,,,,0,0,0,0,0,23,23,1,,,,662.7050852,None,661.5217680000001,662.7218163,a,1,撒谎,l,1,0.5803484000000481,0.5072617000000719,gsy,f,19,2024_Apr_14_1015,mian,2021.2.3,60.00830514941717,
,,,,,,1,0,pic/flanker6.png,pic/flanker4.png,s,l,pic/AffRest1.png,,,,,,,,,,,,,,,,,,,,,,,,,0,0,0,0,0,24,24,29,,,,665.8385215000001,None,664.6551204,665.8551835999999,s,1,冷笑,l,1,0.6585488000000623,0.5553879999999936,gsy,f,19,2024_Apr_14_1015,mian,2021.2.3,60.00830514941717,
,,,,,,1,1,pic/flanker5.png,pic/flanker3.png,a,k,pic/AffRest1.png,,,,,,,,,,,,,,,,,,,,,,,,,0,0,0,0,0,25,25,44,,,,668.9718263,None,667.7883939999999,668.9883408000001,a,1,瑰丽,k,1,0.5593498000000636,0.6948515000001407,gsy,f,19,2024_Apr_14_1015,mian,2021.2.3,60.00830514941717,
,,,,,,1,0,pic/flanker6.png,pic/flanker4.png,s,l,pic/AffRest1.png,,,,,,,,,,,,,,,,,,,,,,,,,0,0,0,0,0,26,26,37,,,,672.0551680000001,None,670.8717445,672.0717955,s,1,罚款,l,1,0.6343272000001434,0.7646518999999898,gsy,f,19,2024_Apr_14_1015,mian,2021.2.3,60.00830514941717,
,,,,,,0,1,pic/flanker6.png,pic/flanker2.png,a,k,pic/AffRest1.png,,,,,,,,,,,,,,,,,,,,,,,,,0,0,0,0,0,27,27,34,,,,675.3552291000001,None,674.1717925999999,675.3719484999999,a,1,卓越,k,1,1.13283760000013,0.47624039999982415,gsy,f,19,2024_Apr_14_1015,mian,2021.2.3,60.00830514941717,
,,,,,,0,0,pic/flanker5.png,pic/flanker1.png,s,l,pic/AffRest1.png,,,,,,,,,,,,,,,,,,,,,,,,,0,0,0,0,0,28,28,3,,,,678.9051301,None,677.7218419999999,678.9218011,s,1,损害,l,1,0.6181532000000516,0.5468685000000733,gsy,f,19,2024_Apr_14_1015,mian,2021.2.3,60.00830514941717,
,,,,,,1,1,pic/flanker5.png,pic/flanker3.png,a,k,pic/AffRest1.png,,,,,,,,,,,,,,,,,,,,,,,,,0,0,0,0,0,29,29,4,,,,682.0717348999999,None,680.8882934999999,682.0883752,a,1,秀丽,k,1,0.4272548999999799,0.49121390000004794,gsy,f,19,2024_Apr_14_1015,mian,2021.2.3,60.00830514941717,
,,,,,,0,1,pic/flanker6.png,pic/flanker2.png,a,k,pic/AffRest1.png,,,,,,,,,,,,,,,,,,,,,,,,,0,0,0,0,0,30,30,2,,,,685.0384297,None,683.8549869000001,685.0549337,a,1,永恒,k,1,0.7921627999999146,0.5053565000000617,gsy,f,19,2024_Apr_14_1015,mian,2021.2.3,60.00830514941717,
,,,,,,0,0,pic/flanker6.png,pic/flanker2.png,a,l,pic/AffRest1.png,,,,,,,,,,,,,,,,,,,,,,,,,0,0,0,0,0,31,31,9,,,,688.2884125999999,None,687.1048159,688.3051045,a,1,忧虑,l,1,0.9878787000000102,0.478065099999867,gsy,f,19,2024_Apr_14_1015,mian,2021.2.3,60.00830514941717,
,,,,,,1,1,pic/flanker6.png,pic/flanker4.png,s,k,pic/AffRest1.png,,,,,,,,,,,,,,,,,,,,,,,,,0,0,0,0,0,32,32,46,,,,691.6550875,None,690.4716507999999,691.6717613999999,s,1,前进,k,1,0.501117400000112,0.557071599999972,gsy,f,19,2024_Apr_14_1015,mian,2021.2.3,60.00830514941717,
,,,,,,0,1,pic/flanker5.png,pic/flanker1.png,s,k,pic/AffRest1.png,,,,,,,,,,,,,,,,,,,,,,,,,0,0,0,0,0,33,33,64,,,,694.7884125999999,None,693.6049330999999,694.8051579999999,s,1,鲜艳,k,1,0.576730199999929,0.5347824000000401,gsy,f,19,2024_Apr_14_1015,mian,2021.2.3,60.00830514941717,
,,,,,,1,1,pic/flanker5.png,pic/flanker3.png,a,k,pic/AffRest1.png,,,,,,,,,,,,,,,,,,,,,,,,,0,0,0,0,0,34,34,12,,,,697.9717929000001,None,696.7883695,697.9884841999999,a,1,振作,k,1,0.7035166999999092,0.5975902999998652,gsy,f,19,2024_Apr_14_1015,mian,2021.2.3,60.00830514941717,
,,,,,,1,0,pic/flanker6.png,pic/flanker4.png,s,l,pic/AffRest1.png,,,,,,,,,,,,,,,,,,,,,,,,,0,0,0,0,0,35,35,21,,,,701.2884385,None,700.1050416999999,701.3049082,s,1,孤单,l,1,0.5071689999999762,0.5511191999999028,gsy,f,19,2024_Apr_14_1015,mian,2021.2.3,60.00830514941717,
,,,,,,0,0,pic/flanker5.png,pic/flanker1.png,s,l,pic/AffRest1.png,,,,,,,,,,,,,,,,,,,,,,,,,0,0,0,0,0,36,36,35,,,,704.2883752,None,703.1049080999999,704.3049587999999,s,1,悲观,l,1,0.6585892000000513,0.4691289999998389,gsy,f,19,2024_Apr_14_1015,mian,2021.2.3,60.00830514941717,
,,,,,,1,1,pic/flanker6.png,pic/flanker4.png,s,k,pic/AffRest1.png,,,,,,,,,,,,,,,,,,,,,,,,,0,0,0,0,0,37,37,38,,,,707.4716286999999,None,706.2880789999999,707.4884595000001,s,1,廉洁,k,1,0.643731900000148,0.5337856999999531,gsy,f,19,2024_Apr_14_1015,mian,2021.2.3,60.00830514941717,
,,,,,,0,1,pic/flanker5.png,pic/flanker1.png,s,k,pic/AffRest1.png,,,,,,,,,,,,,,,,,,,,,,,,,0,0,0,0,0,38,38,56,,,,710.6384969999999,None,709.4548207999999,710.6550516,s,1,雄厚,k,1,0.518892600000072,0.6366448000001128,gsy,f,19,2024_Apr_14_1015,mian,2021.2.3,60.00830514941717,
,,,,,,1,1,pic/flanker6.png,pic/flanker4.png,s,k,pic/AffRest1.png,,,,,,,,,,,,,,,,,,,,,,,,,0,0,0,0,0,39,39,54,,,,713.7216604,None,712.5382189,713.7381809999999,s,1,有利,k,1,0.6009329999999409,0.4472126999999091,gsy,f,19,2024_Apr_14_1015,mian,2021.2.3,60.00830514941717,
,,,,,,1,1,pic/flanker6.png,pic/flanker4.png,s,k,pic/AffRest1.png,,,,,,,,,,,,,,,,,,,,,,,,,0,0,0,0,0,40,40,22,,,,716.6716862999999,None,715.4884781999999,716.6882866999999,s,1,奉献,k,1,0.5267240000000584,0.49224690000005467,gsy,f,19,2024_Apr_14_1015,mian,2021.2.3,60.00830514941717,
,,,,,,0,0,pic/flanker5.png,pic/flanker1.png,s,l,pic/AffRest1.png,,,,,,,,,,,,,,,,,,,,,,,,,0,0,0,0,0,41,41,11,,,,719.7548380000001,None,718.5711690999999,719.7714192000001,s,1,胡涂,l,1,0.5227917999998226,0.38386190000005627,gsy,f,19,2024_Apr_14_1015,mian,2021.2.3,60.00830514941717,
,,,,,,0,0,pic/flanker5.png,pic/flanker1.png,s,l,pic/AffRest1.png,,,,,,,,,,,,,,,,,,,,,,,,,0,0,0,0,0,42,42,67,,,,722.6717318000001,None,721.4880588000001,722.6884611999999,s,1,怀疑,l,1,0.49277630000005956,0.39320950000001176,gsy,f,19,2024_Apr_14_1015,mian,2021.2.3,60.00830514941717,
,,,,,,1,0,pic/flanker5.png,pic/flanker3.png,a,l,pic/AffRest1.png,,,,,,,,,,,,,,,,,,,,,,,,,0,0,0,0,0,43,43,71,,,,725.4049318,None,724.2219740999999,725.4215107,a,1,杂乱,l,1,0.670197799999869,0.5029246999999941,gsy,f,19,2024_Apr_14_1015,mian,2021.2.3,60.00830514941717,
,,,,,,1,1,pic/flanker5.png,pic/flanker3.png,a,k,pic/AffRest1.png,,,,,,,,,,,,,,,,,,,,,,,,,0,0,0,0,0,44,44,20,,,,728.5550341999999,None,727.3712631999999,728.5715952,a,1,爽朗,k,1,0.5471969000000172,0.5827598999999282,gsy,f,19,2024_Apr_14_1015,mian,2021.2.3,60.00830514941717,
,,,,,,0,1,pic/flanker5.png,pic/flanker1.png,s,k,pic/AffRest1.png,,,,,,,,,,,,,,,,,,,,,,,,,0,0,0,0,0,45,45,72,,,,731.5380473,None,730.3543754,731.5547096999999,s,1,如愿,k,1,0.6386603999999352,0.4330474000000777,gsy,f,19,2024_Apr_14_1015,mian,2021.2.3,60.00830514941717,
,,,,,,0,1,pic/flanker5.png,pic/flanker1.png,s,k,pic/AffRest1.png,,,,,,,,,,,,,,,,,,,,,,,,,0,0,0,0,0,46,46,0,,,,734.5383838,None,733.3547885,734.5549093,s,1,吉祥,k,1,0.49984699999981785,0.38805279999996856,gsy,f,19,2024_Apr_14_1015,mian,2021.2.3,60.00830514941717,
,,,,,,0,1,pic/flanker6.png,pic/flanker2.png,a,k,pic/AffRest1.png,,,,,,,,,,,,,,,,,,,,,,,,,0,0,0,0,0,47,47,58,,,,737.3381738,None,736.1548696,737.3549859,a,1,俊秀,k,1,0.49194039999997585,0.3713691000000381,gsy,f,19,2024_Apr_14_1015,mian,2021.2.3,60.00830514941717,
,,,,,,0,1,pic/flanker5.png,pic/flanker1.png,s,k,pic/AffRest1.png,,,,,,,,,,,,,,,,,,,,,,,,,0,0,0,0,0,48,48,16,,,,740.2048973999999,None,739.0215438,740.221673,s,1,充裕,k,1,0.4486906999998155,0.44349880000004305,gsy,f,19,2024_Apr_14_1015,mian,2021.2.3,60.00830514941717,
,,,,,,0,1,pic/flanker6.png,pic/flanker2.png,a,k,pic/AffRest1.png,,,,,,,,,,,,,,,,,,,,,,,,,0,0,0,0,0,49,49,74,,,,743.1548891,None,741.9710855000001,743.1715747999999,a,1,正直,k,1,0.4784363999999641,0.5165572000000793,gsy,f,19,2024_Apr_14_1015,mian,2021.2.3,60.00830514941717,
,,,,,,0,0,pic/flanker5.png,pic/flanker1.png,s,l,pic/AffRest1.png,,,,,,,,,,,,,,,,,,,,,,,,,0,0,0,0,0,50,50,19,,,,746.0547938,None,744.8716982999999,746.0715800999999,s,1,伤心,l,1,0.848572699999977,0.41579780000006394,gsy,f,19,2024_Apr_14_1015,mian,2021.2.3,60.00830514941717,
,,,,,,1,0,pic/flanker5.png,pic/flanker3.png,a,l,pic/AffRest1.png,,,,,,,,,,,,,,,,,,,,,,,,,0,0,0,0,0,51,51,79,,,,749.1709969999999,None,747.9882029999999,749.1884153000001,a,1,禁止,l,1,0.7205587000000833,0.5225209999998697,gsy,f,19,2024_Apr_14_1015,mian,2021.2.3,60.00830514941717,
,,,,,,0,0,pic/flanker6.png,pic/flanker2.png,a,l,pic/AffRest1.png,,,,,,,,,,,,,,,,,,,,,,,,,0,0,0,0,0,52,52,17,,,,752.4383175,None,751.254844,752.4550085999999,a,1,闷热,l,1,0.6832434000000376,0.4671163999998953,gsy,f,19,2024_Apr_14_1015,mian,2021.2.3,60.00830514941717,
,,,,,,0,1,pic/flanker5.png,pic/flanker1.png,s,k,pic/AffRest1.png,,,,,,,,,,,,,,,,,,,,,,,,,0,0,0,0,0,53,53,24,,,,755.6382593000001,None,754.4549901,755.6549849999999,s,1,舒畅,k,1,0.6043763000000126,0.3737185000002228,gsy,f,19,2024_Apr_14_1015,mian,2021.2.3,60.00830514941717,
,,,,,,1,1,pic/flanker6.png,pic/flanker4.png,s,k,pic/AffRest1.png,,,,,,,,,,,,,,,,,,,,,,,,,0,0,0,0,0,54,54,78,,,,758.6209827,None,757.4378892,758.6376409,s,1,旺盛,k,1,0.4893821000000571,0.7259088000000702,gsy,f,19,2024_Apr_14_1015,mian,2021.2.3,60.00830514941717,
,,,,,,0,0,pic/flanker6.png,pic/flanker2.png,a,l,pic/AffRest1.png,,,,,,,,,,,,,,,,,,,,,,,,,0,0,0,0,0,55,55,57,,,,761.8717323999999,None,760.6882453000001,761.8883401999999,a,1,嘲笑,l,1,0.5161213999999745,0.3642245000000912,gsy,f,19,2024_Apr_14_1015,mian,2021.2.3,60.00830514941717,
,,,,,,0,0,pic/flanker6.png,pic/flanker2.png,a,l,pic/AffRest1.png,,,,,,,,,,,,,,,,,,,,,,,,,0,0,0,0,0,56,56,49,,,,764.7048405999999,None,763.5215006000001,764.7215593999999,a,1,穷苦,l,1,0.6315948000001299,0.4610482000000502,gsy,f,19,2024_Apr_14_1015,mian,2021.2.3,60.00830514941717,
,,,,,,1,0,pic/flanker5.png,pic/flanker3.png,a,l,pic/AffRest1.png,,,,,,,,,,,,,,,,,,,,,,,,,0,0,0,0,0,57,57,63,,,,767.6880116,None,766.5044768999999,767.7045859,a,1,慌忙,l,1,0.40970289999995657,0.43824960000029023,gsy,f,19,2024_Apr_14_1015,mian,2021.2.3,60.00830514941717,
,,,,,,1,0,pic/flanker6.png,pic/flanker4.png,s,l,pic/AffRest1.png,,,,,,,,,,,,,,,,,,,,,,,,,0,0,0,0,0,58,58,61,,,,770.4380267999998,None,769.2550001000002,770.4548213,s,1,焦躁,l,1,0.4638739000001806,0.5017297999997936,gsy,f,19,2024_Apr_14_1015,mian,2021.2.3,60.00830514941717,
,,,,,,0,1,pic/flanker6.png,pic/flanker2.png,a,k,pic/AffRest1.png,,,,,,,,,,,,,,,,,,,,,,,,,0,0,0,0,0,59,59,50,,,,773.3050371000002,None,772.1210481,773.3215874,a,1,赞成,k,1,0.49332909999975527,0.4854515000001811,gsy,f,19,2024_Apr_14_1015,mian,2021.2.3,60.00830514941717,
,,,,,,0,0,pic/flanker5.png,pic/flanker1.png,s,l,pic/AffRest1.png,,,,,,,,,,,,,,,,,,,,,,,,,0,0,0,0,0,60,60,51,,,,776.28853,None,775.1048102000002,776.3051609000001,s,1,处罚,l,1,0.8009247999998479,0.4662386999998489,gsy,f,19,2024_Apr_14_1015,mian,2021.2.3,60.00830514941717,
,,,,,,0,0,pic/flanker6.png,pic/flanker2.png,a,l,pic/AffRest1.png,,,,,,,,,,,,,,,,,,,,,,,,,0,0,0,0,0,61,61,25,,,,779.6216548999998,None,778.4382578000002,779.6384239000001,a,1,烦恼,l,1,0.5594264000001203,0.39621519999991506,gsy,f,19,2024_Apr_14_1015,mian,2021.2.3,60.00830514941717,
,,,,,,0,1,pic/flanker6.png,pic/flanker2.png,a,k,pic/AffRest1.png,,,,,,,,,,,,,,,,,,,,,,,,,0,0,0,0,0,62,62,10,,,,782.5882700999998,None,781.4053711999998,782.6049381,a,1,珍藏,k,1,0.6371149000001424,0.38700340000013966,gsy,f,19,2024_Apr_14_1015,mian,2021.2.3,60.00830514941717,
,,,,,,1,1,pic/flanker6.png,pic/flanker4.png,s,k,pic/AffRest1.png,,,,,,,,,,,,,,,,,,,,,,,,,0,0,0,0,0,63,63,70,,,,785.4714038999998,None,784.2879228999998,785.4879930999998,s,1,顽强,k,1,0.6965219000003344,0.5934529000001021,gsy,f,19,2024_Apr_14_1015,mian,2021.2.3,60.00830514941717,
,,,,,,1,0,pic/flanker6.png,pic/flanker4.png,s,l,pic/AffRest1.png,,,,,,,,,,,,,,,,,,,,,,,,,0,0,0,0,0,64,64,13,,,,788.6209534000002,None,787.4382161999999,788.6383254,s,1,郁闷,l,1,0.6405426000001171,0.4758292999999867,gsy,f,19,2024_Apr_14_1015,mian,2021.2.3,60.00830514941717,
,,,,,,1,0,pic/flanker5.png,pic/flanker3.png,a,l,pic/AffRest1.png,,,,,,,,,,,,,,,,,,,,,,,,,0,0,0,0,0,65,65,47,,,,791.5877444,None,790.4043849000002,791.6046783999998,a,1,争吵,l,1,0.7464146000002074,0.6209736999999222,gsy,f,19,2024_Apr_14_1015,mian,2021.2.3,60.00830514941717,
,,,,,,1,0,pic/flanker5.png,pic/flanker3.png,a,l,pic/AffRest1.png,,,,,,,,,,,,,,,,,,,,,,,,,0,0,0,0,0,66,66,39,,,,794.8384235000001,None,793.654464,794.8549645999999,a,1,沮丧,l,1,0.9035409000002801,0.47124510000003283,gsy,f,19,2024_Apr_14_1015,mian,2021.2.3,60.00830514941717,
,,,,,,0,1,pic/flanker5.png,pic/flanker1.png,s,k,pic/AffRest1.png,,,,,,,,,,,,,,,,,,,,,,,,,0,0,0,0,0,67,67,48,,,,798.1710264999999,None,796.9877484000001,798.1877051999998,s,1,典雅,k,1,0.9551258999999845,0.5459504000000379,gsy,f,19,2024_Apr_14_1015,mian,2021.2.3,60.00830514941717,
,,,,,,1,0,pic/flanker5.png,pic/flanker3.png,a,l,pic/AffRest1.png,,,,,,,,,,,,,,,,,,,,,,,,,0,0,0,0,0,68,68,7,,,,801.6215893000001,None,800.4379741,801.6382741,a,1,堵塞,l,1,0.48053410000011354,0.48656479999999647,gsy,f,19,2024_Apr_14_1015,mian,2021.2.3,60.00830514941717,
,,,,,,0,0,pic/flanker6.png,pic/flanker2.png,a,l,pic/AffRest1.png,,,,,,,,,,,,,,,,,,,,,,,,,0,0,0,0,0,69,69,73,,,,804.5047112999998,None,803.3215081000001,804.5215206,a,1,别扭,l,1,0.9901252999998178,0.44070099999999,gsy,f,19,2024_Apr_14_1015,mian,2021.2.3,60.00830514941717,
,,,,,,1,1,pic/flanker5.png,pic/flanker3.png,a,k,pic/AffRest1.png,,,,,,,,,,,,,,,,,,,,,,,,,0,0,0,0,0,70,70,60,,,,807.8048308,None,806.6217097000001,807.8215412000002,a,1,生动,k,1,0.521698699999888,0.4624869999997827,gsy,f,19,2024_Apr_14_1015,mian,2021.2.3,60.00830514941717,
,,,,,,1,0,pic/flanker6.png,pic/flanker4.png,s,l,pic/AffRest1.png,,,,,,,,,,,,,,,,,,,,,,,,,0,0,0,0,0,71,71,77,,,,810.7382543000001,None,809.5546115,810.7548235000002,s,1,心慌,l,1,0.8358422999999675,0.7516605999999229,gsy,f,19,2024_Apr_14_1015,mian,2021.2.3,60.00830514941717,
,,,,,,0,1,pic/flanker6.png,pic/flanker2.png,a,k,pic/AffRest1.png,,,,,,,,,,,,,,,,,,,,,,,,,0,0,0,0,0,72,72,42,,,,814.1875106999998,None,813.0041733999999,814.2040189000002,a,1,留恋,k,1,0.5405095000000983,0.43069059999970705,gsy,f,19,2024_Apr_14_1015,mian,2021.2.3,60.00830514941717,
,,,,,,1,0,pic/flanker6.png,pic/flanker4.png,s,l,pic/AffRest1.png,,,,,,,,,,,,,,,,,,,,,,,,,0,0,0,0,0,73,73,53,,,,817.0381722,None,815.8546011999999,817.0547454999999,s,1,丢失,l,1,0.6864682000000357,0.6849022999999761,gsy,f,19,2024_Apr_14_1015,mian,2021.2.3,60.00830514941717,
,,,,,,0,1,pic/flanker6.png,pic/flanker2.png,a,k,pic/AffRest1.png,,,,,,,,,,,,,,,,,,,,,,,,,0,0,0,0,0,74,74,18,,,,820.2709667000001,None,819.0875585000001,820.2879123999999,a,1,富丽,k,1,0.5019280000001345,0.3668677000000571,gsy,f,19,2024_Apr_14_1015,mian,2021.2.3,60.00830514941717,
,,,,,,1,0,pic/flanker6.png,pic/flanker4.png,s,l,pic/AffRest1.png,,,,,,,,,,,,,,,,,,,,,,,,,0,0,0,0,0,75,75,5,,,,823.2050876000001,None,822.0215599,823.2216222999998,s,1,自卑,l,1,0.6003234999998313,0.5874332000003051,gsy,f,19,2024_Apr_14_1015,mian,2021.2.3,60.00830514941717,
,,,,,,1,0,pic/flanker5.png,pic/flanker3.png,a,l,pic/AffRest1.png,,,,,,,,,,,,,,,,,,,,,,,,,0,0,0,0,0,76,76,31,,,,826.4715823999998,None,825.2881435000002,826.4882452999998,a,1,落后,l,1,0.5257619999997587,0.4896982999998727,gsy,f,19,2024_Apr_14_1015,mian,2021.2.3,60.00830514941717,
,,,,,,1,1,pic/flanker6.png,pic/flanker4.png,s,k,pic/AffRest1.png,,,,,,,,,,,,,,,,,,,,,,,,,0,0,0,0,0,77,77,14,,,,829.3383449999999,None,828.154925,829.3551780999999,s,1,清秀,k,1,0.6080771000001732,0.4703050000002804,gsy,f,19,2024_Apr_14_1015,mian,2021.2.3,60.00830514941717,
,,,,,,1,1,pic/flanker5.png,pic/flanker3.png,a,k,pic/AffRest1.png,,,,,,,,,,,,,,,,,,,,,,,,,0,0,0,0,0,78,78,52,,,,832.3214013999998,None,831.1380523,832.3381625999998,a,1,畅销,k,1,0.5181598999997732,0.4387610999997378,gsy,f,19,2024_Apr_14_1015,mian,2021.2.3,60.00830514941717,
,,,,,,0,0,pic/flanker6.png,pic/flanker2.png,a,l,pic/AffRest1.png,,,,,,,,,,,,,,,,,,,,,,,,,0,0,0,0,0,79,79,65,,,,835.3384118000001,None,834.1547355999999,835.3551052999999,a,1,轻率,l,1,1.3531060999998772,0.4088899999997011,gsy,f,19,2024_Apr_14_1015,mian,2021.2.3,60.00830514941717,
,,,,,,,,,,,,pic/AffRest1.png,,,,,,,,,,,,,,,,,,,,,,,,,0,0,0,0,,,,,,,,,,,,,,,,,,,gsy,f,19,2024_Apr_14_1015,mian,2021.2.3,60.00830514941717,
,,,,,,0,1,pic/flanker6.png,pic/flanker2.png,a,k,pic/AffRest2.png,,,,,,,,,,,,,,,,,,,,,,,,,0,1,1,1,0,0,0,34,,,,848.3550542,None,847.1649196000001,848.3717029000002,a,1,热切,k,1,0.5078241000001071,0.4704018000002179,gsy,f,19,2024_Apr_14_1015,mian,2021.2.3,60.00830514941717,
,,,,,,1,0,pic/flanker6.png,pic/flanker4.png,s,l,pic/AffRest2.png,,,,,,,,,,,,,,,,,,,,,,,,,0,1,1,1,0,1,1,13,,,,851.3213785,None,850.1378031000002,851.3381519000002,s,1,孤单,l,1,0.5688078999996833,0.7067594000000099,gsy,f,19,2024_Apr_14_1015,mian,2021.2.3,60.00830514941717,
,,,,,,0,0,pic/flanker5.png,pic/flanker1.png,s,l,pic/AffRest2.png,,,,,,,,,,,,,,,,,,,,,,,,,0,1,1,1,0,2,2,11,,,,854.4548711,None,853.2713812999998,854.4715155000001,s,1,沮丧,k,0,0.4282956000001832,0.3969670000001315,gsy,f,19,2024_Apr_14_1015,mian,2021.2.3,60.00830514941717,
,,,,,,0,1,pic/flanker6.png,pic/flanker2.png,a,k,pic/AffRest2.png,,,,,,,,,,,,,,,,,,,,,,,,,0,1,1,1,0,3,3,66,,,,857.3047057000001,None,856.1215636999998,857.3214292,a,1,公平,k,1,0.5430124999998043,0.3779091999999764,gsy,f,19,2024_Apr_14_1015,mian,2021.2.3,60.00830514941717,
,,,,,,0,1,pic/flanker5.png,pic/flanker1.png,s,k,pic/AffRest2.png,,,,,,,,,,,,,,,,,,,,,,,,,0,1,1,1,0,4,4,0,,,,860.2883705000002,None,859.1046868999999,860.3050394999998,s,1,如愿,k,1,0.5151694000001044,0.3985376000000542,gsy,f,19,2024_Apr_14_1015,mian,2021.2.3,60.00830514941717,
,,,,,,1,1,pic/flanker6.png,pic/flanker4.png,s,k,pic/AffRest2.png,,,,,,,,,,,,,,,,,,,,,,,,,0,1,1,1,0,5,5,38,,,,863.2213015999998,None,862.0381319,863.238083,s,1,富丽,k,1,0.5339337000000342,0.4910259000002952,gsy,f,19,2024_Apr_14_1015,mian,2021.2.3,60.00830514941717,
,,,,,,1,0,pic/flanker5.png,pic/flanker3.png,a,l,pic/AffRest2.png,,,,,,,,,,,,,,,,,,,,,,,,,0,1,1,1,0,6,6,71,,,,866.2046747000002,None,865.0213225999998,866.2213402999998,a,1,鲁莽,l,1,0.5188999000001786,0.45702080000000933,gsy,f,19,2024_Apr_14_1015,mian,2021.2.3,60.00830514941717,
,,,,,,1,1,pic/flanker6.png,pic/flanker4.png,s,k,pic/AffRest2.png,,,,,,,,,,,,,,,,,,,,,,,,,0,1,1,1,0,7,7,78,,,,869.0548153000002,None,867.8713507,869.0713447999999,s,1,敬佩,k,1,0.6587733999999728,0.4382447000002685,gsy,f,19,2024_Apr_14_1015,mian,2021.2.3,60.00830514941717,
,,,,,,1,0,pic/flanker5.png,pic/flanker3.png,a,l,pic/AffRest2.png,,,,,,,,,,,,,,,,,,,,,,,,,0,1,1,1,0,8,8,15,,,,872.0880493000002,None,870.9045742999999,872.1047718000002,a,1,损害,l,1,0.5010231000001113,0.5949376000003213,gsy,f,19,2024_Apr_14_1015,mian,2021.2.3,60.00830514941717,
,,,,,,0,1,pic/flanker5.png,pic/flanker1.png,s,k,pic/AffRest2.png,,,,,,,,,,,,,,,,,,,,,,,,,0,1,1,1,0,9,9,72,,,,875.1047615999998,None,873.9214260000001,875.1213825000002,s,1,鲜艳,k,1,0.4894784999996773,0.3945632999998452,gsy,f,19,2024_Apr_14_1015,mian,2021.2.3,60.00830514941717,
,,,,,,1,1,pic/flanker5.png,pic/flanker3.png,a,k,pic/AffRest2.png,,,,,,,,,,,,,,,,,,,,,,,,,0,1,1,1,0,10,10,60,,,,877.8381876000001,None,876.654851,877.8548638,a,1,奉献,k,1,0.42676920000030805,0.4726100000002589,gsy,f,19,2024_Apr_14_1015,mian,2021.2.3,60.00830514941717,
,,,,,,1,0,pic/flanker6.png,pic/flanker4.png,s,l,pic/AffRest2.png,,,,,,,,,,,,,,,,,,,,,,,,,0,1,1,1,0,11,11,69,,,,880.7548505000002,None,879.5713646000002,880.7714414999998,s,1,烦恼,l,1,0.6431568999996671,0.6955627000002096,gsy,f,19,2024_Apr_14_1015,mian,2021.2.3,60.00830514941717,
,,,,,,1,0,pic/flanker5.png,pic/flanker3.png,a,l,pic/AffRest2.png,,,,,,,,,,,,,,,,,,,,,,,,,0,1,1,1,0,12,12,63,,,,884.0549675,None,882.8712616,884.0715594999999,a,1,堵塞,l,1,0.6127670000000762,0.4460583999998562,gsy,f,19,2024_Apr_14_1015,mian,2021.2.3,60.00830514941717,
,,,,,,1,1,pic/flanker5.png,pic/flanker3.png,a,k,pic/AffRest2.png,,,,,,,,,,,,,,,,,,,,,,,,,0,1,1,1,0,13,13,4,,,,886.9881732000001,None,885.8046268,887.0048141999998,a,1,享受,k,1,0.5597702000000027,0.4599908999998661,gsy,f,19,2024_Apr_14_1015,mian,2021.2.3,60.00830514941717,
,,,,,,1,0,pic/flanker5.png,pic/flanker3.png,a,l,pic/AffRest2.png,,,,,,,,,,,,,,,,,,,,,,,,,0,1,1,1,0,14,14,79,,,,890.0540695000002,None,888.8711823000001,890.0707636,a,1,黑暗,l,1,0.6473091000002569,0.46399590000009994,gsy,f,19,2024_Apr_14_1015,mian,2021.2.3,60.00830514941717,
,,,,,,0,0,pic/flanker6.png,pic/flanker2.png,a,l,pic/AffRest2.png,,,,,,,,,,,,,,,,,,,,,,,,,0,1,1,1,0,15,15,73,,,,893.0879391000001,None,891.9045429999999,893.1045416,a,1,轻率,l,1,0.6358728999998675,0.5518889999998464,gsy,f,19,2024_Apr_14_1015,mian,2021.2.3,60.00830514941717,
,,,,,,0,1,pic/flanker5.png,pic/flanker1.png,s,k,pic/AffRest2.png,,,,,,,,,,,,,,,,,,,,,,,,,0,1,1,1,0,16,16,56,,,,896.2381323000002,None,895.0547064,896.2546344999998,s,1,豪放,k,1,0.5566118000001552,0.4636406999998144,gsy,f,19,2024_Apr_14_1015,mian,2021.2.3,60.00830514941717,
,,,,,,1,1,pic/flanker5.png,pic/flanker3.png,a,k,pic/AffRest2.png,,,,,,,,,,,,,,,,,,,,,,,,,0,1,1,1,0,17,17,36,,,,899.1381054000001,None,897.9544761999998,899.1547718999998,a,1,诚恳,k,1,0.5870687999999973,0.5786851999996543,gsy,f,19,2024_Apr_14_1015,mian,2021.2.3,60.00830514941717,
,,,,,,0,1,pic/flanker5.png,pic/flanker1.png,s,k,pic/AffRest2.png,,,,,,,,,,,,,,,,,,,,,,,,,0,1,1,1,0,18,18,48,,,,902.3045641000001,None,901.1213696000002,902.3214353999999,s,1,爽朗,k,1,0.7115140999999312,0.4774195999998483,gsy,f,19,2024_Apr_14_1015,mian,2021.2.3,60.00830514941717,
,,,,,,1,1,pic/flanker6.png,pic/flanker4.png,s,k,pic/AffRest2.png,,,,,,,,,,,,,,,,,,,,,,,,,0,1,1,1,0,19,19,22,,,,905.5213102999999,None,904.3380273999999,905.5380982999998,s,1,优雅,k,1,0.5907521000003726,0.5145659999998315,gsy,f,19,2024_Apr_14_1015,mian,2021.2.3,60.00830514941717,
,,,,,,0,1,pic/flanker6.png,pic/flanker2.png,a,k,pic/AffRest2.png,,,,,,,,,,,,,,,,,,,,,,,,,0,1,1,1,0,20,20,74,,,,908.6379669999999,None,907.4548993999999,908.6547072000001,a,1,俊秀,k,1,0.4629211999999825,0.43246840000028897,gsy,f,19,2024_Apr_14_1015,mian,2021.2.3,60.00830514941717,
,,,,,,1,1,pic/flanker6.png,pic/flanker4.png,s,k,pic/AffRest2.png,,,,,,,,,,,,,,,,,,,,,,,,,0,1,1,1,0,21,21,14,,,,911.5047576999998,None,910.3212317999999,911.5213706000002,s,1,旺盛,k,1,0.4153792000001886,0.5037714000000051,gsy,f,19,2024_Apr_14_1015,mian,2021.2.3,60.00830514941717,
,,,,,,0,0,pic/flanker5.png,pic/flanker1.png,s,l,pic/AffRest2.png,,,,,,,,,,,,,,,,,,,,,,,,,0,1,1,1,0,22,22,75,,,,914.3378856000002,None,913.1545726000002,914.3546230999998,s,1,焦躁,l,1,0.4948367000001781,0.42764450000004217,gsy,f,19,2024_Apr_14_1015,mian,2021.2.3,60.00830514941717,
,,,,,,1,1,pic/flanker5.png,pic/flanker3.png,a,k,pic/AffRest2.png,,,,,,,,,,,,,,,,,,,,,,,,,0,1,1,1,0,23,23,68,,,,917.2879685999999,None,916.1044453000002,917.3045389000001,a,1,生动,k,1,0.42583290000038687,0.4496334000000388,gsy,f,19,2024_Apr_14_1015,mian,2021.2.3,60.00830514941717,
,,,,,,1,0,pic/flanker6.png,pic/flanker4.png,s,l,pic/AffRest2.png,,,,,,,,,,,,,,,,,,,,,,,,,0,1,1,1,0,24,24,77,,,,920.0546823000002,None,918.8711572999998,920.0712836999999,s,1,排斥,k,0,0.3362213000000338,0.5310189000001628,gsy,f,19,2024_Apr_14_1015,mian,2021.2.3,60.00830514941717,
,,,,,,1,1,pic/flanker6.png,pic/flanker4.png,s,k,pic/AffRest2.png,,,,,,,,,,,,,,,,,,,,,,,,,0,1,1,1,0,25,25,6,,,,923.0047189999998,None,921.8214022,923.0212522999998,s,1,清秀,k,1,0.5161847999997917,0.457405000000108,gsy,f,19,2024_Apr_14_1015,mian,2021.2.3,60.00830514941717,
,,,,,,0,0,pic/flanker5.png,pic/flanker1.png,s,l,pic/AffRest2.png,,,,,,,,,,,,,,,,,,,,,,,,,0,1,1,1,0,26,26,59,,,,926.0213538999999,None,924.8378089,926.0381141999999,s,1,忧虑,l,1,0.46609639999996944,0.45007499999974243,gsy,f,19,2024_Apr_14_1015,mian,2021.2.3,60.00830514941717,
,,,,,,0,0,pic/flanker6.png,pic/flanker2.png,a,l,pic/AffRest2.png,,,,,,,,,,,,,,,,,,,,,,,,,0,1,1,1,0,27,27,17,,,,928.9048271999998,None,927.7213088999999,928.9215929,a,1,穷苦,l,1,0.5424142000001666,0.3723339999996824,gsy,f,19,2024_Apr_14_1015,mian,2021.2.3,60.00830514941717,
,,,,,,0,1,pic/flanker5.png,pic/flanker1.png,s,k,pic/AffRest2.png,,,,,,,,,,,,,,,,,,,,,,,,,0,1,1,1,0,28,28,8,,,,931.7708086999999,None,930.5879477999999,931.7872875999999,s,1,顽强,k,1,0.5545680000000175,0.4093795999997383,gsy,f,19,2024_Apr_14_1015,mian,2021.2.3,60.00830514941717,
,,,,,,1,1,pic/flanker5.png,pic/flanker3.png,a,k,pic/AffRest2.png,,,,,,,,,,,,,,,,,,,,,,,,,0,1,1,1,0,29,29,44,,,,934.6380425,None,933.4549709999999,934.6547192999999,a,1,赞成,k,1,0.6786007999999129,0.47150660000033895,gsy,f,19,2024_Apr_14_1015,mian,2021.2.3,60.00830514941717,
,,,,,,1,0,pic/flanker6.png,pic/flanker4.png,s,l,pic/AffRest2.png,,,,,,,,,,,,,,,,,,,,,,,,,0,1,1,1,0,30,30,5,,,,937.6540195999999,None,936.4711312000002,937.6707165,s,1,罚款,l,1,0.4897870999998304,0.4730147999998735,gsy,f,19,2024_Apr_14_1015,mian,2021.2.3,60.00830514941717,
,,,,,,0,0,pic/flanker5.png,pic/flanker1.png,s,l,pic/AffRest2.png,,,,,,,,,,,,,,,,,,,,,,,,,0,1,1,1,0,31,31,19,,,,940.6545417,None,939.4713875999998,940.6712412999998,s,1,悲观,l,1,0.7107235999997101,0.49213519999966593,gsy,f,19,2024_Apr_14_1015,mian,2021.2.3,60.00830514941717,
,,,,,,0,0,pic/flanker5.png,pic/flanker1.png,s,l,pic/AffRest2.png,,,,,,,,,,,,,,,,,,,,,,,,,0,1,1,1,0,32,32,43,,,,943.7372312,None,942.5543936000001,943.7538040000002,s,1,失意,l,1,0.5791656999999759,0.9718783999996958,gsy,f,19,2024_Apr_14_1015,mian,2021.2.3,60.00830514941717,
,,,,,,1,1,pic/flanker5.png,pic/flanker3.png,a,k,pic/AffRest2.png,,,,,,,,,,,,,,,,,,,,,,,,,0,1,1,1,0,33,33,76,,,,947.2210745,None,946.0377121999998,947.2372972000001,a,1,典雅,k,1,0.48469139999997424,0.5033278999999311,gsy,f,19,2024_Apr_14_1015,mian,2021.2.3,60.00830514941717,
,,,,,,0,1,pic/flanker6.png,pic/flanker2.png,a,k,pic/AffRest2.png,,,,,,,,,,,,,,,,,,,,,,,,,0,1,1,1,0,34,34,2,,,,950.2211896000001,None,949.0380170000001,950.2378421999999,a,1,振作,k,1,0.7183976999999686,0.40763349999997445,gsy,f,19,2024_Apr_14_1015,mian,2021.2.3,60.00830514941717,
,,,,,,1,0,pic/flanker6.png,pic/flanker4.png,s,l,pic/AffRest2.png,,,,,,,,,,,,,,,,,,,,,,,,,0,1,1,1,0,35,35,61,,,,953.3545228,None,952.1712811,953.3711818999998,s,1,怀疑,l,1,0.7001436999998987,0.475979499999994,gsy,f,19,2024_Apr_14_1015,mian,2021.2.3,60.00830514941717,
,,,,,,0,0,pic/flanker5.png,pic/flanker1.png,s,l,pic/AffRest2.png,,,,,,,,,,,,,,,,,,,,,,,,,0,1,1,1,0,36,36,3,,,,956.387289,None,955.2043744999999,956.4044883999998,s,1,浪费,l,1,0.5449892999999975,0.5164374000000862,gsy,f,19,2024_Apr_14_1015,mian,2021.2.3,60.00830514941717,
,,,,,,1,1,pic/flanker6.png,pic/flanker4.png,s,k,pic/AffRest2.png,,,,,,,,,,,,,,,,,,,,,,,,,0,1,1,1,0,37,37,30,,,,959.5211760999998,None,958.3373162999999,959.5379477999998,s,1,充裕,k,1,0.4623626999996304,0.5135787000003802,gsy,f,19,2024_Apr_14_1015,mian,2021.2.3,60.00830514941717,
,,,,,,0,0,pic/flanker6.png,pic/flanker2.png,a,l,pic/AffRest2.png,,,,,,,,,,,,,,,,,,,,,,,,,0,1,1,1,0,38,38,33,,,,962.4878007999998,None,961.3043464,962.5044842999998,a,1,懒惰,l,1,0.514567299999726,0.6166720000001078,gsy,f,19,2024_Apr_14_1015,mian,2021.2.3,60.00830514941717,
,,,,,,1,0,pic/flanker6.png,pic/flanker4.png,s,l,pic/AffRest2.png,,,,,,,,,,,,,,,,,,,,,,,,,0,1,1,1,0,39,39,29,,,,965.6706901,None,964.4879837999999,965.6873496999999,s,1,冷笑,l,1,0.7213203999999678,0.5023970000002009,gsy,f,19,2024_Apr_14_1015,mian,2021.2.3,60.00830514941717,
,,,,,,0,1,pic/flanker6.png,pic/flanker2.png,a,k,pic/AffRest2.png,,,,,,,,,,,,,,,,,,,,,,,,,0,1,1,1,0,40,40,50,,,,968.9379793,None,967.7549898,968.9546776,a,1,富足,k,1,0.48256720000017594,0.3577504999998382,gsy,f,19,2024_Apr_14_1015,mian,2021.2.3,60.00830514941717,
,,,,,,0,1,pic/flanker5.png,pic/flanker1.png,s,k,pic/AffRest2.png,,,,,,,,,,,,,,,,,,,,,,,,,0,1,1,1,0,41,41,40,,,,971.8210437999999,None,970.6380053999999,971.8377370999999,s,1,吉祥,k,1,0.45440000000007785,0.4184109000002536,gsy,f,19,2024_Apr_14_1015,mian,2021.2.3,60.00830514941717,
,,,,,,0,0,pic/flanker6.png,pic/flanker2.png,a,l,pic/AffRest2.png,,,,,,,,,,,,,,,,,,,,,,,,,0,1,1,1,0,42,42,9,,,,974.6878518999999,None,973.5045349,974.7044954999999,a,1,缺乏,l,1,0.6701145000001816,0.37685070000043197,gsy,f,19,2024_Apr_14_1015,mian,2021.2.3,60.00830514941717,
,,,,,,0,0,pic/flanker6.png,pic/flanker2.png,a,l,pic/AffRest2.png,,,,,,,,,,,,,,,,,,,,,,,,,0,1,1,1,0,43,43,41,,,,977.6711981999999,None,976.4880946000001,977.6873305000001,a,1,闷热,l,1,0.5584397999996327,0.37523559999999634,gsy,f,19,2024_Apr_14_1015,mian,2021.2.3,60.00830514941717,
,,,,,,1,0,pic/flanker5.png,pic/flanker3.png,a,l,pic/AffRest2.png,,,,,,,,,,,,,,,,,,,,,,,,,0,1,1,1,0,44,44,55,,,,980.6045575999999,None,979.4211802000002,980.6212124000001,a,1,厌恶,l,1,0.5020669000000453,0.6372298000001138,gsy,f,19,2024_Apr_14_1015,mian,2021.2.3,60.00830514941717,
,,,,,,0,1,pic/flanker6.png,pic/flanker2.png,a,k,pic/AffRest2.png,,,,,,,,,,,,,,,,,,,,,,,,,0,1,1,1,0,45,45,10,,,,983.6540585999999,None,982.4711267,983.6707588000002,a,1,精致,k,1,0.47111999999970067,0.40191460000005463,gsy,f,19,2024_Apr_14_1015,mian,2021.2.3,60.00830514941717,
,,,,,,1,1,pic/flanker6.png,pic/flanker4.png,s,k,pic/AffRest2.png,,,,,,,,,,,,,,,,,,,,,,,,,0,1,1,1,0,46,46,62,,,,986.5379596999999,None,985.3551065999998,986.554601,s,1,畅销,k,1,0.5472703999998885,0.5775814999997237,gsy,f,19,2024_Apr_14_1015,mian,2021.2.3,60.00830514941717,
,,,,,,1,0,pic/flanker6.png,pic/flanker4.png,s,l,pic/AffRest2.png,,,,,,,,,,,,,,,,,,,,,,,,,0,1,1,1,0,47,47,53,,,,989.7207157,None,988.5373152999998,989.7372527,s,1,伤心,l,1,0.4763629000003675,0.4939228999996885,gsy,f,19,2024_Apr_14_1015,mian,2021.2.3,60.00830514941717,
,,,,,,1,0,pic/flanker5.png,pic/flanker3.png,a,l,pic/AffRest2.png,,,,,,,,,,,,,,,,,,,,,,,,,0,1,1,1,0,48,48,47,,,,992.5878495999998,None,991.4044098000002,992.6045230000002,a,1,消沉,l,1,0.6763323999998647,0.47490879999986646,gsy,f,19,2024_Apr_14_1015,mian,2021.2.3,60.00830514941717,
,,,,,,0,1,pic/flanker6.png,pic/flanker2.png,a,k,pic/AffRest2.png,,,,,,,,,,,,,,,,,,,,,,,,,0,1,1,1,0,49,49,58,,,,995.6880646000002,None,994.5046418999998,995.7046263,a,1,廉洁,k,1,0.5583710999999312,0.4097044999998616,gsy,f,19,2024_Apr_14_1015,mian,2021.2.3,60.00830514941717,
,,,,,,0,0,pic/flanker5.png,pic/flanker1.png,s,l,pic/AffRest2.png,,,,,,,,,,,,,,,,,,,,,,,,,0,1,1,1,0,50,50,51,,,,998.6045218000002,None,997.4211088999998,998.6210767,s,1,争吵,l,1,0.521338100000321,0.6452882000003228,gsy,f,19,2024_Apr_14_1015,mian,2021.2.3,60.00830514941717,
,,,,,,0,1,pic/flanker6.png,pic/flanker2.png,a,k,pic/AffRest2.png,,,,,,,,,,,,,,,,,,,,,,,,,0,1,1,1,0,51,51,26,,,,1001.6213151999998,None,1000.4378894999998,1001.6379236999999,a,1,秀丽,k,1,0.5333436999999321,0.3918558000000303,gsy,f,19,2024_Apr_14_1015,mian,2021.2.3,60.00830514941717,
,,,,,,1,0,pic/flanker5.png,pic/flanker3.png,a,l,pic/AffRest2.png,,,,,,,,,,,,,,,,,,,,,,,,,0,1,1,1,0,52,52,31,,,,1004.4041516,None,1003.2203916000001,1004.4207967,a,1,杂乱,l,1,0.43629079999982423,1.2274896999997509,gsy,f,19,2024_Apr_14_1015,mian,2021.2.3,60.00830514941717,
,,,,,,0,0,pic/flanker6.png,pic/flanker2.png,a,l,pic/AffRest2.png,,,,,,,,,,,,,,,,,,,,,,,,,0,1,1,1,0,53,53,65,,,,1007.9872495000002,None,1006.8045705000002,1008.0045474000001,a,1,假冒,l,1,0.5447442999998202,0.47607220000008965,gsy,f,19,2024_Apr_14_1015,mian,2021.2.3,60.00830514941717,
,,,,,,1,0,pic/flanker5.png,pic/flanker3.png,a,l,pic/AffRest2.png,,,,,,,,,,,,,,,,,,,,,,,,,0,1,1,1,0,54,54,7,,,,1010.9043877000001,None,1009.7210950000001,1010.9211601999998,a,1,嘲笑,l,1,0.47823990000006233,0.6053148000000874,gsy,f,19,2024_Apr_14_1015,mian,2021.2.3,60.00830514941717,
,,,,,,1,1,pic/flanker6.png,pic/flanker4.png,s,k,pic/AffRest2.png,,,,,,,,,,,,,,,,,,,,,,,,,0,1,1,1,0,55,55,54,,,,1013.9377642000002,None,1012.7545809000001,1013.95461,s,1,丰满,k,1,0.5843780000000152,0.5154387999996288,gsy,f,19,2024_Apr_14_1015,mian,2021.2.3,60.00830514941717,
,,,,,,0,1,pic/flanker5.png,pic/flanker1.png,s,k,pic/AffRest2.png,,,,,,,,,,,,,,,,,,,,,,,,,0,1,1,1,0,56,56,16,,,,1017.0879114000002,None,1015.9045536000001,1017.1045910999999,s,1,前进,k,1,0.4913425999998253,0.37223579999999856,gsy,f,19,2024_Apr_14_1015,mian,2021.2.3,60.00830514941717,
,,,,,,1,0,pic/flanker6.png,pic/flanker4.png,s,l,pic/AffRest2.png,,,,,,,,,,,,,,,,,,,,,,,,,0,1,1,1,0,57,57,37,,,,1019.9211189999999,None,1018.7371734999999,1019.9379152999998,s,1,禁止,l,1,0.47134570000025633,0.4870906000001014,gsy,f,19,2024_Apr_14_1015,mian,2021.2.3,60.00830514941717,
,,,,,,1,0,pic/flanker6.png,pic/flanker4.png,s,l,pic/AffRest2.png,,,,,,,,,,,,,,,,,,,,,,,,,0,1,1,1,0,58,58,21,,,,1022.7877804000002,None,1021.6041466999998,1022.8044630000002,s,1,慌忙,l,1,0.5182649000003039,0.48976719999973284,gsy,f,19,2024_Apr_14_1015,mian,2021.2.3,60.00830514941717,
,,,,,,0,1,pic/flanker5.png,pic/flanker1.png,s,k,pic/AffRest2.png,,,,,,,,,,,,,,,,,,,,,,,,,0,1,1,1,0,59,59,24,,,,1025.7877755000002,None,1024.6043699999998,1025.8043822000002,s,1,有利,k,1,0.4567570000003798,0.398928000000069,gsy,f,19,2024_Apr_14_1015,mian,2021.2.3,60.00830514941717,
,,,,,,0,0,pic/flanker5.png,pic/flanker1.png,s,l,pic/AffRest2.png,,,,,,,,,,,,,,,,,,,,,,,,,0,1,1,1,0,60,60,35,,,,1028.6876493000002,None,1027.5039607,1028.704386,s,1,撒谎,l,1,0.4640365999998721,0.47441769999977623,gsy,f,19,2024_Apr_14_1015,mian,2021.2.3,60.00830514941717,
,,,,,,1,1,pic/flanker5.png,pic/flanker3.png,a,k,pic/AffRest2.png,,,,,,,,,,,,,,,,,,,,,,,,,0,1,1,1,0,61,61,28,,,,1031.7044005,None,1030.5209633000002,1031.7211900999998,a,1,留恋,k,1,0.5442877000000408,0.4366984000002958,gsy,f,19,2024_Apr_14_1015,mian,2021.2.3,60.00830514941717,
,,,,,,0,1,pic/flanker5.png,pic/flanker1.png,s,k,pic/AffRest2.png,,,,,,,,,,,,,,,,,,,,,,,,,0,1,1,1,0,62,62,64,,,,1034.7545152999999,None,1033.5710519000002,1034.7712571999998,s,1,羡慕,k,1,0.44649540000000343,0.4263925999998719,gsy,f,19,2024_Apr_14_1015,mian,2021.2.3,60.00830514941717,
,,,,,,1,0,pic/flanker5.png,pic/flanker3.png,a,l,pic/AffRest2.png,,,,,,,,,,,,,,,,,,,,,,,,,0,1,1,1,0,63,63,23,,,,1037.5878544999998,None,1036.4042742999998,1037.604571,a,1,处罚,k,0,0.4415933000000223,0.4804282999998577,gsy,f,19,2024_Apr_14_1015,mian,2021.2.3,60.00830514941717,
,,,,,,0,0,pic/flanker6.png,pic/flanker2.png,a,l,pic/AffRest2.png,,,,,,,,,,,,,,,,,,,,,,,,,0,1,1,1,0,64,64,49,,,,1040.5212760000002,None,1039.3377806,1040.5379314,a,1,落后,l,1,0.5446639000001596,0.4147043000002668,gsy,f,19,2024_Apr_14_1015,mian,2021.2.3,60.00830514941717,
,,,,,,0,0,pic/flanker6.png,pic/flanker2.png,a,l,pic/AffRest2.png,,,,,,,,,,,,,,,,,,,,,,,,,0,1,1,1,0,65,65,25,,,,1043.4712109999998,None,1042.2878520000002,1043.4879505000001,a,1,逃避,l,1,0.6061698000003162,0.4594988000003468,gsy,f,19,2024_Apr_14_1015,mian,2021.2.3,60.00830514941717,
,,,,,,1,1,pic/flanker5.png,pic/flanker3.png,a,k,pic/AffRest2.png,,,,,,,,,,,,,,,,,,,,,,,,,0,1,1,1,0,66,66,52,,,,1046.3878195999998,None,1045.2042290000002,1046.4045669,a,1,雄厚,k,1,0.5319039000000885,0.48139490000039586,gsy,f,19,2024_Apr_14_1015,mian,2021.2.3,60.00830514941717,
,,,,,,0,0,pic/flanker5.png,pic/flanker1.png,s,l,pic/AffRest2.png,,,,,,,,,,,,,,,,,,,,,,,,,0,1,1,1,0,67,67,67,,,,1049.4380549999998,None,1048.254431,1049.4541336,s,1,丢失,l,1,0.7480921999999737,0.372667999999976,gsy,f,19,2024_Apr_14_1015,mian,2021.2.3,60.00830514941717,
,,,,,,1,0,pic/flanker6.png,pic/flanker4.png,s,l,pic/AffRest2.png,,,,,,,,,,,,,,,,,,,,,,,,,0,1,1,1,0,68,68,45,,,,1052.5546295000001,None,1051.3710334999998,1052.5711789999998,s,1,郁闷,l,1,0.4487358999999742,0.7833513000000494,gsy,f,19,2024_Apr_14_1015,mian,2021.2.3,60.00830514941717,
,,,,,,1,1,pic/flanker5.png,pic/flanker3.png,a,k,pic/AffRest2.png,,,,,,,,,,,,,,,,,,,,,,,,,0,1,1,1,0,69,69,12,,,,1055.7545882000002,None,1054.5711414999998,1055.7712653,a,1,正直,k,1,0.6661054000001059,0.44094159999986005,gsy,f,19,2024_Apr_14_1015,mian,2021.2.3,60.00830514941717,
,,,,,,0,1,pic/flanker6.png,pic/flanker2.png,a,k,pic/AffRest2.png,,,,,,,,,,,,,,,,,,,,,,,,,0,1,1,1,0,70,70,42,,,,1058.9209804,None,1057.7376818999999,1058.9377139,a,1,舒畅,k,1,0.6243747000003168,0.37814250000019456,gsy,f,19,2024_Apr_14_1015,mian,2021.2.3,60.00830514941717,
,,,,,,1,1,pic/flanker6.png,pic/flanker4.png,s,k,pic/AffRest2.png,,,,,,,,,,,,,,,,,,,,,,,,,0,1,1,1,0,71,71,70,,,,1061.7709684,None,1060.5874560999998,1061.7877670999999,s,1,珍藏,k,1,0.5147119000002931,1.240129899999829,gsy,f,19,2024_Apr_14_1015,mian,2021.2.3,60.00830514941717,
,,,,,,0,0,pic/flanker6.png,pic/flanker2.png,a,l,pic/AffRest2.png,,,,,,,,,,,,,,,,,,,,,,,,,0,1,1,1,0,72,72,1,,,,1065.4542969000001,None,1064.2711548999998,1065.4710656999998,a,1,胡涂,l,1,0.5479600999997274,0.5709325999996508,gsy,f,19,2024_Apr_14_1015,mian,2021.2.3,60.00830514941717,
,,,,,,0,1,pic/flanker5.png,pic/flanker1.png,s,k,pic/AffRest2.png,,,,,,,,,,,,,,,,,,,,,,,,,0,1,1,1,0,73,73,32,,,,1068.4211337999998,None,1067.2380159000002,1068.4376037,s,1,永恒,k,1,0.4424911000000975,0.4027024000001802,gsy,f,19,2024_Apr_14_1015,mian,2021.2.3,60.00830514941717,
,,,,,,1,1,pic/flanker6.png,pic/flanker4.png,s,k,pic/AffRest2.png,,,,,,,,,,,,,,,,,,,,,,,,,0,1,1,1,0,74,74,46,,,,1071.2043385,None,1070.0211637999998,1071.2210987,s,1,瑰丽,k,1,0.40354200000001583,0.5760326999998142,gsy,f,19,2024_Apr_14_1015,mian,2021.2.3,60.00830514941717,
,,,,,,1,1,pic/flanker5.png,pic/flanker3.png,a,k,pic/AffRest2.png,,,,,,,,,,,,,,,,,,,,,,,,,0,1,1,1,0,75,75,20,,,,1074.0380456,None,1072.8543673000001,1074.0546275,a,1,圣洁,k,1,0.3829382999997506,0.52888669999993,gsy,f,19,2024_Apr_14_1015,mian,2021.2.3,60.00830514941717,
,,,,,,0,0,pic/flanker5.png,pic/flanker1.png,s,l,pic/AffRest2.png,,,,,,,,,,,,,,,,,,,,,,,,,0,1,1,1,0,76,76,27,,,,1076.8378688,None,1075.6542919,1076.8544897,s,1,自卑,l,1,0.5321865999999318,0.354750000000422,gsy,f,19,2024_Apr_14_1015,mian,2021.2.3,60.00830514941717,
,,,,,,0,0,pic/flanker6.png,pic/flanker2.png,a,l,pic/AffRest2.png,,,,,,,,,,,,,,,,,,,,,,,,,0,1,1,1,0,77,77,57,,,,1079.7374796000001,None,1078.5544169000002,1079.7544166999999,a,1,别扭,l,1,0.4945126999996319,0.37987840000005235,gsy,f,19,2024_Apr_14_1015,mian,2021.2.3,60.00830514941717,
,,,,,,1,0,pic/flanker5.png,pic/flanker3.png,a,l,pic/AffRest2.png,,,,,,,,,,,,,,,,,,,,,,,,,0,1,1,1,0,78,78,39,,,,1082.6378283000001,None,1081.4544583999998,1082.6545018,a,1,心慌,k,0,0.4416931000000659,0.5386465999999928,gsy,f,19,2024_Apr_14_1015,mian,2021.2.3,60.00830514941717,
,,,,,,0,1,pic/flanker6.png,pic/flanker2.png,a,k,pic/AffRest2.png,,,,,,,,,,,,,,,,,,,,,,,,,0,1,1,1,0,79,79,18,,,,1085.4540954000001,None,1084.2710049,1085.4709276,a,1,卓越,k,1,0.4669195999999829,0.4280903999997463,gsy,f,19,2024_Apr_14_1015,mian,2021.2.3,60.00830514941717,
,,,,,,,,,,,,pic/AffRest2.png,,,,,,,,,,,,,,,,,,,,,,,,,0,1,1,1,,,,,,,,,,,,,,,,,,,gsy,f,19,2024_Apr_14_1015,mian,2021.2.3,60.00830514941717,
,,,,,,0,1,pic/flanker6.png,pic/flanker2.png,a,k,pic/AffRest3.png,,,,,,,,,,,,,,,,,,,,,,,,,0,2,2,2,0,0,0,18,,,,1095.5546367999998,None,1094.3601059999999,1095.5713159,a,1,生动,k,1,0.48647859999982757,0.3430656000000454,gsy,f,19,2024_Apr_14_1015,mian,2021.2.3,60.00830514941717,
,,,,,,0,0,pic/flanker6.png,pic/flanker2.png,a,l,pic/AffRest3.png,,,,,,,,,,,,,,,,,,,,,,,,,0,2,2,2,0,1,1,33,,,,1098.2379579,None,1097.0542394000001,1098.2544239000001,a,1,闷热,l,1,0.5052765999998883,0.33297799999991184,gsy,f,19,2024_Apr_14_1015,mian,2021.2.3,60.00830514941717,
,,,,,,1,0,pic/flanker5.png,pic/flanker3.png,a,l,pic/AffRest3.png,,,,,,,,,,,,,,,,,,,,,,,,,0,2,2,2,0,2,2,39,,,,1101.0546370999998,None,1099.8709611000002,1101.0713532000002,a,1,逃避,l,1,0.5626394000000801,0.4484898999999132,gsy,f,19,2024_Apr_14_1015,mian,2021.2.3,60.00830514941717,
,,,,,,0,1,pic/flanker5.png,pic/flanker1.png,s,k,pic/AffRest3.png,,,,,,,,,,,,,,,,,,,,,,,,,0,2,2,2,0,3,3,8,,,,1104.0710617000002,None,1102.8877242,1104.0877288999998,s,1,舒畅,k,1,0.6591274000002159,0.5194655000000239,gsy,f,19,2024_Apr_14_1015,mian,2021.2.3,60.00830514941717,
,,,,,,1,1,pic/flanker5.png,pic/flanker3.png,a,k,pic/AffRest3.png,,,,,,,,,,,,,,,,,,,,,,,,,0,2,2,2,0,4,4,52,,,,1107.1877814000002,None,1106.0042867999998,1107.2044998,a,1,前进,k,1,0.37388240000018413,0.508603199999925,gsy,f,19,2024_Apr_14_1015,mian,2021.2.3,60.00830514941717,
,,,,,,0,1,pic/flanker6.png,pic/flanker2.png,a,k,pic/AffRest3.png,,,,,,,,,,,,,,,,,,,,,,,,,0,2,2,2,0,5,5,42,,,,1110.1210006,None,1108.9375677,1110.1377642999998,a,1,公平,k,1,0.45170580000012706,0.34458619999986695,gsy,f,19,2024_Apr_14_1015,mian,2021.2.3,60.00830514941717,
,,,,,,1,0,pic/flanker5.png,pic/flanker3.png,a,l,pic/AffRest3.png,,,,,,,,,,,,,,,,,,,,,,,,,0,2,2,2,0,6,6,31,,,,1112.8210539,None,1111.6376146,1112.837785,a,1,烦恼,l,1,0.6189358000001448,0.9631933000000572,gsy,f,19,2024_Apr_14_1015,mian,2021.2.3,60.00830514941717,
,,,,,,1,0,pic/flanker5.png,pic/flanker3.png,a,l,pic/AffRest3.png,,,,,,,,,,,,,,,,,,,,,,,,,0,2,2,2,0,7,7,7,,,,1116.4038449000002,None,1115.2210297,1116.4209687,a,1,心慌,l,1,0.48977049999984956,0.41099420000000464,gsy,f,19,2024_Apr_14_1015,mian,2021.2.3,60.00830514941717,
,,,,,,1,1,pic/flanker5.png,pic/flanker3.png,a,k,pic/AffRest3.png,,,,,,,,,,,,,,,,,,,,,,,,,0,2,2,2,0,8,8,76,,,,1119.2044408999998,None,1118.0210817,1119.2210529000001,a,1,丰满,k,1,0.5305868000000373,0.44885969999995723,gsy,f,19,2024_Apr_14_1015,mian,2021.2.3,60.00830514941717,
,,,,,,1,1,pic/flanker5.png,pic/flanker3.png,a,k,pic/AffRest3.png,,,,,,,,,,,,,,,,,,,,,,,,,0,2,2,2,0,9,9,44,,,,1122.0209966999998,None,1120.8376322000001,1122.0377769,a,1,清秀,k,1,0.6064036000002488,0.45328479999989213,gsy,f,19,2024_Apr_14_1015,mian,2021.2.3,60.00830514941717,
,,,,,,0,0,pic/flanker5.png,pic/flanker1.png,s,l,pic/AffRest3.png,,,,,,,,,,,,,,,,,,,,,,,,,0,2,2,2,0,10,10,19,,,,1125.0875508000001,None,1123.9042776,1125.1043944,s,1,禁止,l,1,0.5329073000002609,0.6476507999996102,gsy,f,19,2024_Apr_14_1015,mian,2021.2.3,60.00830514941717,
,,,,,,1,0,pic/flanker6.png,pic/flanker4.png,s,l,pic/AffRest3.png,,,,,,,,,,,,,,,,,,,,,,,,,0,2,2,2,0,11,11,29,,,,1128.3038245999999,None,1127.1210113,1128.3211092,s,1,失意,l,1,0.588304600000356,0.4988618999996106,gsy,f,19,2024_Apr_14_1015,mian,2021.2.3,60.00830514941717,
,,,,,,1,1,pic/flanker6.png,pic/flanker4.png,s,k,pic/AffRest3.png,,,,,,,,,,,,,,,,,,,,,,,,,0,2,2,2,0,12,12,70,,,,1131.3040635999998,None,1130.1205292000002,1131.3208182,s,1,鲜艳,k,1,0.4915054999996755,0.43151239999997415,gsy,f,19,2024_Apr_14_1015,mian,2021.2.3,60.00830514941717,
,,,,,,0,1,pic/flanker5.png,pic/flanker1.png,s,k,pic/AffRest3.png,,,,,,,,,,,,,,,,,,,,,,,,,0,2,2,2,0,13,13,64,,,,1134.1209259999998,None,1132.9374718000001,1134.1377088000002,s,1,廉洁,k,1,0.39892779999991035,0.3708283000000847,gsy,f,19,2024_Apr_14_1015,mian,2021.2.3,60.00830514941717,
,,,,,,0,1,pic/flanker6.png,pic/flanker2.png,a,k,pic/AffRest3.png,,,,,,,,,,,,,,,,,,,,,,,,,0,2,2,2,0,14,14,58,,,,1136.8544187,None,1135.67097,1136.8709941999998,a,1,充裕,k,1,0.38484920000018974,0.509364000000005,gsy,f,19,2024_Apr_14_1015,mian,2021.2.3,60.00830514941717,
,,,,,,0,0,pic/flanker6.png,pic/flanker2.png,a,l,pic/AffRest3.png,,,,,,,,,,,,,,,,,,,,,,,,,0,2,2,2,0,15,15,65,,,,1139.6209166,None,1138.4376549,1139.6376023,a,1,黑暗,l,1,0.5173108999997567,0.3698802999997497,gsy,f,19,2024_Apr_14_1015,mian,2021.2.3,60.00830514941717,
,,,,,,1,1,pic/flanker6.png,pic/flanker4.png,s,k,pic/AffRest3.png,,,,,,,,,,,,,,,,,,,,,,,,,0,2,2,2,0,16,16,14,,,,1142.3373297,None,1141.154304,1142.3546654,s,1,永恒,k,1,0.4851906999997482,1.2153161000001091,gsy,f,19,2024_Apr_14_1015,mian,2021.2.3,60.00830514941717,
,,,,,,0,1,pic/flanker6.png,pic/flanker2.png,a,k,pic/AffRest3.png,,,,,,,,,,,,,,,,,,,,,,,,,0,2,2,2,0,17,17,66,,,,1146.0376863999998,None,1144.8542678000001,1146.0537149999998,a,1,爽朗,k,1,0.3666054999998778,0.40454829999998765,gsy,f,19,2024_Apr_14_1015,mian,2021.2.3,60.00830514941717,
,,,,,,1,0,pic/flanker5.png,pic/flanker3.png,a,l,pic/AffRest3.png,,,,,,,,,,,,,,,,,,,,,,,,,0,2,2,2,0,18,18,55,,,,1148.7544273,None,1147.5711739,1148.7710546,a,1,排斥,k,0,0.35420780000004015,0.43324810000012803,gsy,f,19,2024_Apr_14_1015,mian,2021.2.3,60.00830514941717,
,,,,,,1,1,pic/flanker6.png,pic/flanker4.png,s,k,pic/AffRest3.png,,,,,,,,,,,,,,,,,,,,,,,,,0,2,2,2,0,19,19,38,,,,1151.5539851,None,1150.3704263000002,1151.570665,s,1,富丽,k,1,0.44783659999984593,0.7048310999998648,gsy,f,19,2024_Apr_14_1015,mian,2021.2.3,60.00830514941717,
,,,,,,0,1,pic/flanker6.png,pic/flanker2.png,a,k,pic/AffRest3.png,,,,,,,,,,,,,,,,,,,,,,,,,0,2,2,2,0,20,20,50,,,,1154.5875004000002,None,1153.4041831000002,1154.6041978,a,1,精致,k,1,0.5667874000000666,0.3989723999998205,gsy,f,19,2024_Apr_14_1015,mian,2021.2.3,60.00830514941717,
,,,,,,0,1,pic/flanker5.png,pic/flanker1.png,s,k,pic/AffRest3.png,,,,,,,,,,,,,,,,,,,,,,,,,0,2,2,2,0,21,21,56,,,,1157.4374498,None,1156.2543867000002,1157.4535036999998,s,1,诚恳,k,1,0.39463960000011866,0.5026159000003645,gsy,f,19,2024_Apr_14_1015,mian,2021.2.3,60.00830514941717,
,,,,,,1,0,pic/flanker6.png,pic/flanker4.png,s,l,pic/AffRest3.png,,,,,,,,,,,,,,,,,,,,,,,,,0,2,2,2,0,22,22,21,,,,1160.2873908999998,None,1159.1043099,1160.3040586999998,s,1,嘲笑,l,1,0.5038543000000573,0.43148900000005597,gsy,f,19,2024_Apr_14_1015,mian,2021.2.3,60.00830514941717,
,,,,,,1,1,pic/flanker5.png,pic/flanker3.png,a,k,pic/AffRest3.png,,,,,,,,,,,,,,,,,,,,,,,,,0,2,2,2,0,23,23,68,,,,1163.0875684,None,1161.9045024,1163.1042191,a,1,热切,k,1,0.47902650000014546,0.4129157000002124,gsy,f,19,2024_Apr_14_1015,mian,2021.2.3,60.00830514941717,
,,,,,,0,1,pic/flanker6.png,pic/flanker2.png,a,k,pic/AffRest3.png,,,,,,,,,,,,,,,,,,,,,,,,,0,2,2,2,0,24,24,26,,,,1165.9542233,None,1164.7709014,1165.9708343,a,1,秀丽,k,1,0.3652403000000959,0.3748932000003151,gsy,f,19,2024_Apr_14_1015,mian,2021.2.3,60.00830514941717,
,,,,,,1,0,pic/flanker6.png,pic/flanker4.png,s,l,pic/AffRest3.png,,,,,,,,,,,,,,,,,,,,,,,,,0,2,2,2,0,25,25,61,,,,1168.5878397,None,1167.4043927999999,1168.6042009,s,1,焦躁,l,1,0.5913176999997631,0.7311899000001176,gsy,f,19,2024_Apr_14_1015,mian,2021.2.3,60.00830514941717,
,,,,,,0,0,pic/flanker5.png,pic/flanker1.png,s,l,pic/AffRest3.png,,,,,,,,,,,,,,,,,,,,,,,,,0,2,2,2,0,26,26,51,,,,1171.9042636000001,None,1170.7209151999998,1171.9209886,s,1,冷笑,l,1,0.7774926000001869,0.49018489999980375,gsy,f,19,2024_Apr_14_1015,mian,2021.2.3,60.00830514941717,
,,,,,,1,1,pic/flanker6.png,pic/flanker4.png,s,k,pic/AffRest3.png,,,,,,,,,,,,,,,,,,,,,,,,,0,2,2,2,0,27,27,6,,,,1175.2374837999998,None,1174.0543899000002,1175.2542222999998,s,1,有利,k,1,0.8375272000002951,0.7465586999996958,gsy,f,19,2024_Apr_14_1015,mian,2021.2.3,60.00830514941717,
,,,,,,0,0,pic/flanker6.png,pic/flanker2.png,a,l,pic/AffRest3.png,,,,,,,,,,,,,,,,,,,,,,,,,0,2,2,2,0,28,28,9,,,,1178.6709936,None,1177.4876753,1178.6878636,a,1,浪费,l,1,0.49836869999990085,0.47607369999968796,gsy,f,19,2024_Apr_14_1015,mian,2021.2.3,60.00830514941717,
,,,,,,0,0,pic/flanker6.png,pic/flanker2.png,a,l,pic/AffRest3.png,,,,,,,,,,,,,,,,,,,,,,,,,0,2,2,2,0,29,29,1,,,,1181.4876593000001,None,1180.3040039999998,1181.5042077,a,1,怀疑,l,1,0.5565576999997575,0.45286599999963073,gsy,f,19,2024_Apr_14_1015,mian,2021.2.3,60.00830514941717,
,,,,,,0,0,pic/flanker6.png,pic/flanker2.png,a,l,pic/AffRest3.png,,,,,,,,,,,,,,,,,,,,,,,,,0,2,2,2,0,30,30,41,,,,1184.5209581000001,None,1183.3375825,1184.5374908000001,a,1,厌恶,l,1,0.42044990000022153,0.38242010000021764,gsy,f,19,2024_Apr_14_1015,mian,2021.2.3,60.00830514941717,
,,,,,,0,1,pic/flanker6.png,pic/flanker2.png,a,k,pic/AffRest3.png,,,,,,,,,,,,,,,,,,,,,,,,,0,2,2,2,0,31,31,2,,,,1187.2373927,None,1186.0542678999998,1187.2534825,a,1,吉祥,k,1,0.4665501999998014,0.3740947999999662,gsy,f,19,2024_Apr_14_1015,mian,2021.2.3,60.00830514941717,
,,,,,,1,0,pic/flanker6.png,pic/flanker4.png,s,l,pic/AffRest3.png,,,,,,,,,,,,,,,,,,,,,,,,,0,2,2,2,0,32,32,13,,,,1190.0035802999998,None,1188.8206702,1190.0209077000002,s,1,假冒,l,1,0.5922301000000516,1.0390910999999505,gsy,f,19,2024_Apr_14_1015,mian,2021.2.3,60.00830514941717,
,,,,,,0,1,pic/flanker5.png,pic/flanker1.png,s,k,pic/AffRest3.png,,,,,,,,,,,,,,,,,,,,,,,,,0,2,2,2,0,33,33,0,,,,1193.6207972,None,1192.4376718,1193.6376220999998,s,1,振作,k,1,0.4655462000000625,0.7246719999998277,gsy,f,19,2024_Apr_14_1015,mian,2021.2.3,60.00830514941717,
,,,,,,0,0,pic/flanker5.png,pic/flanker1.png,s,l,pic/AffRest3.png,,,,,,,,,,,,,,,,,,,,,,,,,0,2,2,2,0,34,34,35,,,,1196.6873465,None,1195.5041884,1196.7041809,s,1,悲观,l,1,0.5128897000004145,0.3622303000001921,gsy,f,19,2024_Apr_14_1015,mian,2021.2.3,60.00830514941717,
,,,,,,1,0,pic/flanker5.png,pic/flanker3.png,a,l,pic/AffRest3.png,,,,,,,,,,,,,,,,,,,,,,,,,0,2,2,2,0,35,35,71,,,,1199.4876250999998,None,1198.3041529999998,1199.5042553,a,1,沮丧,l,1,0.7598236999997425,0.5031977999997252,gsy,f,19,2024_Apr_14_1015,mian,2021.2.3,60.00830514941717,
,,,,,,0,0,pic/flanker5.png,pic/flanker1.png,s,l,pic/AffRest3.png,,,,,,,,,,,,,,,,,,,,,,,,,0,2,2,2,0,36,36,43,,,,1202.6376407999999,None,1201.4540522999998,1202.6541577,s,1,穷苦,l,1,0.48633079999990514,0.44373670000004495,gsy,f,19,2024_Apr_14_1015,mian,2021.2.3,60.00830514941717,
,,,,,,0,0,pic/flanker5.png,pic/flanker1.png,s,l,pic/AffRest3.png,,,,,,,,,,,,,,,,,,,,,,,,,0,2,2,2,0,37,37,59,,,,1205.5874845,None,1204.4041897999998,1205.6042501999998,s,1,伤心,l,1,0.5298931000002085,0.37436879999995654,gsy,f,19,2024_Apr_14_1015,mian,2021.2.3,60.00830514941717,
,,,,,,0,1,pic/flanker6.png,pic/flanker2.png,a,k,pic/AffRest3.png,,,,,,,,,,,,,,,,,,,,,,,,,0,2,2,2,0,38,38,34,,,,1208.5709295,None,1207.3874403000002,1208.5874133,a,1,瑰丽,k,1,0.4835657000003266,0.3238390999999865,gsy,f,19,2024_Apr_14_1015,mian,2021.2.3,60.00830514941717,
,,,,,,1,0,pic/flanker5.png,pic/flanker3.png,a,l,pic/AffRest3.png,,,,,,,,,,,,,,,,,,,,,,,,,0,2,2,2,0,39,39,23,,,,1211.2874634000002,None,1210.1043704,1211.3041599,a,1,孤单,l,1,0.3869964999998956,0.7308588999999301,gsy,f,19,2024_Apr_14_1015,mian,2021.2.3,60.00830514941717,
,,,,,,1,0,pic/flanker5.png,pic/flanker3.png,a,l,pic/AffRest3.png,,,,,,,,,,,,,,,,,,,,,,,,,0,2,2,2,0,40,40,79,,,,1214.3542807000001,None,1213.1710171000002,1214.3709443999999,a,1,落后,l,1,0.5278097000000344,0.4189802000000782,gsy,f,19,2024_Apr_14_1015,mian,2021.2.3,60.00830514941717,
,,,,,,0,1,pic/flanker6.png,pic/flanker2.png,a,k,pic/AffRest3.png,,,,,,,,,,,,,,,,,,,,,,,,,0,2,2,2,0,41,41,74,,,,1217.3542232000002,None,1216.1709442,1217.3707843,a,1,正直,k,1,0.42921320000004926,0.4399803000001157,gsy,f,19,2024_Apr_14_1015,mian,2021.2.3,60.00830514941717,
,,,,,,0,0,pic/flanker6.png,pic/flanker2.png,a,l,pic/AffRest3.png,,,,,,,,,,,,,,,,,,,,,,,,,0,2,2,2,0,42,42,57,,,,1220.1708553,None,1218.9877358,1220.1874258999999,a,1,忧虑,l,1,0.5290327000002435,0.342046400000072,gsy,f,19,2024_Apr_14_1015,mian,2021.2.3,60.00830514941717,
,,,,,,0,0,pic/flanker5.png,pic/flanker1.png,s,l,pic/AffRest3.png,,,,,,,,,,,,,,,,,,,,,,,,,0,2,2,2,0,43,43,67,,,,1222.9373643000001,None,1221.7544394,1222.954149,s,1,缺乏,l,1,0.5099403999997776,0.47954870000012306,gsy,f,19,2024_Apr_14_1015,mian,2021.2.3,60.00830514941717,
,,,,,,1,1,pic/flanker5.png,pic/flanker3.png,a,k,pic/AffRest3.png,,,,,,,,,,,,,,,,,,,,,,,,,0,2,2,2,0,44,44,36,,,,1226.0042252,None,1224.8210379999998,1226.0207595999998,a,1,享受,k,1,0.39317250000021886,0.47375330000022586,gsy,f,19,2024_Apr_14_1015,mian,2021.2.3,60.00830514941717,
,,,,,,1,0,pic/flanker6.png,pic/flanker4.png,s,l,pic/AffRest3.png,,,,,,,,,,,,,,,,,,,,,,,,,0,2,2,2,0,45,45,77,,,,1228.8042321,None,1227.6240357,1228.8375869999998,s,1,鲁莽,l,1,0.5562235000002147,0.700944900000195,gsy,f,19,2024_Apr_14_1015,mian,2021.2.3,60.00830514941717,
,,,,,,0,0,pic/flanker5.png,pic/flanker1.png,s,l,pic/AffRest3.png,,,,,,,,,,,,,,,,,,,,,,,,,0,2,2,2,0,46,46,11,,,,1232.1376738000001,None,1230.9544789999998,1232.1544443,s,1,处罚,l,1,0.5593956000002436,0.4713486999999077,gsy,f,19,2024_Apr_14_1015,mian,2021.2.3,60.00830514941717,
,,,,,,0,1,pic/flanker5.png,pic/flanker1.png,s,k,pic/AffRest3.png,,,,,,,,,,,,,,,,,,,,,,,,,0,2,2,2,0,47,47,24,,,,1235.1208846000002,None,1233.9373155,1235.1375694,s,1,赞成,k,1,0.6139279000003626,0.47301130000005287,gsy,f,19,2024_Apr_14_1015,mian,2021.2.3,60.00830514941717,
,,,,,,0,0,pic/flanker5.png,pic/flanker1.png,s,l,pic/AffRest3.png,,,,,,,,,,,,,,,,,,,,,,,,,0,2,2,2,0,48,48,27,,,,1238.1374847999998,None,1236.9543562000001,1238.1543156999999,s,1,轻率,l,1,0.40844790000028297,0.42058769999994183,gsy,f,19,2024_Apr_14_1015,mian,2021.2.3,60.00830514941717,
,,,,,,1,1,pic/flanker6.png,pic/flanker4.png,s,k,pic/AffRest3.png,,,,,,,,,,,,,,,,,,,,,,,,,0,2,2,2,0,49,49,54,,,,1240.9376411,None,1239.7542516,1240.9542405999998,s,1,羡慕,l,0,0.4623615999998947,0.5003422000004321,gsy,f,19,2024_Apr_14_1015,mian,2021.2.3,60.00830514941717,
,,,,,,1,0,pic/flanker5.png,pic/flanker3.png,a,l,pic/AffRest3.png,,,,,,,,,,,,,,,,,,,,,,,,,0,2,2,2,0,50,50,15,,,,1243.8373924999999,None,1242.6543109000002,1243.8541108000002,a,1,罚款,l,1,0.639350899999954,0.5765750999999,gsy,f,19,2024_Apr_14_1015,mian,2021.2.3,60.00830514941717,
,,,,,,1,0,pic/flanker5.png,pic/flanker3.png,a,l,pic/AffRest3.png,,,,,,,,,,,,,,,,,,,,,,,,,0,2,2,2,0,51,51,63,,,,1246.9043608,None,1245.7208395,1246.9204361,a,1,慌忙,l,1,0.5071275999998761,0.5722842000000128,gsy,f,19,2024_Apr_14_1015,mian,2021.2.3,60.00830514941717,
,,,,,,1,0,pic/flanker6.png,pic/flanker4.png,s,l,pic/AffRest3.png,,,,,,,,,,,,,,,,,,,,,,,,,0,2,2,2,0,52,52,69,,,,1249.9542272,None,1248.7710036,1249.9708509999998,s,1,丢失,k,0,0.4235613999999259,0.4850172000001294,gsy,f,19,2024_Apr_14_1015,mian,2021.2.3,60.00830514941717,
,,,,,,1,0,pic/flanker5.png,pic/flanker3.png,a,l,pic/AffRest3.png,,,,,,,,,,,,,,,,,,,,,,,,,0,2,2,2,0,53,53,47,,,,1252.9209468000001,None,1251.7375128,1252.9377271,a,1,胡涂,l,1,0.6194830999997976,0.449892600000112,gsy,f,19,2024_Apr_14_1015,mian,2021.2.3,60.00830514941717,
,,,,,,1,0,pic/flanker6.png,pic/flanker4.png,s,l,pic/AffRest3.png,,,,,,,,,,,,,,,,,,,,,,,,,0,2,2,2,0,54,54,53,,,,1255.8877365,None,1254.7042475,1255.904374,s,1,损害,l,1,0.5138735999998971,0.5513581000000158,gsy,f,19,2024_Apr_14_1015,mian,2021.2.3,60.00830514941717,
,,,,,,1,1,pic/flanker5.png,pic/flanker3.png,a,k,pic/AffRest3.png,,,,,,,,,,,,,,,,,,,,,,,,,0,2,2,2,0,55,55,60,,,,1258.9040103999998,None,1257.7208509,1258.9208375,a,1,典雅,k,1,0.8292080999999598,0.45838480000020354,gsy,f,19,2024_Apr_14_1015,mian,2021.2.3,60.00830514941717,
,,,,,,1,1,pic/flanker5.png,pic/flanker3.png,a,k,pic/AffRest3.png,,,,,,,,,,,,,,,,,,,,,,,,,0,2,2,2,0,56,56,28,,,,1262.1375133999998,None,1260.9538357,1262.1542344000002,a,1,富足,k,1,0.5344822000001841,0.48899389999996856,gsy,f,19,2024_Apr_14_1015,mian,2021.2.3,60.00830514941717,
,,,,,,0,1,pic/flanker5.png,pic/flanker1.png,s,k,pic/AffRest3.png,,,,,,,,,,,,,,,,,,,,,,,,,0,2,2,2,0,57,57,72,,,,1265.0376048,None,1263.8543923,1265.0543725,s,1,优雅,k,1,0.4969307999999728,0.3880576999999903,gsy,f,19,2024_Apr_14_1015,mian,2021.2.3,60.00830514941717,
,,,,,,0,0,pic/flanker5.png,pic/flanker1.png,s,l,pic/AffRest3.png,,,,,,,,,,,,,,,,,,,,,,,,,0,2,2,2,0,58,58,75,,,,1267.8040712,None,1266.6204996,1267.8207449,s,1,别扭,l,1,0.549454699999842,0.42324809999990975,gsy,f,19,2024_Apr_14_1015,mian,2021.2.3,60.00830514941717,
,,,,,,1,1,pic/flanker6.png,pic/flanker4.png,s,k,pic/AffRest3.png,,,,,,,,,,,,,,,,,,,,,,,,,0,2,2,2,0,59,59,46,,,,1270.8041531000001,None,1269.6206553999998,1270.8206759000002,s,1,珍藏,k,1,0.4133705999997801,0.46768199999996796,gsy,f,19,2024_Apr_14_1015,mian,2021.2.3,60.00830514941717,
,,,,,,1,1,pic/flanker5.png,pic/flanker3.png,a,k,pic/AffRest3.png,,,,,,,,,,,,,,,,,,,,,,,,,0,2,2,2,0,60,60,4,,,,1273.7707376,None,1272.5871995999998,1273.7874685,a,1,留恋,k,1,0.49314079999976457,0.41341000000011263,gsy,f,19,2024_Apr_14_1015,mian,2021.2.3,60.00830514941717,
,,,,,,0,0,pic/flanker6.png,pic/flanker2.png,a,l,pic/AffRest3.png,,,,,,,,,,,,,,,,,,,,,,,,,0,2,2,2,0,61,61,49,,,,1276.5373800999998,None,1275.3540262999998,1276.5541417000002,a,1,争吵,l,1,0.4851287000001321,0.41060010000001057,gsy,f,19,2024_Apr_14_1015,mian,2021.2.3,60.00830514941717,
,,,,,,1,1,pic/flanker5.png,pic/flanker3.png,a,k,pic/AffRest3.png,,,,,,,,,,,,,,,,,,,,,,,,,0,2,2,2,0,62,62,12,,,,1279.3376617000001,None,1278.1540585,1279.3544024,a,1,奉献,k,1,0.44914569999991727,0.4760254000002533,gsy,f,19,2024_Apr_14_1015,mian,2021.2.3,60.00830514941717,
,,,,,,1,1,pic/flanker6.png,pic/flanker4.png,s,k,pic/AffRest3.png,,,,,,,,,,,,,,,,,,,,,,,,,0,2,2,2,0,63,63,78,,,,1282.2875345,None,1281.1040173,1282.3042065000002,s,1,畅销,k,1,0.5388400000001639,0.5260044000001471,gsy,f,19,2024_Apr_14_1015,mian,2021.2.3,60.00830514941717,
,,,,,,1,0,pic/flanker6.png,pic/flanker4.png,s,l,pic/AffRest3.png,,,,,,,,,,,,,,,,,,,,,,,,,0,2,2,2,0,64,64,37,,,,1285.2875241999998,None,1284.1040265,1285.3041965,s,1,堵塞,l,1,0.6836393000003227,0.5579256000000896,gsy,f,19,2024_Apr_14_1015,mian,2021.2.3,60.00830514941717,
,,,,,,0,0,pic/flanker6.png,pic/flanker2.png,a,l,pic/AffRest3.png,,,,,,,,,,,,,,,,,,,,,,,,,0,2,2,2,0,65,65,25,,,,1288.5041562,None,1287.320805,1288.5208421999998,a,1,懒惰,l,1,0.6751259000002392,0.43115869999974166,gsy,f,19,2024_Apr_14_1015,mian,2021.2.3,60.00830514941717,
,,,,,,1,1,pic/flanker6.png,pic/flanker4.png,s,k,pic/AffRest3.png,,,,,,,,,,,,,,,,,,,,,,,,,0,2,2,2,0,66,66,22,,,,1291.470936,None,1290.2874015,1291.4876293999998,s,1,敬佩,k,1,0.38657270000021526,0.5431512000000112,gsy,f,19,2024_Apr_14_1015,mian,2021.2.3,60.00830514941717,
,,,,,,1,0,pic/flanker6.png,pic/flanker4.png,s,l,pic/AffRest3.png,,,,,,,,,,,,,,,,,,,,,,,,,0,2,2,2,0,67,67,5,,,,1294.3207243999998,None,1293.1372361,1294.3374523999998,s,1,自卑,l,1,0.6859259000002567,0.5143969000000652,gsy,f,19,2024_Apr_14_1015,mian,2021.2.3,60.00830514941717,
,,,,,,0,0,pic/flanker6.png,pic/flanker2.png,a,l,pic/AffRest3.png,,,,,,,,,,,,,,,,,,,,,,,,,0,2,2,2,0,68,68,17,,,,1297.4870714,None,1296.3040718999998,1297.5037475000001,a,1,郁闷,l,1,0.6264468999997916,0.5742339999997057,gsy,f,19,2024_Apr_14_1015,mian,2021.2.3,60.00830514941717,
,,,,,,1,0,pic/flanker6.png,pic/flanker4.png,s,l,pic/AffRest3.png,,,,,,,,,,,,,,,,,,,,,,,,,0,2,2,2,0,69,69,45,,,,1300.6202415999999,None,1299.4374105999998,1300.6369048,s,1,撒谎,l,1,0.462099699999726,0.6128638999998657,gsy,f,19,2024_Apr_14_1015,mian,2021.2.3,60.00830514941717,
,,,,,,0,0,pic/flanker6.png,pic/flanker2.png,a,l,pic/AffRest3.png,,,,,,,,,,,,,,,,,,,,,,,,,0,2,2,2,0,70,70,73,,,,1303.5540801,None,1302.3704996,1303.5706942999998,a,1,消沉,l,1,0.5031880999999885,0.4039425000000847,gsy,f,19,2024_Apr_14_1015,mian,2021.2.3,60.00830514941717,
,,,,,,0,0,pic/flanker5.png,pic/flanker1.png,s,l,pic/AffRest3.png,,,,,,,,,,,,,,,,,,,,,,,,,0,2,2,2,0,71,71,3,,,,1306.4874849999999,None,1305.3040354000002,1306.5041392,s,1,杂乱,l,1,0.5149191000000428,0.4353744000000006,gsy,f,19,2024_Apr_14_1015,mian,2021.2.3,60.00830514941717,
,,,,,,0,1,pic/flanker5.png,pic/flanker1.png,s,k,pic/AffRest3.png,,,,,,,,,,,,,,,,,,,,,,,,,0,2,2,2,0,72,72,16,,,,1309.3540034999999,None,1308.1707447000001,1309.3706851,s,1,俊秀,k,1,0.6210149000003184,0.5957340999998451,gsy,f,19,2024_Apr_14_1015,mian,2021.2.3,60.00830514941717,
,,,,,,0,1,pic/flanker6.png,pic/flanker2.png,a,k,pic/AffRest3.png,,,,,,,,,,,,,,,,,,,,,,,,,0,2,2,2,0,73,73,10,,,,1312.4375923,None,1311.2541809000002,1312.4540528,a,1,雄厚,k,1,0.52503999999999,0.442875599999752,gsy,f,19,2024_Apr_14_1015,mian,2021.2.3,60.00830514941717,
,,,,,,0,1,pic/flanker5.png,pic/flanker1.png,s,k,pic/AffRest3.png,,,,,,,,,,,,,,,,,,,,,,,,,0,2,2,2,0,74,74,40,,,,1315.3873056,None,1314.2040313999998,1315.4039002000002,s,1,豪放,k,1,0.5171010999997634,0.375862600000346,gsy,f,19,2024_Apr_14_1015,mian,2021.2.3,60.00830514941717,
,,,,,,1,1,pic/flanker5.png,pic/flanker3.png,a,k,pic/AffRest3.png,,,,,,,,,,,,,,,,,,,,,,,,,0,2,2,2,0,75,75,20,,,,1318.2207175,None,1317.0373685000002,1318.2373362,a,1,卓越,k,1,0.5989798000000519,0.5325972000000547,gsy,f,19,2024_Apr_14_1015,mian,2021.2.3,60.00830514941717,
,,,,,,1,1,pic/flanker6.png,pic/flanker4.png,s,k,pic/AffRest3.png,,,,,,,,,,,,,,,,,,,,,,,,,0,2,2,2,0,76,76,30,,,,1321.3703171,None,1320.1865065,1321.3870608999998,s,1,旺盛,k,1,0.4008080999997219,0.4965105000001131,gsy,f,19,2024_Apr_14_1015,mian,2021.2.3,60.00830514941717,
,,,,,,1,1,pic/flanker6.png,pic/flanker4.png,s,k,pic/AffRest3.png,,,,,,,,,,,,,,,,,,,,,,,,,0,2,2,2,0,77,77,62,,,,1324.1540693999998,None,1322.9700698999998,1324.1707251999999,s,1,圣洁,k,1,0.4601775000000998,0.4125474000002214,gsy,f,19,2024_Apr_14_1015,mian,2021.2.3,60.00830514941717,
,,,,,,0,1,pic/flanker5.png,pic/flanker1.png,s,k,pic/AffRest3.png,,,,,,,,,,,,,,,,,,,,,,,,,0,2,2,2,0,78,78,32,,,,1327.0702915,None,1325.8866762999999,1327.0869126,s,1,顽强,k,1,0.5775704000002406,0.39667370000006485,gsy,f,19,2024_Apr_14_1015,mian,2021.2.3,60.00830514941717,
,,,,,,0,1,pic/flanker5.png,pic/flanker1.png,s,k,pic/AffRest3.png,,,,,,,,,,,,,,,,,,,,,,,,,0,2,2,2,0,79,79,48,,,,1330.0873172,None,1328.9039255,1330.1042792,s,1,如愿,k,1,0.41897800000015195,0.35915220000015324,gsy,f,19,2024_Apr_14_1015,mian,2021.2.3,60.00830514941717,
,,,,,,,,,,,,pic/AffRest3.png,,,,,,,,,,,,,,,,,,,,,,,,,0,2,2,2,,,,,,,,,,,,,,,,,,,gsy,f,19,2024_Apr_14_1015,mian,2021.2.3,60.00830514941717,
,,,,,,1,0,pic/flanker6.png,pic/flanker4.png,s,l,pic/EndExp.PNG,,,,,,,,,,,,,,,,,,,,,,,,,0,3,3,3,0,0,0,5,,,,1335.9033495,None,1334.7184152000002,1335.9200214,s,1,胡涂,l,1,0.5159186000000773,0.5052473000000646,gsy,f,19,2024_Apr_14_1015,mian,2021.2.3,60.00830514941717,
,,,,,,0,0,pic/flanker5.png,pic/flanker1.png,s,l,pic/EndExp.PNG,,,,,,,,,,,,,,,,,,,,,,,,,0,3,3,3,0,1,1,35,,,,1338.920958,None,1337.7370282999998,1338.9375610999998,s,1,排斥,l,1,0.43163490000006277,0.34558370000013383,gsy,f,19,2024_Apr_14_1015,mian,2021.2.3,60.00830514941717,
,,,,,,0,0,pic/flanker6.png,pic/flanker2.png,a,l,pic/EndExp.PNG,,,,,,,,,,,,,,,,,,,,,,,,,0,3,3,3,0,2,2,25,,,,1341.6039008999999,None,1340.4206636000001,1341.6200345999998,a,1,消沉,l,1,0.4057375000002139,0.37068490000001475,gsy,f,19,2024_Apr_14_1015,mian,2021.2.3,60.00830514941717,
,,,,,,1,0,pic/flanker5.png,pic/flanker3.png,a,l,pic/EndExp.PNG,,,,,,,,,,,,,,,,,,,,,,,,,0,3,3,3,0,3,3,23,,,,1344.3874134999999,None,1343.2047405,1344.4040026,a,1,罚款,l,1,0.3833054000001539,0.7439817999998013,gsy,f,19,2024_Apr_14_1015,mian,2021.2.3,60.00830514941717,
,,,,,,0,1,pic/flanker6.png,pic/flanker2.png,a,k,pic/EndExp.PNG,,,,,,,,,,,,,,,,,,,,,,,,,0,3,3,3,0,4,4,66,,,,1347.5039129,None,1346.3204161,1347.5205297999998,a,1,有利,k,1,0.44909370000004856,0.37061839999978474,gsy,f,19,2024_Apr_14_1015,mian,2021.2.3,60.00830514941717,
