target,反应类型,条件,truetarget,CorAns,Position,congruency,AffValue,flankerPic,targetPic,corAnsF,corAnsA,RestPic,returnPractice.thisRepN,returnPractice.thisTrialN,returnPractice.thisN,returnPractice.thisIndex,pracNum.thisRepN,pracNum.thisTrialN,pracNum.thisN,pracNum.thisIndex,NumBlock1.thisRepN,NumBlock1.thisTrialN,NumBlock1.thisN,NumBlock1.thisIndex,NumBlock2.thisRepN,NumBlock2.thisTrialN,NumBlock2.thisN,NumBlock2.thisIndex,returnPrac.thisRepN,returnPrac.thisTrialN,returnPrac.thisN,returnPrac.thisIndex,PracAff.thisRepN,PracAff.thisTrialN,PracAff.thisN,PracAff.thisIndex,AffBlocks.thisRepN,AffBlocks.thisTrialN,AffBlocks.thisN,AffBlocks.thisIndex,AffBlock1.thisRepN,AffBlock1.thisTrialN,AffBlock1.thisN,AffBlock1.thisIndex,respNum2word.keys,respNum2word.corr,respNum2word.rt,text.started,text.stopped,blank.started,blank.stopped,respFlanker.keys,respFlanker.corr,thisWord,respAffWord.keys,respAffWord.corr,respFlanker.rt,respAffWord.rt,姓名,性别,年龄（周岁）,date,expName,psychopyVersion,frameRate,
2A,1,1,A,a,"[0.2, 0.2]",,,,,,,,0,0,0,0,0,0,0,0,,,,,,,,,,,,,,,,,,,,,,,,,None,0,,,,,,,,,,,,,hjh,m,26,2024_Apr_18_1845,mian,2021.2.3,59.8937245742616,
A9,1,2,A,a,"[-0.2, 0.2]",,,,,,,,0,0,0,0,0,1,1,1,,,,,,,,,,,,,,,,,,,,,,,,,a,1,0.8457390000003215,,,,,,,,,,,,hjh,m,26,2024_Apr_18_1845,mian,2021.2.3,59.8937245742616,
7e,2,1,7.0,a,"[-0.2, -0.2]",,,,,,,,0,0,0,0,0,2,2,2,,,,,,,,,,,,,,,,,,,,,,,,,l,0,1.3074486000004981,,,,,,,,,,,,hjh,m,26,2024_Apr_18_1845,mian,2021.2.3,59.8937245742616,
9H,2,2,9.0,a,"[0.2, -0.2]",,,,,,,,0,0,0,0,0,3,3,3,,,,,,,,,,,,,,,,,,,,,,,,,a,1,1.4446176000019477,,,,,,,,,,,,hjh,m,26,2024_Apr_18_1845,mian,2021.2.3,59.8937245742616,
h4,1,1,h,l,"[0.2, 0.2]",,,,,,,,0,0,0,0,0,4,4,4,,,,,,,,,,,,,,,,,,,,,,,,,l,1,2.294930600000953,,,,,,,,,,,,hjh,m,26,2024_Apr_18_1845,mian,2021.2.3,59.8937245742616,
4H,1,2,H,a,"[-0.2, 0.2]",,,,,,,,0,0,0,0,0,5,5,5,,,,,,,,,,,,,,,,,,,,,,,,,a,1,1.105866399997467,,,,,,,,,,,,hjh,m,26,2024_Apr_18_1845,mian,2021.2.3,59.8937245742616,
F8,2,1,8.0,l,"[-0.2, -0.2]",,,,,,,,0,0,0,0,0,6,6,6,,,,,,,,,,,,,,,,,,,,,,,,,l,1,2.146499099999346,,,,,,,,,,,,hjh,m,26,2024_Apr_18_1845,mian,2021.2.3,59.8937245742616,
h7,2,2,7.0,a,"[0.2, -0.2]",,,,,,,,0,0,0,0,0,7,7,7,,,,,,,,,,,,,,,,,,,,,,,,,a,1,0.8046078000006673,,,,,,,,,,,,hjh,m,26,2024_Apr_18_1845,mian,2021.2.3,59.8937245742616,
5e,1,1,e,l,"[0.2, 0.2]",,,,,,,,0,0,0,0,0,8,8,8,,,,,,,,,,,,,,,,,,,,,,,,,l,1,2.7426946999985375,,,,,,,,,,,,hjh,m,26,2024_Apr_18_1845,mian,2021.2.3,59.8937245742616,
e8,1,2,e,l,"[-0.2, 0.2]",,,,,,,,0,0,0,0,0,9,9,9,,,,,,,,,,,,,,,,,,,,,,,,,l,1,1.5769632999981695,,,,,,,,,,,,hjh,m,26,2024_Apr_18_1845,mian,2021.2.3,59.8937245742616,
4E,2,1,4.0,l,"[-0.2, -0.2]",,,,,,,,0,0,0,0,0,10,10,10,,,,,,,,,,,,,,,,,,,,,,,,,a,0,2.0902255000000878,,,,,,,,,,,,hjh,m,26,2024_Apr_18_1845,mian,2021.2.3,59.8937245742616,
5H,2,2,5.0,a,"[0.2, -0.2]",,,,,,,,0,0,0,0,0,11,11,11,,,,,,,,,,,,,,,,,,,,,,,,,a,1,1.3924047000000428,,,,,,,,,,,,hjh,m,26,2024_Apr_18_1845,mian,2021.2.3,59.8937245742616,
9E,1,1,E,a,"[0.2, 0.2]",,,,,,,,0,0,0,0,0,12,12,12,,,,,,,,,,,,,,,,,,,,,,,,,l,0,1.9760797999988426,,,,,,,,,,,,hjh,m,26,2024_Apr_18_1845,mian,2021.2.3,59.8937245742616,
h9,1,2,h,l,"[-0.2, 0.2]",,,,,,,,0,0,0,0,0,13,13,13,,,,,,,,,,,,,,,,,,,,,,,,,l,1,1.4441307999986748,,,,,,,,,,,,hjh,m,26,2024_Apr_18_1845,mian,2021.2.3,59.8937245742616,
2a,2,1,2.0,l,"[-0.2, -0.2]",,,,,,,,0,0,0,0,0,14,14,14,,,,,,,,,,,,,,,,,,,,,,,,,None,0,,,,,,,,,,,,,hjh,m,26,2024_Apr_18_1845,mian,2021.2.3,59.8937245742616,
e5,2,2,5.0,a,"[0.2, -0.2]",,,,,,,,0,0,0,0,0,15,15,15,,,,,,,,,,,,,,,,,,,,,,,,,l,0,1.7882357999988017,,,,,,,,,,,,hjh,m,26,2024_Apr_18_1845,mian,2021.2.3,59.8937245742616,
A5,1,1,A,a,"[0.2, 0.2]",,,,,,,,0,0,0,0,0,16,16,16,,,,,,,,,,,,,,,,,,,,,,,,,a,1,2.9883019999979297,,,,,,,,,,,,hjh,m,26,2024_Apr_18_1845,mian,2021.2.3,59.8937245742616,
a6,1,2,a,l,"[-0.2, 0.2]",,,,,,,,0,0,0,0,0,17,17,17,,,,,,,,,,,,,,,,,,,,,,,,,l,1,1.1453292000005604,,,,,,,,,,,,hjh,m,26,2024_Apr_18_1845,mian,2021.2.3,59.8937245742616,
2F,2,1,2.0,l,"[-0.2, -0.2]",,,,,,,,0,0,0,0,0,18,18,18,,,,,,,,,,,,,,,,,,,,,,,,,a,0,1.6011213999991014,,,,,,,,,,,,hjh,m,26,2024_Apr_18_1845,mian,2021.2.3,59.8937245742616,
e4,2,2,4.0,l,"[0.2, -0.2]",,,,,,,,0,0,0,0,0,19,19,19,,,,,,,,,,,,,,,,,,,,,,,,,l,1,1.5187140999987605,,,,,,,,,,,,hjh,m,26,2024_Apr_18_1845,mian,2021.2.3,59.8937245742616,
,,,,,,,,,,,,,0,0,0,0,,,,,,,,,,,,,,,,,,,,,,,,,,,,,,,,,,,,,,,,,,,hjh,m,26,2024_Apr_18_1845,mian,2021.2.3,59.8937245742616,
2A,1,1,A,a,"[0.2, 0.2]",,,,,,,,1,0,1,0,0,0,0,0,,,,,,,,,,,,,,,,,,,,,,,,,l,0,1.5206376999994973,,,,,,,,,,,,hjh,m,26,2024_Apr_18_1845,mian,2021.2.3,59.8937245742616,
A9,1,2,A,a,"[-0.2, 0.2]",,,,,,,,1,0,1,0,0,1,1,1,,,,,,,,,,,,,,,,,,,,,,,,,l,0,2.692813900001056,,,,,,,,,,,,hjh,m,26,2024_Apr_18_1845,mian,2021.2.3,59.8937245742616,
7e,2,1,7.0,a,"[-0.2, -0.2]",,,,,,,,1,0,1,0,0,2,2,2,,,,,,,,,,,,,,,,,,,,,,,,,l,0,3.796485599999869,,,,,,,,,,,,hjh,m,26,2024_Apr_18_1845,mian,2021.2.3,59.8937245742616,
9H,2,2,9.0,a,"[0.2, -0.2]",,,,,,,,1,0,1,0,0,3,3,3,,,,,,,,,,,,,,,,,,,,,,,,,a,1,1.3370693000033498,,,,,,,,,,,,hjh,m,26,2024_Apr_18_1845,mian,2021.2.3,59.8937245742616,
h4,1,1,h,l,"[0.2, 0.2]",,,,,,,,1,0,1,0,0,4,4,4,,,,,,,,,,,,,,,,,,,,,,,,,l,1,1.2507435999978043,,,,,,,,,,,,hjh,m,26,2024_Apr_18_1845,mian,2021.2.3,59.8937245742616,
4H,1,2,H,a,"[-0.2, 0.2]",,,,,,,,1,0,1,0,0,5,5,5,,,,,,,,,,,,,,,,,,,,,,,,,a,1,0.6351463999999396,,,,,,,,,,,,hjh,m,26,2024_Apr_18_1845,mian,2021.2.3,59.8937245742616,
F8,2,1,8.0,l,"[-0.2, -0.2]",,,,,,,,1,0,1,0,0,6,6,6,,,,,,,,,,,,,,,,,,,,,,,,,a,0,2.0288649000031,,,,,,,,,,,,hjh,m,26,2024_Apr_18_1845,mian,2021.2.3,59.8937245742616,
h7,2,2,7.0,a,"[0.2, -0.2]",,,,,,,,1,0,1,0,0,7,7,7,,,,,,,,,,,,,,,,,,,,,,,,,None,0,,,,,,,,,,,,,hjh,m,26,2024_Apr_18_1845,mian,2021.2.3,59.8937245742616,
5e,1,1,e,l,"[0.2, 0.2]",,,,,,,,1,0,1,0,0,8,8,8,,,,,,,,,,,,,,,,,,,,,,,,,l,1,2.619141600000148,,,,,,,,,,,,hjh,m,26,2024_Apr_18_1845,mian,2021.2.3,59.8937245742616,
e8,1,2,e,l,"[-0.2, 0.2]",,,,,,,,1,0,1,0,0,9,9,9,,,,,,,,,,,,,,,,,,,,,,,,,l,1,1.1588353000006464,,,,,,,,,,,,hjh,m,26,2024_Apr_18_1845,mian,2021.2.3,59.8937245742616,
4E,2,1,4.0,l,"[-0.2, -0.2]",,,,,,,,1,0,1,0,0,10,10,10,,,,,,,,,,,,,,,,,,,,,,,,,l,1,2.814899400000286,,,,,,,,,,,,hjh,m,26,2024_Apr_18_1845,mian,2021.2.3,59.8937245742616,
5H,2,2,5.0,a,"[0.2, -0.2]",,,,,,,,1,0,1,0,0,11,11,11,,,,,,,,,,,,,,,,,,,,,,,,,a,1,0.5884823999986111,,,,,,,,,,,,hjh,m,26,2024_Apr_18_1845,mian,2021.2.3,59.8937245742616,
9E,1,1,E,a,"[0.2, 0.2]",,,,,,,,1,0,1,0,0,12,12,12,,,,,,,,,,,,,,,,,,,,,,,,,a,1,1.9292802999989362,,,,,,,,,,,,hjh,m,26,2024_Apr_18_1845,mian,2021.2.3,59.8937245742616,
h9,1,2,h,l,"[-0.2, 0.2]",,,,,,,,1,0,1,0,0,13,13,13,,,,,,,,,,,,,,,,,,,,,,,,,l,1,0.8016182999999728,,,,,,,,,,,,hjh,m,26,2024_Apr_18_1845,mian,2021.2.3,59.8937245742616,
2a,2,1,2.0,l,"[-0.2, -0.2]",,,,,,,,1,0,1,0,0,14,14,14,,,,,,,,,,,,,,,,,,,,,,,,,l,1,1.8336200999983703,,,,,,,,,,,,hjh,m,26,2024_Apr_18_1845,mian,2021.2.3,59.8937245742616,
e5,2,2,5.0,a,"[0.2, -0.2]",,,,,,,,1,0,1,0,0,15,15,15,,,,,,,,,,,,,,,,,,,,,,,,,a,1,0.5034595999968587,,,,,,,,,,,,hjh,m,26,2024_Apr_18_1845,mian,2021.2.3,59.8937245742616,
A5,1,1,A,a,"[0.2, 0.2]",,,,,,,,1,0,1,0,0,16,16,16,,,,,,,,,,,,,,,,,,,,,,,,,a,1,3.2007845000007364,,,,,,,,,,,,hjh,m,26,2024_Apr_18_1845,mian,2021.2.3,59.8937245742616,
a6,1,2,a,l,"[-0.2, 0.2]",,,,,,,,1,0,1,0,0,17,17,17,,,,,,,,,,,,,,,,,,,,,,,,,None,0,,,,,,,,,,,,,hjh,m,26,2024_Apr_18_1845,mian,2021.2.3,59.8937245742616,
2F,2,1,2.0,l,"[-0.2, -0.2]",,,,,,,,1,0,1,0,0,18,18,18,,,,,,,,,,,,,,,,,,,,,,,,,l,1,2.508338999999978,,,,,,,,,,,,hjh,m,26,2024_Apr_18_1845,mian,2021.2.3,59.8937245742616,
e4,2,2,4.0,l,"[0.2, -0.2]",,,,,,,,1,0,1,0,0,19,19,19,,,,,,,,,,,,,,,,,,,,,,,,,l,1,1.6890548000010313,,,,,,,,,,,,hjh,m,26,2024_Apr_18_1845,mian,2021.2.3,59.8937245742616,
,,,,,,,,,,,,,1,0,1,0,,,,,,,,,,,,,,,,,,,,,,,,,,,,,,,,,,,,,,,,,,,hjh,m,26,2024_Apr_18_1845,mian,2021.2.3,59.8937245742616,
2A,1,1,A,a,"[0.2, 0.2]",,,,,,,,2,0,2,0,0,0,0,0,,,,,,,,,,,,,,,,,,,,,,,,,a,1,2.2410826999985147,,,,,,,,,,,,hjh,m,26,2024_Apr_18_1845,mian,2021.2.3,59.8937245742616,
A9,1,2,A,a,"[-0.2, 0.2]",,,,,,,,2,0,2,0,0,1,1,1,,,,,,,,,,,,,,,,,,,,,,,,,a,1,0.6348192999976163,,,,,,,,,,,,hjh,m,26,2024_Apr_18_1845,mian,2021.2.3,59.8937245742616,
7e,2,1,7.0,a,"[-0.2, -0.2]",,,,,,,,2,0,2,0,0,2,2,2,,,,,,,,,,,,,,,,,,,,,,,,,a,1,2.0262123000029533,,,,,,,,,,,,hjh,m,26,2024_Apr_18_1845,mian,2021.2.3,59.8937245742616,
9H,2,2,9.0,a,"[0.2, -0.2]",,,,,,,,2,0,2,0,0,3,3,3,,,,,,,,,,,,,,,,,,,,,,,,,a,1,0.9605799999990268,,,,,,,,,,,,hjh,m,26,2024_Apr_18_1845,mian,2021.2.3,59.8937245742616,
h4,1,1,h,l,"[0.2, 0.2]",,,,,,,,2,0,2,0,0,4,4,4,,,,,,,,,,,,,,,,,,,,,,,,,a,0,2.080865599997196,,,,,,,,,,,,hjh,m,26,2024_Apr_18_1845,mian,2021.2.3,59.8937245742616,
4H,1,2,H,a,"[-0.2, 0.2]",,,,,,,,2,0,2,0,0,5,5,5,,,,,,,,,,,,,,,,,,,,,,,,,l,0,1.6552602000010666,,,,,,,,,,,,hjh,m,26,2024_Apr_18_1845,mian,2021.2.3,59.8937245742616,
F8,2,1,8.0,l,"[-0.2, -0.2]",,,,,,,,2,0,2,0,0,6,6,6,,,,,,,,,,,,,,,,,,,,,,,,,l,1,2.909232099998917,,,,,,,,,,,,hjh,m,26,2024_Apr_18_1845,mian,2021.2.3,59.8937245742616,
h7,2,2,7.0,a,"[0.2, -0.2]",,,,,,,,2,0,2,0,0,7,7,7,,,,,,,,,,,,,,,,,,,,,,,,,a,1,1.2469077999994624,,,,,,,,,,,,hjh,m,26,2024_Apr_18_1845,mian,2021.2.3,59.8937245742616,
5e,1,1,e,l,"[0.2, 0.2]",,,,,,,,2,0,2,0,0,8,8,8,,,,,,,,,,,,,,,,,,,,,,,,,l,1,2.1651504000001296,,,,,,,,,,,,hjh,m,26,2024_Apr_18_1845,mian,2021.2.3,59.8937245742616,
e8,1,2,e,l,"[-0.2, 0.2]",,,,,,,,2,0,2,0,0,9,9,9,,,,,,,,,,,,,,,,,,,,,,,,,l,1,0.6596049999971001,,,,,,,,,,,,hjh,m,26,2024_Apr_18_1845,mian,2021.2.3,59.8937245742616,
4E,2,1,4.0,l,"[-0.2, -0.2]",,,,,,,,2,0,2,0,0,10,10,10,,,,,,,,,,,,,,,,,,,,,,,,,l,1,1.9341419000011228,,,,,,,,,,,,hjh,m,26,2024_Apr_18_1845,mian,2021.2.3,59.8937245742616,
5H,2,2,5.0,a,"[0.2, -0.2]",,,,,,,,2,0,2,0,0,11,11,11,,,,,,,,,,,,,,,,,,,,,,,,,a,1,0.6244067000006908,,,,,,,,,,,,hjh,m,26,2024_Apr_18_1845,mian,2021.2.3,59.8937245742616,
9E,1,1,E,a,"[0.2, 0.2]",,,,,,,,2,0,2,0,0,12,12,12,,,,,,,,,,,,,,,,,,,,,,,,,a,1,2.320599399998173,,,,,,,,,,,,hjh,m,26,2024_Apr_18_1845,mian,2021.2.3,59.8937245742616,
h9,1,2,h,l,"[-0.2, 0.2]",,,,,,,,2,0,2,0,0,13,13,13,,,,,,,,,,,,,,,,,,,,,,,,,l,1,1.958071299999574,,,,,,,,,,,,hjh,m,26,2024_Apr_18_1845,mian,2021.2.3,59.8937245742616,
2a,2,1,2.0,l,"[-0.2, -0.2]",,,,,,,,2,0,2,0,0,14,14,14,,,,,,,,,,,,,,,,,,,,,,,,,a,0,3.3504257000022335,,,,,,,,,,,,hjh,m,26,2024_Apr_18_1845,mian,2021.2.3,59.8937245742616,
e5,2,2,5.0,a,"[0.2, -0.2]",,,,,,,,2,0,2,0,0,15,15,15,,,,,,,,,,,,,,,,,,,,,,,,,a,1,0.8796604000017396,,,,,,,,,,,,hjh,m,26,2024_Apr_18_1845,mian,2021.2.3,59.8937245742616,
A5,1,1,A,a,"[0.2, 0.2]",,,,,,,,2,0,2,0,0,16,16,16,,,,,,,,,,,,,,,,,,,,,,,,,a,1,1.459067600000708,,,,,,,,,,,,hjh,m,26,2024_Apr_18_1845,mian,2021.2.3,59.8937245742616,
a6,1,2,a,l,"[-0.2, 0.2]",,,,,,,,2,0,2,0,0,17,17,17,,,,,,,,,,,,,,,,,,,,,,,,,l,1,0.809407699998701,,,,,,,,,,,,hjh,m,26,2024_Apr_18_1845,mian,2021.2.3,59.8937245742616,
2F,2,1,2.0,l,"[-0.2, -0.2]",,,,,,,,2,0,2,0,0,18,18,18,,,,,,,,,,,,,,,,,,,,,,,,,l,1,2.205816000001505,,,,,,,,,,,,hjh,m,26,2024_Apr_18_1845,mian,2021.2.3,59.8937245742616,
e4,2,2,4.0,l,"[0.2, -0.2]",,,,,,,,2,0,2,0,0,19,19,19,,,,,,,,,,,,,,,,,,,,,,,,,l,1,0.9649900000003981,,,,,,,,,,,,hjh,m,26,2024_Apr_18_1845,mian,2021.2.3,59.8937245742616,
,,,,,,,,,,,,,2,0,2,0,,,,,,,,,,,,,,,,,,,,,,,,,,,,,,,,,,,,,,,,,,,hjh,m,26,2024_Apr_18_1845,mian,2021.2.3,59.8937245742616,
7h,1,1,h,l,"[0.2, 0.2]",,,,,,,,,,,,,,,,0,0,0,0,,,,,,,,,,,,,,,,,,,,,l,1,2.838966100000107,,,,,,,,,,,,hjh,m,26,2024_Apr_18_1845,mian,2021.2.3,59.8937245742616,
8F,1,2,F,a,"[-0.2, 0.2]",,,,,,,,,,,,,,,,0,1,1,1,,,,,,,,,,,,,,,,,,,,,a,1,2.222282999999152,,,,,,,,,,,,hjh,m,26,2024_Apr_18_1845,mian,2021.2.3,59.8937245742616,
8h,2,1,8.0,l,"[-0.2, -0.2]",,,,,,,,,,,,,,,,0,2,2,2,,,,,,,,,,,,,,,,,,,,,l,1,3.045609200002218,,,,,,,,,,,,hjh,m,26,2024_Apr_18_1845,mian,2021.2.3,59.8937245742616,
a2,2,2,2.0,l,"[0.2, -0.2]",,,,,,,,,,,,,,,,0,3,3,3,,,,,,,,,,,,,,,,,,,,,l,1,0.8684482999997272,,,,,,,,,,,,hjh,m,26,2024_Apr_18_1845,mian,2021.2.3,59.8937245742616,
8f,1,1,f,l,"[0.2, 0.2]",,,,,,,,,,,,,,,,0,4,4,4,,,,,,,,,,,,,,,,,,,,,l,1,2.6865610999993805,,,,,,,,,,,,hjh,m,26,2024_Apr_18_1845,mian,2021.2.3,59.8937245742616,
6a,1,2,a,l,"[-0.2, 0.2]",,,,,,,,,,,,,,,,0,5,5,5,,,,,,,,,,,,,,,,,,,,,l,1,1.5579799999977695,,,,,,,,,,,,hjh,m,26,2024_Apr_18_1845,mian,2021.2.3,59.8937245742616,
h6,2,1,6.0,l,"[-0.2, -0.2]",,,,,,,,,,,,,,,,0,6,6,6,,,,,,,,,,,,,,,,,,,,,l,1,3.670320900000661,,,,,,,,,,,,hjh,m,26,2024_Apr_18_1845,mian,2021.2.3,59.8937245742616,
f9,2,2,9.0,a,"[0.2, -0.2]",,,,,,,,,,,,,,,,0,7,7,7,,,,,,,,,,,,,,,,,,,,,a,1,0.8992106000005151,,,,,,,,,,,,hjh,m,26,2024_Apr_18_1845,mian,2021.2.3,59.8937245742616,
E4,1,1,E,a,"[0.2, 0.2]",,,,,,,,,,,,,,,,0,8,8,8,,,,,,,,,,,,,,,,,,,,,a,1,1.9586268000020937,,,,,,,,,,,,hjh,m,26,2024_Apr_18_1845,mian,2021.2.3,59.8937245742616,
6e,1,2,e,l,"[-0.2, 0.2]",,,,,,,,,,,,,,,,0,9,9,9,,,,,,,,,,,,,,,,,,,,,l,1,0.858692499998142,,,,,,,,,,,,hjh,m,26,2024_Apr_18_1845,mian,2021.2.3,59.8937245742616,
5G,2,1,5.0,a,"[-0.2, -0.2]",,,,,,,,,,,,,,,,0,10,10,10,,,,,,,,,,,,,,,,,,,,,a,1,1.8235671000002185,,,,,,,,,,,,hjh,m,26,2024_Apr_18_1845,mian,2021.2.3,59.8937245742616,
h3,2,2,3.0,a,"[0.2, -0.2]",,,,,,,,,,,,,,,,0,11,11,11,,,,,,,,,,,,,,,,,,,,,a,1,0.7112542999966536,,,,,,,,,,,,hjh,m,26,2024_Apr_18_1845,mian,2021.2.3,59.8937245742616,
9e,1,1,e,l,"[0.2, 0.2]",,,,,,,,,,,,,,,,0,12,12,12,,,,,,,,,,,,,,,,,,,,,l,1,1.82783389999895,,,,,,,,,,,,hjh,m,26,2024_Apr_18_1845,mian,2021.2.3,59.8937245742616,
a8,1,2,a,l,"[-0.2, 0.2]",,,,,,,,,,,,,,,,0,13,13,13,,,,,,,,,,,,,,,,,,,,,l,1,1.5252995000009832,,,,,,,,,,,,hjh,m,26,2024_Apr_18_1845,mian,2021.2.3,59.8937245742616,
e8,2,1,8.0,l,"[-0.2, -0.2]",,,,,,,,,,,,,,,,0,14,14,14,,,,,,,,,,,,,,,,,,,,,a,0,1.7900700999998662,,,,,,,,,,,,hjh,m,26,2024_Apr_18_1845,mian,2021.2.3,59.8937245742616,
3f,2,2,3.0,a,"[0.2, -0.2]",,,,,,,,,,,,,,,,0,15,15,15,,,,,,,,,,,,,,,,,,,,,a,1,2.4964092999980494,,,,,,,,,,,,hjh,m,26,2024_Apr_18_1845,mian,2021.2.3,59.8937245742616,
7f,1,1,f,l,"[0.2, 0.2]",,,,,,,,,,,,,,,,0,16,16,16,,,,,,,,,,,,,,,,,,,,,l,1,3.3455216999973345,,,,,,,,,,,,hjh,m,26,2024_Apr_18_1845,mian,2021.2.3,59.8937245742616,
a7,1,2,a,l,"[-0.2, 0.2]",,,,,,,,,,,,,,,,0,17,17,17,,,,,,,,,,,,,,,,,,,,,l,1,2.515071199999511,,,,,,,,,,,,hjh,m,26,2024_Apr_18_1845,mian,2021.2.3,59.8937245742616,
5A,2,1,5.0,a,"[-0.2, -0.2]",,,,,,,,,,,,,,,,0,18,18,18,,,,,,,,,,,,,,,,,,,,,a,1,1.3558352999971248,,,,,,,,,,,,hjh,m,26,2024_Apr_18_1845,mian,2021.2.3,59.8937245742616,
8g,2,2,8.0,l,"[0.2, -0.2]",,,,,,,,,,,,,,,,0,19,19,19,,,,,,,,,,,,,,,,,,,,,l,1,1.3942167999994126,,,,,,,,,,,,hjh,m,26,2024_Apr_18_1845,mian,2021.2.3,59.8937245742616,
9a,1,1,a,l,"[0.2, 0.2]",,,,,,,,,,,,,,,,0,20,20,20,,,,,,,,,,,,,,,,,,,,,l,1,2.069703600001958,,,,,,,,,,,,hjh,m,26,2024_Apr_18_1845,mian,2021.2.3,59.8937245742616,
f7,1,2,f,l,"[-0.2, 0.2]",,,,,,,,,,,,,,,,0,21,21,21,,,,,,,,,,,,,,,,,,,,,l,1,1.2940278999994916,,,,,,,,,,,,hjh,m,26,2024_Apr_18_1845,mian,2021.2.3,59.8937245742616,
g9,2,1,9.0,a,"[-0.2, -0.2]",,,,,,,,,,,,,,,,0,22,22,22,,,,,,,,,,,,,,,,,,,,,l,0,1.9315710000009858,,,,,,,,,,,,hjh,m,26,2024_Apr_18_1845,mian,2021.2.3,59.8937245742616,
3h,2,2,3.0,a,"[0.2, -0.2]",,,,,,,,,,,,,,,,0,23,23,23,,,,,,,,,,,,,,,,,,,,,a,1,1.843758799997886,,,,,,,,,,,,hjh,m,26,2024_Apr_18_1845,mian,2021.2.3,59.8937245742616,
E6,1,1,E,a,"[0.2, 0.2]",,,,,,,,,,,,,,,,0,24,24,24,,,,,,,,,,,,,,,,,,,,,a,1,2.392423499997676,,,,,,,,,,,,hjh,m,26,2024_Apr_18_1845,mian,2021.2.3,59.8937245742616,
F6,1,2,F,a,"[-0.2, 0.2]",,,,,,,,,,,,,,,,0,25,25,25,,,,,,,,,,,,,,,,,,,,,a,1,1.0700857000010728,,,,,,,,,,,,hjh,m,26,2024_Apr_18_1845,mian,2021.2.3,59.8937245742616,
3A,2,1,3.0,a,"[-0.2, -0.2]",,,,,,,,,,,,,,,,0,26,26,26,,,,,,,,,,,,,,,,,,,,,a,1,2.233922600000369,,,,,,,,,,,,hjh,m,26,2024_Apr_18_1845,mian,2021.2.3,59.8937245742616,
8H,2,2,8.0,l,"[0.2, -0.2]",,,,,,,,,,,,,,,,0,27,27,27,,,,,,,,,,,,,,,,,,,,,l,1,0.7032360000011977,,,,,,,,,,,,hjh,m,26,2024_Apr_18_1845,mian,2021.2.3,59.8937245742616,
5a,1,1,a,l,"[0.2, 0.2]",,,,,,,,,,,,,,,,0,28,28,28,,,,,,,,,,,,,,,,,,,,,l,1,4.138180699999793,,,,,,,,,,,,hjh,m,26,2024_Apr_18_1845,mian,2021.2.3,59.8937245742616,
2h,1,2,h,l,"[-0.2, 0.2]",,,,,,,,,,,,,,,,0,29,29,29,,,,,,,,,,,,,,,,,,,,,l,1,0.4768943999988551,,,,,,,,,,,,hjh,m,26,2024_Apr_18_1845,mian,2021.2.3,59.8937245742616,
e5,2,1,5.0,a,"[-0.2, -0.2]",,,,,,,,,,,,,,,,0,30,30,30,,,,,,,,,,,,,,,,,,,,,a,1,2.1292271000020264,,,,,,,,,,,,hjh,m,26,2024_Apr_18_1845,mian,2021.2.3,59.8937245742616,
a3,2,2,3.0,a,"[0.2, -0.2]",,,,,,,,,,,,,,,,0,31,31,31,,,,,,,,,,,,,,,,,,,,,a,1,1.0845402000013564,,,,,,,,,,,,hjh,m,26,2024_Apr_18_1845,mian,2021.2.3,59.8937245742616,
f3,1,1,f,l,"[0.2, 0.2]",,,,,,,,,,,,,,,,0,32,32,32,,,,,,,,,,,,,,,,,,,,,l,1,1.827003300000797,,,,,,,,,,,,hjh,m,26,2024_Apr_18_1845,mian,2021.2.3,59.8937245742616,
2E,1,2,E,a,"[-0.2, 0.2]",,,,,,,,,,,,,,,,0,33,33,33,,,,,,,,,,,,,,,,,,,,,a,1,0.6252818000029947,,,,,,,,,,,,hjh,m,26,2024_Apr_18_1845,mian,2021.2.3,59.8937245742616,
2H,2,1,2.0,l,"[-0.2, -0.2]",,,,,,,,,,,,,,,,0,34,34,34,,,,,,,,,,,,,,,,,,,,,l,1,2.897215299999516,,,,,,,,,,,,hjh,m,26,2024_Apr_18_1845,mian,2021.2.3,59.8937245742616,
H8,2,2,8.0,l,"[0.2, -0.2]",,,,,,,,,,,,,,,,0,35,35,35,,,,,,,,,,,,,,,,,,,,,l,1,0.7220503999997163,,,,,,,,,,,,hjh,m,26,2024_Apr_18_1845,mian,2021.2.3,59.8937245742616,
9g,1,1,g,l,"[0.2, 0.2]",,,,,,,,,,,,,,,,0,36,36,36,,,,,,,,,,,,,,,,,,,,,l,1,2.4875213999985135,,,,,,,,,,,,hjh,m,26,2024_Apr_18_1845,mian,2021.2.3,59.8937245742616,
5h,1,2,h,l,"[-0.2, 0.2]",,,,,,,,,,,,,,,,0,37,37,37,,,,,,,,,,,,,,,,,,,,,l,1,0.6581874000003154,,,,,,,,,,,,hjh,m,26,2024_Apr_18_1845,mian,2021.2.3,59.8937245742616,
e4,2,1,4.0,l,"[-0.2, -0.2]",,,,,,,,,,,,,,,,0,38,38,38,,,,,,,,,,,,,,,,,,,,,l,1,3.0085540000000037,,,,,,,,,,,,hjh,m,26,2024_Apr_18_1845,mian,2021.2.3,59.8937245742616,
9h,2,2,9.0,a,"[0.2, -0.2]",,,,,,,,,,,,,,,,0,39,39,39,,,,,,,,,,,,,,,,,,,,,a,1,1.8605483999999706,,,,,,,,,,,,hjh,m,26,2024_Apr_18_1845,mian,2021.2.3,59.8937245742616,
G3,1,1,G,a,"[0.2, 0.2]",,,,,,,,,,,,,,,,0,40,40,40,,,,,,,,,,,,,,,,,,,,,l,0,2.030741799997486,,,,,,,,,,,,hjh,m,26,2024_Apr_18_1845,mian,2021.2.3,59.8937245742616,
9A,1,2,A,a,"[-0.2, 0.2]",,,,,,,,,,,,,,,,0,41,41,41,,,,,,,,,,,,,,,,,,,,,l,0,1.736769799998001,,,,,,,,,,,,hjh,m,26,2024_Apr_18_1845,mian,2021.2.3,59.8937245742616,
H5,2,1,5.0,a,"[-0.2, -0.2]",,,,,,,,,,,,,,,,0,42,42,42,,,,,,,,,,,,,,,,,,,,,a,1,1.306516399999964,,,,,,,,,,,,hjh,m,26,2024_Apr_18_1845,mian,2021.2.3,59.8937245742616,
4e,2,2,4.0,l,"[0.2, -0.2]",,,,,,,,,,,,,,,,0,43,43,43,,,,,,,,,,,,,,,,,,,,,l,1,0.7871324999978242,,,,,,,,,,,,hjh,m,26,2024_Apr_18_1845,mian,2021.2.3,59.8937245742616,
E2,1,1,E,a,"[0.2, 0.2]",,,,,,,,,,,,,,,,0,44,44,44,,,,,,,,,,,,,,,,,,,,,l,0,2.642650500001764,,,,,,,,,,,,hjh,m,26,2024_Apr_18_1845,mian,2021.2.3,59.8937245742616,
A5,1,2,A,a,"[-0.2, 0.2]",,,,,,,,,,,,,,,,0,45,45,45,,,,,,,,,,,,,,,,,,,,,l,0,0.547534799999994,,,,,,,,,,,,hjh,m,26,2024_Apr_18_1845,mian,2021.2.3,59.8937245742616,
2A,2,1,2.0,l,"[-0.2, -0.2]",,,,,,,,,,,,,,,,0,46,46,46,,,,,,,,,,,,,,,,,,,,,l,1,2.6210743999981787,,,,,,,,,,,,hjh,m,26,2024_Apr_18_1845,mian,2021.2.3,59.8937245742616,
6G,2,2,6.0,l,"[0.2, -0.2]",,,,,,,,,,,,,,,,0,47,47,47,,,,,,,,,,,,,,,,,,,,,l,1,0.6670226000023831,,,,,,,,,,,,hjh,m,26,2024_Apr_18_1845,mian,2021.2.3,59.8937245742616,
H3,1,1,H,a,"[0.2, 0.2]",,,,,,,,,,,,,,,,0,48,48,48,,,,,,,,,,,,,,,,,,,,,a,1,4.115266799999517,,,,,,,,,,,,hjh,m,26,2024_Apr_18_1845,mian,2021.2.3,59.8937245742616,
H2,1,2,H,a,"[-0.2, 0.2]",,,,,,,,,,,,,,,,0,49,49,49,,,,,,,,,,,,,,,,,,,,,a,1,0.39558109999779845,,,,,,,,,,,,hjh,m,26,2024_Apr_18_1845,mian,2021.2.3,59.8937245742616,
e9,2,1,9.0,a,"[-0.2, -0.2]",,,,,,,,,,,,,,,,0,50,50,50,,,,,,,,,,,,,,,,,,,,,a,1,2.8961902000010014,,,,,,,,,,,,hjh,m,26,2024_Apr_18_1845,mian,2021.2.3,59.8937245742616,
2G,2,2,2.0,l,"[0.2, -0.2]",,,,,,,,,,,,,,,,0,51,51,51,,,,,,,,,,,,,,,,,,,,,l,1,1.3800646000017878,,,,,,,,,,,,hjh,m,26,2024_Apr_18_1845,mian,2021.2.3,59.8937245742616,
4f,1,1,f,l,"[0.2, 0.2]",,,,,,,,,,,,,,,,0,52,52,52,,,,,,,,,,,,,,,,,,,,,l,1,0.9272163000023284,,,,,,,,,,,,hjh,m,26,2024_Apr_18_1845,mian,2021.2.3,59.8937245742616,
H6,1,2,H,a,"[-0.2, 0.2]",,,,,,,,,,,,,,,,0,53,53,53,,,,,,,,,,,,,,,,,,,,,a,1,0.5450916000008874,,,,,,,,,,,,hjh,m,26,2024_Apr_18_1845,mian,2021.2.3,59.8937245742616,
A4,2,1,4.0,l,"[-0.2, -0.2]",,,,,,,,,,,,,,,,0,54,54,54,,,,,,,,,,,,,,,,,,,,,l,1,2.5927119000007224,,,,,,,,,,,,hjh,m,26,2024_Apr_18_1845,mian,2021.2.3,59.8937245742616,
3F,2,2,3.0,a,"[0.2, -0.2]",,,,,,,,,,,,,,,,0,55,55,55,,,,,,,,,,,,,,,,,,,,,a,1,0.6174321000034979,,,,,,,,,,,,hjh,m,26,2024_Apr_18_1845,mian,2021.2.3,59.8937245742616,
7e,1,1,e,l,"[0.2, 0.2]",,,,,,,,,,,,,,,,0,56,56,56,,,,,,,,,,,,,,,,,,,,,l,1,0.9341518000001088,,,,,,,,,,,,hjh,m,26,2024_Apr_18_1845,mian,2021.2.3,59.8937245742616,
F9,1,2,F,a,"[-0.2, 0.2]",,,,,,,,,,,,,,,,0,57,57,57,,,,,,,,,,,,,,,,,,,,,a,1,0.6277589000019361,,,,,,,,,,,,hjh,m,26,2024_Apr_18_1845,mian,2021.2.3,59.8937245742616,
e2,2,1,2.0,l,"[-0.2, -0.2]",,,,,,,,,,,,,,,,0,58,58,58,,,,,,,,,,,,,,,,,,,,,l,1,3.0752345000000787,,,,,,,,,,,,hjh,m,26,2024_Apr_18_1845,mian,2021.2.3,59.8937245742616,
5F,2,2,5.0,a,"[0.2, -0.2]",,,,,,,,,,,,,,,,0,59,59,59,,,,,,,,,,,,,,,,,,,,,a,1,0.9849409000016749,,,,,,,,,,,,hjh,m,26,2024_Apr_18_1845,mian,2021.2.3,59.8937245742616,
f6,1,1,f,l,"[0.2, 0.2]",,,,,,,,,,,,,,,,0,60,60,60,,,,,,,,,,,,,,,,,,,,,l,1,0.9631975000011153,,,,,,,,,,,,hjh,m,26,2024_Apr_18_1845,mian,2021.2.3,59.8937245742616,
7G,1,2,G,a,"[-0.2, 0.2]",,,,,,,,,,,,,,,,0,61,61,61,,,,,,,,,,,,,,,,,,,,,a,1,0.6418324000005668,,,,,,,,,,,,hjh,m,26,2024_Apr_18_1845,mian,2021.2.3,59.8937245742616,
e6,2,1,6.0,l,"[-0.2, -0.2]",,,,,,,,,,,,,,,,0,62,62,62,,,,,,,,,,,,,,,,,,,,,l,1,1.6422272999989218,,,,,,,,,,,,hjh,m,26,2024_Apr_18_1845,mian,2021.2.3,59.8937245742616,
3G,2,2,3.0,a,"[0.2, -0.2]",,,,,,,,,,,,,,,,0,63,63,63,,,,,,,,,,,,,,,,,,,,,a,1,0.5947551000026579,,,,,,,,,,,,hjh,m,26,2024_Apr_18_1845,mian,2021.2.3,59.8937245742616,
5E,1,1,E,a,"[0.2, 0.2]",,,,,,,,,,,,,,,,0,64,64,64,,,,,,,,,,,,,,,,,,,,,a,1,2.09824479999952,,,,,,,,,,,,hjh,m,26,2024_Apr_18_1845,mian,2021.2.3,59.8937245742616,
A6,1,2,A,a,"[-0.2, 0.2]",,,,,,,,,,,,,,,,0,65,65,65,,,,,,,,,,,,,,,,,,,,,a,1,0.5245153999967442,,,,,,,,,,,,hjh,m,26,2024_Apr_18_1845,mian,2021.2.3,59.8937245742616,
E3,2,1,3.0,a,"[-0.2, -0.2]",,,,,,,,,,,,,,,,0,66,66,66,,,,,,,,,,,,,,,,,,,,,a,1,1.2861706000003323,,,,,,,,,,,,hjh,m,26,2024_Apr_18_1845,mian,2021.2.3,59.8937245742616,
2f,2,2,2.0,l,"[0.2, -0.2]",,,,,,,,,,,,,,,,0,67,67,67,,,,,,,,,,,,,,,,,,,,,l,1,1.57979609999893,,,,,,,,,,,,hjh,m,26,2024_Apr_18_1845,mian,2021.2.3,59.8937245742616,
g3,1,1,g,l,"[0.2, 0.2]",,,,,,,,,,,,,,,,0,68,68,68,,,,,,,,,,,,,,,,,,,,,l,1,1.8447443999975803,,,,,,,,,,,,hjh,m,26,2024_Apr_18_1845,mian,2021.2.3,59.8937245742616,
E8,1,2,E,a,"[-0.2, 0.2]",,,,,,,,,,,,,,,,0,69,69,69,,,,,,,,,,,,,,,,,,,,,a,1,0.5010371000025771,,,,,,,,,,,,hjh,m,26,2024_Apr_18_1845,mian,2021.2.3,59.8937245742616,
6g,2,1,6.0,l,"[-0.2, -0.2]",,,,,,,,,,,,,,,,0,70,70,70,,,,,,,,,,,,,,,,,,,,,l,1,3.0024909999992815,,,,,,,,,,,,hjh,m,26,2024_Apr_18_1845,mian,2021.2.3,59.8937245742616,
5H,2,2,5.0,a,"[0.2, -0.2]",,,,,,,,,,,,,,,,0,71,71,71,,,,,,,,,,,,,,,,,,,,,a,1,0.7561880999965069,,,,,,,,,,,,hjh,m,26,2024_Apr_18_1845,mian,2021.2.3,59.8937245742616,
4A,1,1,A,a,"[0.2, 0.2]",,,,,,,,,,,,,,,,0,72,72,72,,,,,,,,,,,,,,,,,,,,,a,1,1.3840960999987146,,,,,,,,,,,,hjh,m,26,2024_Apr_18_1845,mian,2021.2.3,59.8937245742616,
7F,1,2,F,a,"[-0.2, 0.2]",,,,,,,,,,,,,,,,0,73,73,73,,,,,,,,,,,,,,,,,,,,,a,1,2.3708081999975548,,,,,,,,,,,,hjh,m,26,2024_Apr_18_1845,mian,2021.2.3,59.8937245742616,
6H,2,1,6.0,l,"[-0.2, -0.2]",,,,,,,,,,,,,,,,0,74,74,74,,,,,,,,,,,,,,,,,,,,,l,1,4.120685500001855,,,,,,,,,,,,hjh,m,26,2024_Apr_18_1845,mian,2021.2.3,59.8937245742616,
3a,2,2,3.0,a,"[0.2, -0.2]",,,,,,,,,,,,,,,,0,75,75,75,,,,,,,,,,,,,,,,,,,,,a,1,0.494895899999392,,,,,,,,,,,,hjh,m,26,2024_Apr_18_1845,mian,2021.2.3,59.8937245742616,
9F,1,1,F,a,"[0.2, 0.2]",,,,,,,,,,,,,,,,0,76,76,76,,,,,,,,,,,,,,,,,,,,,a,1,2.8001500999998825,,,,,,,,,,,,hjh,m,26,2024_Apr_18_1845,mian,2021.2.3,59.8937245742616,
G7,1,2,G,a,"[-0.2, 0.2]",,,,,,,,,,,,,,,,0,77,77,77,,,,,,,,,,,,,,,,,,,,,a,1,0.4040907000016887,,,,,,,,,,,,hjh,m,26,2024_Apr_18_1845,mian,2021.2.3,59.8937245742616,
a6,2,1,6.0,l,"[-0.2, -0.2]",,,,,,,,,,,,,,,,0,78,78,78,,,,,,,,,,,,,,,,,,,,,l,1,1.377606599999126,,,,,,,,,,,,hjh,m,26,2024_Apr_18_1845,mian,2021.2.3,59.8937245742616,
4h,2,2,4.0,l,"[0.2, -0.2]",,,,,,,,,,,,,,,,0,79,79,79,,,,,,,,,,,,,,,,,,,,,l,1,0.7803554000020085,,,,,,,,,,,,hjh,m,26,2024_Apr_18_1845,mian,2021.2.3,59.8937245742616,
6A,1,1,A,a,"[0.2, 0.2]",,,,,,,,,,,,,,,,,,,,0,0,0,0,,,,,,,,,,,,,,,,,a,1,2.1168448999997054,,,,,,,,,,,,hjh,m,26,2024_Apr_18_1845,mian,2021.2.3,59.8937245742616,
4H,1,2,H,a,"[-0.2, 0.2]",,,,,,,,,,,,,,,,,,,,0,1,1,1,,,,,,,,,,,,,,,,,a,1,0.43386139999711304,,,,,,,,,,,,hjh,m,26,2024_Apr_18_1845,mian,2021.2.3,59.8937245742616,
3H,2,1,3.0,a,"[-0.2, -0.2]",,,,,,,,,,,,,,,,,,,,0,2,2,2,,,,,,,,,,,,,,,,,a,1,1.26813089999996,,,,,,,,,,,,hjh,m,26,2024_Apr_18_1845,mian,2021.2.3,59.8937245742616,
a9,2,2,9.0,a,"[0.2, -0.2]",,,,,,,,,,,,,,,,,,,,0,3,3,3,,,,,,,,,,,,,,,,,a,1,1.1829139000001305,,,,,,,,,,,,hjh,m,26,2024_Apr_18_1845,mian,2021.2.3,59.8937245742616,
E7,1,1,E,a,"[0.2, 0.2]",,,,,,,,,,,,,,,,,,,,0,4,4,4,,,,,,,,,,,,,,,,,a,1,1.452676100001554,,,,,,,,,,,,hjh,m,26,2024_Apr_18_1845,mian,2021.2.3,59.8937245742616,
6h,1,2,h,l,"[-0.2, 0.2]",,,,,,,,,,,,,,,,,,,,0,5,5,5,,,,,,,,,,,,,,,,,l,1,0.4513173999985156,,,,,,,,,,,,hjh,m,26,2024_Apr_18_1845,mian,2021.2.3,59.8937245742616,
8A,2,1,8.0,l,"[-0.2, -0.2]",,,,,,,,,,,,,,,,,,,,0,6,6,6,,,,,,,,,,,,,,,,,l,1,1.0588447000009182,,,,,,,,,,,,hjh,m,26,2024_Apr_18_1845,mian,2021.2.3,59.8937245742616,
f5,2,2,5.0,a,"[0.2, -0.2]",,,,,,,,,,,,,,,,,,,,0,7,7,7,,,,,,,,,,,,,,,,,a,1,2.492288000001281,,,,,,,,,,,,hjh,m,26,2024_Apr_18_1845,mian,2021.2.3,59.8937245742616,
2a,1,1,a,l,"[0.2, 0.2]",,,,,,,,,,,,,,,,,,,,0,8,8,8,,,,,,,,,,,,,,,,,l,1,1.5582754999995814,,,,,,,,,,,,hjh,m,26,2024_Apr_18_1845,mian,2021.2.3,59.8937245742616,
F7,1,2,F,a,"[-0.2, 0.2]",,,,,,,,,,,,,,,,,,,,0,9,9,9,,,,,,,,,,,,,,,,,a,1,0.9851469999994151,,,,,,,,,,,,hjh,m,26,2024_Apr_18_1845,mian,2021.2.3,59.8937245742616,
h2,2,1,2.0,l,"[-0.2, -0.2]",,,,,,,,,,,,,,,,,,,,0,10,10,10,,,,,,,,,,,,,,,,,l,1,3.087284000001091,,,,,,,,,,,,hjh,m,26,2024_Apr_18_1845,mian,2021.2.3,59.8937245742616,
F5,2,2,5.0,a,"[0.2, -0.2]",,,,,,,,,,,,,,,,,,,,0,11,11,11,,,,,,,,,,,,,,,,,a,1,1.01984739999898,,,,,,,,,,,,hjh,m,26,2024_Apr_18_1845,mian,2021.2.3,59.8937245742616,
A9,1,1,A,a,"[0.2, 0.2]",,,,,,,,,,,,,,,,,,,,0,12,12,12,,,,,,,,,,,,,,,,,a,1,1.5789660999980697,,,,,,,,,,,,hjh,m,26,2024_Apr_18_1845,mian,2021.2.3,59.8937245742616,
3e,1,2,e,l,"[-0.2, 0.2]",,,,,,,,,,,,,,,,,,,,0,13,13,13,,,,,,,,,,,,,,,,,l,1,0.548224800000753,,,,,,,,,,,,hjh,m,26,2024_Apr_18_1845,mian,2021.2.3,59.8937245742616,
f8,2,1,8.0,l,"[-0.2, -0.2]",,,,,,,,,,,,,,,,,,,,0,14,14,14,,,,,,,,,,,,,,,,,l,1,2.3246416000001773,,,,,,,,,,,,hjh,m,26,2024_Apr_18_1845,mian,2021.2.3,59.8937245742616,
G2,2,2,2.0,l,"[0.2, -0.2]",,,,,,,,,,,,,,,,,,,,0,15,15,15,,,,,,,,,,,,,,,,,l,1,1.8752114999988407,,,,,,,,,,,,hjh,m,26,2024_Apr_18_1845,mian,2021.2.3,59.8937245742616,
F2,1,1,F,a,"[0.2, 0.2]",,,,,,,,,,,,,,,,,,,,0,16,16,16,,,,,,,,,,,,,,,,,a,1,1.6362687000000733,,,,,,,,,,,,hjh,m,26,2024_Apr_18_1845,mian,2021.2.3,59.8937245742616,
5e,1,2,e,l,"[-0.2, 0.2]",,,,,,,,,,,,,,,,,,,,0,17,17,17,,,,,,,,,,,,,,,,,l,1,0.6087385999999242,,,,,,,,,,,,hjh,m,26,2024_Apr_18_1845,mian,2021.2.3,59.8937245742616,
A3,2,1,3.0,a,"[-0.2, -0.2]",,,,,,,,,,,,,,,,,,,,0,18,18,18,,,,,,,,,,,,,,,,,a,1,0.9274398000015935,,,,,,,,,,,,hjh,m,26,2024_Apr_18_1845,mian,2021.2.3,59.8937245742616,
4g,2,2,4.0,l,"[0.2, -0.2]",,,,,,,,,,,,,,,,,,,,0,19,19,19,,,,,,,,,,,,,,,,,l,1,0.7972171000001254,,,,,,,,,,,,hjh,m,26,2024_Apr_18_1845,mian,2021.2.3,59.8937245742616,
h7,1,1,h,l,"[0.2, 0.2]",,,,,,,,,,,,,,,,,,,,0,20,20,20,,,,,,,,,,,,,,,,,l,1,0.9965092999991612,,,,,,,,,,,,hjh,m,26,2024_Apr_18_1845,mian,2021.2.3,59.8937245742616,
3g,1,2,g,l,"[-0.2, 0.2]",,,,,,,,,,,,,,,,,,,,0,21,21,21,,,,,,,,,,,,,,,,,l,1,0.5326578000021982,,,,,,,,,,,,hjh,m,26,2024_Apr_18_1845,mian,2021.2.3,59.8937245742616,
8a,2,1,8.0,l,"[-0.2, -0.2]",,,,,,,,,,,,,,,,,,,,0,22,22,22,,,,,,,,,,,,,,,,,a,0,1.6354919000004884,,,,,,,,,,,,hjh,m,26,2024_Apr_18_1845,mian,2021.2.3,59.8937245742616,
4E,2,2,4.0,l,"[0.2, -0.2]",,,,,,,,,,,,,,,,,,,,0,23,23,23,,,,,,,,,,,,,,,,,l,1,2.3419299999986833,,,,,,,,,,,,hjh,m,26,2024_Apr_18_1845,mian,2021.2.3,59.8937245742616,
E5,1,1,E,a,"[0.2, 0.2]",,,,,,,,,,,,,,,,,,,,0,24,24,24,,,,,,,,,,,,,,,,,a,1,1.2762753000024532,,,,,,,,,,,,hjh,m,26,2024_Apr_18_1845,mian,2021.2.3,59.8937245742616,
g6,1,2,g,l,"[-0.2, 0.2]",,,,,,,,,,,,,,,,,,,,0,25,25,25,,,,,,,,,,,,,,,,,l,1,0.543226700003288,,,,,,,,,,,,hjh,m,26,2024_Apr_18_1845,mian,2021.2.3,59.8937245742616,
2e,2,1,2.0,l,"[-0.2, -0.2]",,,,,,,,,,,,,,,,,,,,0,26,26,26,,,,,,,,,,,,,,,,,None,0,,,,,,,,,,,,,hjh,m,26,2024_Apr_18_1845,mian,2021.2.3,59.8937245742616,
h8,2,2,8.0,l,"[0.2, -0.2]",,,,,,,,,,,,,,,,,,,,0,27,27,27,,,,,,,,,,,,,,,,,l,1,1.9359298000017588,,,,,,,,,,,,hjh,m,26,2024_Apr_18_1845,mian,2021.2.3,59.8937245742616,
G6,1,1,G,a,"[0.2, 0.2]",,,,,,,,,,,,,,,,,,,,0,28,28,28,,,,,,,,,,,,,,,,,a,1,1.0106860999985656,,,,,,,,,,,,hjh,m,26,2024_Apr_18_1845,mian,2021.2.3,59.8937245742616,
a4,1,2,a,l,"[-0.2, 0.2]",,,,,,,,,,,,,,,,,,,,0,29,29,29,,,,,,,,,,,,,,,,,l,1,0.5349456000003556,,,,,,,,,,,,hjh,m,26,2024_Apr_18_1845,mian,2021.2.3,59.8937245742616,
9H,2,1,9.0,a,"[-0.2, -0.2]",,,,,,,,,,,,,,,,,,,,0,30,30,30,,,,,,,,,,,,,,,,,a,1,1.1887540999996418,,,,,,,,,,,,hjh,m,26,2024_Apr_18_1845,mian,2021.2.3,59.8937245742616,
7H,2,2,7.0,a,"[0.2, -0.2]",,,,,,,,,,,,,,,,,,,,0,31,31,31,,,,,,,,,,,,,,,,,a,1,0.5958153999999922,,,,,,,,,,,,hjh,m,26,2024_Apr_18_1845,mian,2021.2.3,59.8937245742616,
9f,1,1,f,l,"[0.2, 0.2]",,,,,,,,,,,,,,,,,,,,0,32,32,32,,,,,,,,,,,,,,,,,l,1,1.76237250000122,,,,,,,,,,,,hjh,m,26,2024_Apr_18_1845,mian,2021.2.3,59.8937245742616,
8E,1,2,E,a,"[-0.2, 0.2]",,,,,,,,,,,,,,,,,,,,0,33,33,33,,,,,,,,,,,,,,,,,a,1,0.5660801000012725,,,,,,,,,,,,hjh,m,26,2024_Apr_18_1845,mian,2021.2.3,59.8937245742616,
A2,2,1,2.0,l,"[-0.2, -0.2]",,,,,,,,,,,,,,,,,,,,0,34,34,34,,,,,,,,,,,,,,,,,None,0,,,,,,,,,,,,,hjh,m,26,2024_Apr_18_1845,mian,2021.2.3,59.8937245742616,
H7,2,2,7.0,a,"[0.2, -0.2]",,,,,,,,,,,,,,,,,,,,0,35,35,35,,,,,,,,,,,,,,,,,a,1,1.3964656999996805,,,,,,,,,,,,hjh,m,26,2024_Apr_18_1845,mian,2021.2.3,59.8937245742616,
h9,1,1,h,l,"[0.2, 0.2]",,,,,,,,,,,,,,,,,,,,0,36,36,36,,,,,,,,,,,,,,,,,l,1,1.9858776000000944,,,,,,,,,,,,hjh,m,26,2024_Apr_18_1845,mian,2021.2.3,59.8937245742616,
8G,1,2,G,a,"[-0.2, 0.2]",,,,,,,,,,,,,,,,,,,,0,37,37,37,,,,,,,,,,,,,,,,,a,1,0.5363345000005211,,,,,,,,,,,,hjh,m,26,2024_Apr_18_1845,mian,2021.2.3,59.8937245742616,
H4,2,1,4.0,l,"[-0.2, -0.2]",,,,,,,,,,,,,,,,,,,,0,38,38,38,,,,,,,,,,,,,,,,,l,1,2.357971400000679,,,,,,,,,,,,hjh,m,26,2024_Apr_18_1845,mian,2021.2.3,59.8937245742616,
A8,2,2,8.0,l,"[0.2, -0.2]",,,,,,,,,,,,,,,,,,,,0,39,39,39,,,,,,,,,,,,,,,,,l,1,1.4085337000033178,,,,,,,,,,,,hjh,m,26,2024_Apr_18_1845,mian,2021.2.3,59.8937245742616,
g7,1,1,g,l,"[0.2, 0.2]",,,,,,,,,,,,,,,,,,,,0,40,40,40,,,,,,,,,,,,,,,,,l,1,1.3549033000017516,,,,,,,,,,,,hjh,m,26,2024_Apr_18_1845,mian,2021.2.3,59.8937245742616,
H9,1,2,H,a,"[-0.2, 0.2]",,,,,,,,,,,,,,,,,,,,0,41,41,41,,,,,,,,,,,,,,,,,a,1,2.5373173000007228,,,,,,,,,,,,hjh,m,26,2024_Apr_18_1845,mian,2021.2.3,59.8937245742616,
9E,2,1,9.0,a,"[-0.2, -0.2]",,,,,,,,,,,,,,,,,,,,0,42,42,42,,,,,,,,,,,,,,,,,a,1,2.5758237000009103,,,,,,,,,,,,hjh,m,26,2024_Apr_18_1845,mian,2021.2.3,59.8937245742616,
a5,2,2,5.0,a,"[0.2, -0.2]",,,,,,,,,,,,,,,,,,,,0,43,43,43,,,,,,,,,,,,,,,,,a,1,1.0609313999993901,,,,,,,,,,,,hjh,m,26,2024_Apr_18_1845,mian,2021.2.3,59.8937245742616,
3E,1,1,E,a,"[0.2, 0.2]",,,,,,,,,,,,,,,,,,,,0,44,44,44,,,,,,,,,,,,,,,,,a,1,1.89222030000019,,,,,,,,,,,,hjh,m,26,2024_Apr_18_1845,mian,2021.2.3,59.8937245742616,
6f,1,2,f,l,"[-0.2, 0.2]",,,,,,,,,,,,,,,,,,,,0,45,45,45,,,,,,,,,,,,,,,,,l,1,0.5333905999978015,,,,,,,,,,,,hjh,m,26,2024_Apr_18_1845,mian,2021.2.3,59.8937245742616,
g8,2,1,8.0,l,"[-0.2, -0.2]",,,,,,,,,,,,,,,,,,,,0,46,46,46,,,,,,,,,,,,,,,,,l,1,1.5299774999984947,,,,,,,,,,,,hjh,m,26,2024_Apr_18_1845,mian,2021.2.3,59.8937245742616,
4F,2,2,4.0,l,"[0.2, -0.2]",,,,,,,,,,,,,,,,,,,,0,47,47,47,,,,,,,,,,,,,,,,,l,1,0.9771275000020978,,,,,,,,,,,,hjh,m,26,2024_Apr_18_1845,mian,2021.2.3,59.8937245742616,
4a,1,1,a,l,"[0.2, 0.2]",,,,,,,,,,,,,,,,,,,,0,48,48,48,,,,,,,,,,,,,,,,,l,1,1.930716200000461,,,,,,,,,,,,hjh,m,26,2024_Apr_18_1845,mian,2021.2.3,59.8937245742616,
e3,1,2,e,l,"[-0.2, 0.2]",,,,,,,,,,,,,,,,,,,,0,49,49,49,,,,,,,,,,,,,,,,,l,1,0.5811520999995992,,,,,,,,,,,,hjh,m,26,2024_Apr_18_1845,mian,2021.2.3,59.8937245742616,
5g,2,1,5.0,a,"[-0.2, -0.2]",,,,,,,,,,,,,,,,,,,,0,50,50,50,,,,,,,,,,,,,,,,,a,1,1.6602830999981961,,,,,,,,,,,,hjh,m,26,2024_Apr_18_1845,mian,2021.2.3,59.8937245742616,
f4,2,2,4.0,l,"[0.2, -0.2]",,,,,,,,,,,,,,,,,,,,0,51,51,51,,,,,,,,,,,,,,,,,l,1,1.7012998999998672,,,,,,,,,,,,hjh,m,26,2024_Apr_18_1845,mian,2021.2.3,59.8937245742616,
6E,1,1,E,a,"[0.2, 0.2]",,,,,,,,,,,,,,,,,,,,0,52,52,52,,,,,,,,,,,,,,,,,a,1,1.0320291999996698,,,,,,,,,,,,hjh,m,26,2024_Apr_18_1845,mian,2021.2.3,59.8937245742616,
7A,1,2,A,a,"[-0.2, 0.2]",,,,,,,,,,,,,,,,,,,,0,53,53,53,,,,,,,,,,,,,,,,,a,1,0.45215400000233785,,,,,,,,,,,,hjh,m,26,2024_Apr_18_1845,mian,2021.2.3,59.8937245742616,
F4,2,1,4.0,l,"[-0.2, -0.2]",,,,,,,,,,,,,,,,,,,,0,54,54,54,,,,,,,,,,,,,,,,,l,1,1.1962163999996847,,,,,,,,,,,,hjh,m,26,2024_Apr_18_1845,mian,2021.2.3,59.8937245742616,
2g,2,2,2.0,l,"[0.2, -0.2]",,,,,,,,,,,,,,,,,,,,0,55,55,55,,,,,,,,,,,,,,,,,l,1,0.7173891999991611,,,,,,,,,,,,hjh,m,26,2024_Apr_18_1845,mian,2021.2.3,59.8937245742616,
7E,1,1,E,a,"[0.2, 0.2]",,,,,,,,,,,,,,,,,,,,0,56,56,56,,,,,,,,,,,,,,,,,a,1,1.2267467999990913,,,,,,,,,,,,hjh,m,26,2024_Apr_18_1845,mian,2021.2.3,59.8937245742616,
G4,1,2,G,a,"[-0.2, 0.2]",,,,,,,,,,,,,,,,,,,,0,57,57,57,,,,,,,,,,,,,,,,,a,1,1.0118291999970097,,,,,,,,,,,,hjh,m,26,2024_Apr_18_1845,mian,2021.2.3,59.8937245742616,
2F,2,1,2.0,l,"[-0.2, -0.2]",,,,,,,,,,,,,,,,,,,,0,58,58,58,,,,,,,,,,,,,,,,,l,1,0.871163499999966,,,,,,,,,,,,hjh,m,26,2024_Apr_18_1845,mian,2021.2.3,59.8937245742616,
E9,2,2,9.0,a,"[0.2, -0.2]",,,,,,,,,,,,,,,,,,,,0,59,59,59,,,,,,,,,,,,,,,,,a,1,1.6881161000019347,,,,,,,,,,,,hjh,m,26,2024_Apr_18_1845,mian,2021.2.3,59.8937245742616,
5f,1,1,f,l,"[0.2, 0.2]",,,,,,,,,,,,,,,,,,,,0,60,60,60,,,,,,,,,,,,,,,,,l,1,0.5486906000005547,,,,,,,,,,,,hjh,m,26,2024_Apr_18_1845,mian,2021.2.3,59.8937245742616,
e7,1,2,e,l,"[-0.2, 0.2]",,,,,,,,,,,,,,,,,,,,0,61,61,61,,,,,,,,,,,,,,,,,l,1,0.5903961000003619,,,,,,,,,,,,hjh,m,26,2024_Apr_18_1845,mian,2021.2.3,59.8937245742616,
f2,2,1,2.0,l,"[-0.2, -0.2]",,,,,,,,,,,,,,,,,,,,0,62,62,62,,,,,,,,,,,,,,,,,l,1,1.9694841000018641,,,,,,,,,,,,hjh,m,26,2024_Apr_18_1845,mian,2021.2.3,59.8937245742616,
G9,2,2,9.0,a,"[0.2, -0.2]",,,,,,,,,,,,,,,,,,,,0,63,63,63,,,,,,,,,,,,,,,,,a,1,1.5822159000017564,,,,,,,,,,,,hjh,m,26,2024_Apr_18_1845,mian,2021.2.3,59.8937245742616,
7g,1,1,g,l,"[0.2, 0.2]",,,,,,,,,,,,,,,,,,,,0,64,64,64,,,,,,,,,,,,,,,,,l,1,1.5466784999989613,,,,,,,,,,,,hjh,m,26,2024_Apr_18_1845,mian,2021.2.3,59.8937245742616,
F8,1,2,F,a,"[-0.2, 0.2]",,,,,,,,,,,,,,,,,,,,0,65,65,65,,,,,,,,,,,,,,,,,a,1,0.6515589999980875,,,,,,,,,,,,hjh,m,26,2024_Apr_18_1845,mian,2021.2.3,59.8937245742616,
A7,2,1,7.0,a,"[-0.2, -0.2]",,,,,,,,,,,,,,,,,,,,0,66,66,66,,,,,,,,,,,,,,,,,a,1,2.521179100000154,,,,,,,,,,,,hjh,m,26,2024_Apr_18_1845,mian,2021.2.3,59.8937245742616,
4G,2,2,4.0,l,"[0.2, -0.2]",,,,,,,,,,,,,,,,,,,,0,67,67,67,,,,,,,,,,,,,,,,,l,1,0.6977740000002086,,,,,,,,,,,,hjh,m,26,2024_Apr_18_1845,mian,2021.2.3,59.8937245742616,
g2,1,1,g,l,"[0.2, 0.2]",,,,,,,,,,,,,,,,,,,,0,68,68,68,,,,,,,,,,,,,,,,,l,1,1.2565250000006927,,,,,,,,,,,,hjh,m,26,2024_Apr_18_1845,mian,2021.2.3,59.8937245742616,
g4,1,2,g,l,"[-0.2, 0.2]",,,,,,,,,,,,,,,,,,,,0,69,69,69,,,,,,,,,,,,,,,,,l,1,0.7320097999981954,,,,,,,,,,,,hjh,m,26,2024_Apr_18_1845,mian,2021.2.3,59.8937245742616,
7a,2,1,7.0,a,"[-0.2, -0.2]",,,,,,,,,,,,,,,,,,,,0,70,70,70,,,,,,,,,,,,,,,,,a,1,1.9101787999970838,,,,,,,,,,,,hjh,m,26,2024_Apr_18_1845,mian,2021.2.3,59.8937245742616,
8e,2,2,8.0,l,"[0.2, -0.2]",,,,,,,,,,,,,,,,,,,,0,71,71,71,,,,,,,,,,,,,,,,,l,1,0.5843136000003142,,,,,,,,,,,,hjh,m,26,2024_Apr_18_1845,mian,2021.2.3,59.8937245742616,
h4,1,1,h,l,"[0.2, 0.2]",,,,,,,,,,,,,,,,,,,,0,72,72,72,,,,,,,,,,,,,,,,,l,1,1.687726100000873,,,,,,,,,,,,hjh,m,26,2024_Apr_18_1845,mian,2021.2.3,59.8937245742616,
G8,1,2,G,a,"[-0.2, 0.2]",,,,,,,,,,,,,,,,,,,,0,73,73,73,,,,,,,,,,,,,,,,,a,1,0.5341951000009431,,,,,,,,,,,,hjh,m,26,2024_Apr_18_1845,mian,2021.2.3,59.8937245742616,
6F,2,1,6.0,l,"[-0.2, -0.2]",,,,,,,,,,,,,,,,,,,,0,74,74,74,,,,,,,,,,,,,,,,,l,1,2.8299102000019047,,,,,,,,,,,,hjh,m,26,2024_Apr_18_1845,mian,2021.2.3,59.8937245742616,
g5,2,2,5.0,a,"[0.2, -0.2]",,,,,,,,,,,,,,,,,,,,0,75,75,75,,,,,,,,,,,,,,,,,a,1,0.5760197000017797,,,,,,,,,,,,hjh,m,26,2024_Apr_18_1845,mian,2021.2.3,59.8937245742616,
G5,1,1,G,a,"[0.2, 0.2]",,,,,,,,,,,,,,,,,,,,0,76,76,76,,,,,,,,,,,,,,,,,a,1,0.8537410999997519,,,,,,,,,,,,hjh,m,26,2024_Apr_18_1845,mian,2021.2.3,59.8937245742616,
h5,1,2,h,l,"[-0.2, 0.2]",,,,,,,,,,,,,,,,,,,,0,77,77,77,,,,,,,,,,,,,,,,,l,1,0.6454785000023548,,,,,,,,,,,,hjh,m,26,2024_Apr_18_1845,mian,2021.2.3,59.8937245742616,
9G,2,1,9.0,a,"[-0.2, -0.2]",,,,,,,,,,,,,,,,,,,,0,78,78,78,,,,,,,,,,,,,,,,,a,1,1.1945988000006764,,,,,,,,,,,,hjh,m,26,2024_Apr_18_1845,mian,2021.2.3,59.8937245742616,
F3,2,2,3.0,a,"[0.2, -0.2]",,,,,,,,,,,,,,,,,,,,0,79,79,79,,,,,,,,,,,,,,,,,a,1,1.265338499997597,,,,,,,,,,,,hjh,m,26,2024_Apr_18_1845,mian,2021.2.3,59.8937245742616,
,,,,,,0,0,pic/flanker6.png,pic/flanker2.png,a,l,,,,,,,,,,,,,,,,,,0,0,0,0,0,0,0,1,,,,,,,,,,,,1216.7663835999992,None,1215.5834919000008,1216.7830703,None,0,自卑,None,0,,,hjh,m,26,2024_Apr_18_1845,mian,2021.2.3,59.8937245742616,
,,,,,,1,0,pic/flanker5.png,pic/flanker3.png,a,l,,,,,,,,,,,,,,,,,,0,0,0,0,0,1,1,7,,,,,,,,,,,,1222.5672822999986,None,1221.3840973000006,1222.5840396999993,None,0,堵塞,None,0,,,hjh,m,26,2024_Apr_18_1845,mian,2021.2.3,59.8937245742616,
,,,,,,1,0,pic/flanker6.png,pic/flanker4.png,s,l,,,,,,,,,,,,,,,,,,0,0,0,0,0,2,2,5,,,,,,,,,,,,1228.266587099999,None,1227.0833297999998,1228.2832395999976,None,0,伤心,None,0,,,hjh,m,26,2024_Apr_18_1845,mian,2021.2.3,59.8937245742616,
,,,,,,0,1,pic/flanker6.png,pic/flanker2.png,a,k,,,,,,,,,,,,,,,,,,0,0,0,0,0,3,3,2,,,,,,,,,,,,1234.1660544000006,None,1232.9827889999979,1234.1827658000002,None,0,富足,None,0,,,hjh,m,26,2024_Apr_18_1845,mian,2021.2.3,59.8937245742616,
,,,,,,1,1,pic/flanker6.png,pic/flanker4.png,s,k,,,,,,,,,,,,,,,,,,0,0,0,0,0,4,4,6,,,,,,,,,,,,1239.9655070000008,None,1238.7821882999997,1239.9821889999985,s,1,留恋,None,0,0.6259579999968992,,hjh,m,26,2024_Apr_18_1845,mian,2021.2.3,59.8937245742616,
,,,,,,0,1,pic/flanker5.png,pic/flanker1.png,s,k,,,,,,,,,,,,,,,,,,0,0,0,0,0,5,5,0,,,,,,,,,,,,1244.9306982999988,None,1243.7473202,1244.9471099000002,None,0,雄厚,k,1,,1.3938325000017358,hjh,m,26,2024_Apr_18_1845,mian,2021.2.3,59.8937245742616,
,,,,,,1,1,pic/flanker5.png,pic/flanker3.png,a,k,,,,,,,,,,,,,,,,,,0,0,0,0,0,6,6,4,,,,,,,,,,,,1249.6311258999995,None,1248.4479586999987,1249.6480501999977,a,1,有利,k,1,0.8469459000007191,0.8902238000009675,hjh,m,26,2024_Apr_18_1845,mian,2021.2.3,59.8937245742616,
,,,,,,0,0,pic/flanker5.png,pic/flanker1.png,s,l,,,,,,,,,,,,,,,,,,0,0,0,0,0,7,7,3,,,,,,,,,,,,1253.329428000001,None,1252.1463067999975,1253.3460572999975,s,1,缺乏,l,1,0.7385762999983854,0.6799750000027416,hjh,m,26,2024_Apr_18_1845,mian,2021.2.3,59.8937245742616,
,,,,,,,,,,,,,,,,,,,,,,,,,,,,,0,0,0,0,,,,,,,,,,,,,,,,,,,,,,,,,,,hjh,m,26,2024_Apr_18_1845,mian,2021.2.3,59.8937245742616,
,,,,,,0,1,pic/flanker6.png,pic/flanker2.png,a,k,,,,,,,,,,,,,,,,,,1,0,1,0,0,0,0,2,,,,,,,,,,,,1262.312268499998,None,1261.1285014999994,1262.3283515000003,a,1,豪放,k,1,0.46991200000047684,0.7743453000002773,hjh,m,26,2024_Apr_18_1845,mian,2021.2.3,59.8937245742616,
,,,,,,0,0,pic/flanker6.png,pic/flanker2.png,a,l,,,,,,,,,,,,,,,,,,1,0,1,0,0,1,1,1,,,,,,,,,,,,1265.5283572999979,None,1264.3451064,1265.5448800999984,a,1,孤单,l,1,0.5516809000000649,0.9817172000002756,hjh,m,26,2024_Apr_18_1845,mian,2021.2.3,59.8937245742616,
,,,,,,0,1,pic/flanker5.png,pic/flanker1.png,s,k,,,,,,,,,,,,,,,,,,1,0,1,0,0,2,2,0,,,,,,,,,,,,1268.9610570000004,None,1267.7779778999975,1268.9778828999988,s,1,清秀,k,1,0.7288380000027246,0.7185906000013347,hjh,m,26,2024_Apr_18_1845,mian,2021.2.3,59.8937245742616,
,,,,,,1,1,pic/flanker5.png,pic/flanker3.png,a,k,,,,,,,,,,,,,,,,,,1,0,1,0,0,3,3,4,,,,,,,,,,,,1272.377840000001,None,1271.1944736000005,1272.3946829999986,a,1,俊秀,k,1,0.6352726000004623,0.7295057000010274,hjh,m,26,2024_Apr_18_1845,mian,2021.2.3,59.8937245742616,
,,,,,,1,0,pic/flanker6.png,pic/flanker4.png,s,l,,,,,,,,,,,,,,,,,,1,0,1,0,0,4,4,5,,,,,,,,,,,,1275.6943148999999,None,1274.510700499999,1275.7105301999982,s,1,慌忙,l,1,0.7107183000007353,1.1747548000021197,hjh,m,26,2024_Apr_18_1845,mian,2021.2.3,59.8937245742616,
,,,,,,1,1,pic/flanker6.png,pic/flanker4.png,s,k,,,,,,,,,,,,,,,,,,1,0,1,0,0,5,5,6,,,,,,,,,,,,1279.4601441999985,None,1278.2773630999982,1279.4771473,s,1,富丽,k,1,0.6044962000014493,0.5581564999993134,hjh,m,26,2024_Apr_18_1845,mian,2021.2.3,59.8937245742616,
,,,,,,1,0,pic/flanker5.png,pic/flanker3.png,a,l,,,,,,,,,,,,,,,,,,1,0,1,0,0,6,6,7,,,,,,,,,,,,1282.6933269,None,1281.5099289999998,1282.7099529999978,a,1,逃避,l,1,0.5460110000021814,0.7400325999988127,hjh,m,26,2024_Apr_18_1845,mian,2021.2.3,59.8937245742616,
,,,,,,0,0,pic/flanker5.png,pic/flanker1.png,s,l,,,,,,,,,,,,,,,,,,1,0,1,0,0,7,7,3,,,,,,,,,,,,1285.992865799999,None,1284.8099164999985,1286.009947999999,s,1,缺乏,l,1,0.5350208000018029,0.8103275000030408,hjh,m,26,2024_Apr_18_1845,mian,2021.2.3,59.8937245742616,
,,,,,,,,,,,,,,,,,,,,,,,,,,,,,1,0,1,0,,,,,,,,,,,,,,,,,,,,,,,,,,,hjh,m,26,2024_Apr_18_1845,mian,2021.2.3,59.8937245742616,
,,,,,,0,0,pic/flanker5.png,pic/flanker1.png,s,l,pic/AffRest1.png,,,,,,,,,,,,,,,,,,,,,,,,,0,0,0,0,0,0,0,51,,,,1292.9257908,None,1291.7424501999994,1292.9425179999998,s,1,沮丧,l,1,0.45835879999867757,0.7423042000009445,hjh,m,26,2024_Apr_18_1845,mian,2021.2.3,59.8937245742616,
,,,,,,1,1,pic/flanker5.png,pic/flanker3.png,a,k,pic/AffRest1.png,,,,,,,,,,,,,,,,,,,,,,,,,0,0,0,0,0,1,1,20,,,,1296.1756767999977,None,1294.9922430999977,1296.1923982999979,a,1,瑰丽,k,1,0.5562045000006037,0.8071149999996123,hjh,m,26,2024_Apr_18_1845,mian,2021.2.3,59.8937245742616,
,,,,,,1,0,pic/flanker5.png,pic/flanker3.png,a,l,pic/AffRest1.png,,,,,,,,,,,,,,,,,,,,,,,,,0,0,0,0,0,2,2,23,,,,1299.4919527999991,None,1298.3084481999977,1299.5086506000007,a,1,排斥,l,1,0.6432033000019146,0.769961099998909,hjh,m,26,2024_Apr_18_1845,mian,2021.2.3,59.8937245742616,
,,,,,,1,0,pic/flanker6.png,pic/flanker4.png,s,l,pic/AffRest1.png,,,,,,,,,,,,,,,,,,,,,,,,,0,0,0,0,0,3,3,29,,,,1302.8580524999998,None,1301.675052999999,1302.8747299999995,s,1,怀疑,l,1,0.6172186000003421,0.826991599999019,hjh,m,26,2024_Apr_18_1845,mian,2021.2.3,59.8937245742616,
,,,,,,1,1,pic/flanker5.png,pic/flanker3.png,a,k,pic/AffRest1.png,,,,,,,,,,,,,,,,,,,,,,,,,0,0,0,0,0,4,4,28,,,,1306.3074712999987,None,1305.1241744,1306.3241769999986,a,1,顽强,k,1,0.5447155000001658,0.7979272000011406,hjh,m,26,2024_Apr_18_1845,mian,2021.2.3,59.8937245742616,
,,,,,,1,1,pic/flanker6.png,pic/flanker4.png,s,k,pic/AffRest1.png,,,,,,,,,,,,,,,,,,,,,,,,,0,0,0,0,0,5,5,14,,,,1309.5577746999988,None,1308.3741045999996,1309.5738070000007,s,1,爽朗,k,1,0.5718516999986605,0.6007915999980469,hjh,m,26,2024_Apr_18_1845,mian,2021.2.3,59.8937245742616,
,,,,,,1,0,pic/flanker5.png,pic/flanker3.png,a,l,pic/AffRest1.png,,,,,,,,,,,,,,,,,,,,,,,,,0,0,0,0,0,6,6,63,,,,1312.5917066000002,None,1311.4084248,1312.6083666999984,a,1,争吵,l,1,0.5130035000001953,0.7956607999985863,hjh,m,26,2024_Apr_18_1845,mian,2021.2.3,59.8937245742616,
,,,,,,1,0,pic/flanker5.png,pic/flanker3.png,a,l,pic/AffRest1.png,,,,,,,,,,,,,,,,,,,,,,,,,0,0,0,0,0,7,7,47,,,,1315.8067779999983,None,1314.6233021000007,1315.8236142999995,a,1,伤心,l,1,0.5249320000002626,0.6766419999985374,hjh,m,26,2024_Apr_18_1845,mian,2021.2.3,59.8937245742616,
,,,,,,0,0,pic/flanker5.png,pic/flanker1.png,s,l,pic/AffRest1.png,,,,,,,,,,,,,,,,,,,,,,,,,0,0,0,0,0,8,8,75,,,,1319.0064955999987,None,1317.8234650999984,1319.0233387000007,s,1,杂乱,l,1,0.4680668000000878,0.7569011000014143,hjh,m,26,2024_Apr_18_1845,mian,2021.2.3,59.8937245742616,
,,,,,,0,1,pic/flanker5.png,pic/flanker1.png,s,k,pic/AffRest1.png,,,,,,,,,,,,,,,,,,,,,,,,,0,0,0,0,0,9,9,0,,,,1322.0892466999976,None,1320.9063786999977,1322.106248,s,1,留恋,k,1,0.7781470999980229,0.6573480000006384,hjh,m,26,2024_Apr_18_1845,mian,2021.2.3,59.8937245742616,
,,,,,,1,1,pic/flanker6.png,pic/flanker4.png,s,k,pic/AffRest1.png,,,,,,,,,,,,,,,,,,,,,,,,,0,0,0,0,0,10,10,62,,,,1325.373695899998,None,1324.1904522999976,1325.3905900999998,s,1,吉祥,k,1,0.7240091999992728,0.5796664000008604,hjh,m,26,2024_Apr_18_1845,mian,2021.2.3,59.8937245742616,
,,,,,,0,0,pic/flanker6.png,pic/flanker2.png,a,l,pic/AffRest1.png,,,,,,,,,,,,,,,,,,,,,,,,,0,0,0,0,0,11,11,9,,,,1328.6735229000005,None,1327.4902163999977,1328.6902635000006,a,1,孤单,l,1,0.46851340000284836,0.5887270999992325,hjh,m,26,2024_Apr_18_1845,mian,2021.2.3,59.8937245742616,
,,,,,,1,0,pic/flanker6.png,pic/flanker4.png,s,l,pic/AffRest1.png,,,,,,,,,,,,,,,,,,,,,,,,,0,0,0,0,0,12,12,77,,,,1331.7572445000005,None,1330.5733123999998,1331.7731045,s,1,心慌,l,1,0.583920199998829,0.8616365999987465,hjh,m,26,2024_Apr_18_1845,mian,2021.2.3,59.8937245742616,
,,,,,,1,0,pic/flanker6.png,pic/flanker4.png,s,l,pic/AffRest1.png,,,,,,,,,,,,,,,,,,,,,,,,,0,0,0,0,0,13,13,53,,,,1335.1896359999992,None,1334.0064385000005,1335.2061496999995,s,1,烦恼,l,1,0.5623283999993873,0.7073058999994828,hjh,m,26,2024_Apr_18_1845,mian,2021.2.3,59.8937245742616,
,,,,,,1,1,pic/flanker6.png,pic/flanker4.png,s,k,pic/AffRest1.png,,,,,,,,,,,,,,,,,,,,,,,,,0,0,0,0,0,14,14,38,,,,1338.371255099999,None,1337.1879014000006,1338.3876007,s,1,精致,k,1,0.521964300001855,0.6376056999979482,hjh,m,26,2024_Apr_18_1845,mian,2021.2.3,59.8937245742616,
,,,,,,1,1,pic/flanker6.png,pic/flanker4.png,s,k,pic/AffRest1.png,,,,,,,,,,,,,,,,,,,,,,,,,0,0,0,0,0,15,15,78,,,,1341.5706038999997,None,1340.387482099999,1341.5872504,s,1,舒畅,k,1,0.5396285999995598,0.6927928000004613,hjh,m,26,2024_Apr_18_1845,mian,2021.2.3,59.8937245742616,
,,,,,,1,1,pic/flanker5.png,pic/flanker3.png,a,k,pic/AffRest1.png,,,,,,,,,,,,,,,,,,,,,,,,,0,0,0,0,0,16,16,76,,,,1344.7885717999998,None,1343.605309999999,1344.8052652000006,a,1,永恒,k,1,0.4830288000011933,0.5746170000020356,hjh,m,26,2024_Apr_18_1845,mian,2021.2.3,59.8937245742616,
,,,,,,1,0,pic/flanker5.png,pic/flanker3.png,a,l,pic/AffRest1.png,,,,,,,,,,,,,,,,,,,,,,,,,0,0,0,0,0,17,17,79,,,,1347.8036579,None,1346.6201739999997,1347.820111000001,a,1,轻率,l,1,0.5363350999978138,1.0352987999976904,hjh,m,26,2024_Apr_18_1845,mian,2021.2.3,59.8937245742616,
,,,,,,0,0,pic/flanker6.png,pic/flanker2.png,a,l,pic/AffRest1.png,,,,,,,,,,,,,,,,,,,,,,,,,0,0,0,0,0,18,18,65,,,,1351.2868228999978,None,1350.1035980999986,1351.303214399999,a,1,丢失,l,1,0.47749470000053407,0.6905069000022195,hjh,m,26,2024_Apr_18_1845,mian,2021.2.3,59.8937245742616,
,,,,,,1,1,pic/flanker5.png,pic/flanker3.png,a,k,pic/AffRest1.png,,,,,,,,,,,,,,,,,,,,,,,,,0,0,0,0,0,19,19,12,,,,1354.3025204999976,None,1353.119743700001,1354.3197,None,0,廉洁,k,1,,0.8222913999998127,hjh,m,26,2024_Apr_18_1845,mian,2021.2.3,59.8937245742616,
,,,,,,1,0,pic/flanker6.png,pic/flanker4.png,s,l,pic/AffRest1.png,,,,,,,,,,,,,,,,,,,,,,,,,0,0,0,0,0,20,20,37,,,,1358.3372611999985,None,1357.1539850000008,1358.3539638000002,s,1,黑暗,l,1,0.4735379000012472,0.7151952999993227,hjh,m,26,2024_Apr_18_1845,mian,2021.2.3,59.8937245742616,
,,,,,,0,1,pic/flanker6.png,pic/flanker2.png,a,k,pic/AffRest1.png,,,,,,,,,,,,,,,,,,,,,,,,,0,0,0,0,0,21,21,58,,,,1361.485678099998,None,1360.3022074,1361.5024731999983,a,1,充裕,k,1,0.41133759999866015,0.5498497000007774,hjh,m,26,2024_Apr_18_1845,mian,2021.2.3,59.8937245742616,
,,,,,,1,1,pic/flanker6.png,pic/flanker4.png,s,k,pic/AffRest1.png,,,,,,,,,,,,,,,,,,,,,,,,,0,0,0,0,0,22,22,46,,,,1364.3016925999982,None,1363.1185956000008,1364.3184063000008,s,1,富足,k,1,0.5717712000005122,0.5687295999996422,hjh,m,26,2024_Apr_18_1845,mian,2021.2.3,59.8937245742616,
,,,,,,0,0,pic/flanker6.png,pic/flanker2.png,a,l,pic/AffRest1.png,,,,,,,,,,,,,,,,,,,,,,,,,0,0,0,0,0,23,23,49,,,,1367.3862903000008,None,1366.203274200001,1367.4032515,a,1,假冒,l,1,0.5225361999982852,0.7005200000021432,hjh,m,26,2024_Apr_18_1845,mian,2021.2.3,59.8937245742616,
,,,,,,1,1,pic/flanker6.png,pic/flanker4.png,s,k,pic/AffRest1.png,,,,,,,,,,,,,,,,,,,,,,,,,0,0,0,0,0,24,24,22,,,,1370.5678361999999,None,1369.3847521999996,1370.5845305000003,s,1,俊秀,k,1,0.5498539000000164,0.5560702000002493,hjh,m,26,2024_Apr_18_1845,mian,2021.2.3,59.8937245742616,
,,,,,,0,0,pic/flanker5.png,pic/flanker1.png,s,l,pic/AffRest1.png,,,,,,,,,,,,,,,,,,,,,,,,,0,0,0,0,0,25,25,19,,,,1373.5023593999977,None,1372.318997800001,1373.5191056000003,s,1,懒惰,l,1,0.6506416000011086,0.6108408000000054,hjh,m,26,2024_Apr_18_1845,mian,2021.2.3,59.8937245742616,
,,,,,,0,1,pic/flanker5.png,pic/flanker1.png,s,k,pic/AffRest1.png,,,,,,,,,,,,,,,,,,,,,,,,,0,0,0,0,0,26,26,56,,,,1376.617261200001,None,1375.4340859000004,1376.634012300001,s,1,卓越,k,1,0.5189792000019224,0.5575866999970458,hjh,m,26,2024_Apr_18_1845,mian,2021.2.3,59.8937245742616,
,,,,,,0,1,pic/flanker6.png,pic/flanker2.png,a,k,pic/AffRest1.png,,,,,,,,,,,,,,,,,,,,,,,,,0,0,0,0,0,27,27,10,,,,1379.550344899999,None,1378.3673966999995,1379.5668487000003,a,1,热切,k,1,0.5644151999986207,0.5382056999987981,hjh,m,26,2024_Apr_18_1845,mian,2021.2.3,59.8937245742616,
,,,,,,0,0,pic/flanker5.png,pic/flanker1.png,s,l,pic/AffRest1.png,,,,,,,,,,,,,,,,,,,,,,,,,0,0,0,0,0,28,28,59,,,,1382.7171777999974,None,1381.5337437999988,1382.7331104999976,s,1,焦躁,l,1,0.3110446000027878,0.9425271000000066,hjh,m,26,2024_Apr_18_1845,mian,2021.2.3,59.8937245742616,
,,,,,,0,0,pic/flanker5.png,pic/flanker1.png,s,l,pic/AffRest1.png,,,,,,,,,,,,,,,,,,,,,,,,,0,0,0,0,0,29,29,43,,,,1385.983485599998,None,1384.7997663999995,1385.9999830999986,s,1,损害,l,1,0.5516322000003129,0.7071250999979384,hjh,m,26,2024_Apr_18_1845,mian,2021.2.3,59.8937245742616,
,,,,,,1,1,pic/flanker5.png,pic/flanker3.png,a,k,pic/AffRest1.png,,,,,,,,,,,,,,,,,,,,,,,,,0,0,0,0,0,30,30,52,,,,1389.0991615999992,None,1387.9165878999993,1389.1162665999982,a,1,富丽,k,1,0.5634291999995185,0.5422108999991906,hjh,m,26,2024_Apr_18_1845,mian,2021.2.3,59.8937245742616,
,,,,,,1,0,pic/flanker5.png,pic/flanker3.png,a,l,pic/AffRest1.png,,,,,,,,,,,,,,,,,,,,,,,,,0,0,0,0,0,31,31,55,,,,1392.2504986999993,None,1391.0673270000007,1392.267098299999,a,1,堵塞,l,1,0.6710031000002346,1.0701650000009977,hjh,m,26,2024_Apr_18_1845,mian,2021.2.3,59.8937245742616,
,,,,,,1,1,pic/flanker5.png,pic/flanker3.png,a,k,pic/AffRest1.png,,,,,,,,,,,,,,,,,,,,,,,,,0,0,0,0,0,32,32,60,,,,1395.9002480999989,None,1394.7169833000007,1395.9171117000005,a,1,秀丽,k,1,0.5672626999985368,0.5422193000013067,hjh,m,26,2024_Apr_18_1845,mian,2021.2.3,59.8937245742616,
,,,,,,0,1,pic/flanker5.png,pic/flanker1.png,s,k,pic/AffRest1.png,,,,,,,,,,,,,,,,,,,,,,,,,0,0,0,0,0,33,33,16,,,,1398.933372399999,None,1397.7501859000004,1398.9500683000006,s,1,鲜艳,k,1,0.3694251999986591,0.5072918000005302,hjh,m,26,2024_Apr_18_1845,mian,2021.2.3,59.8937245742616,
,,,,,,0,0,pic/flanker5.png,pic/flanker1.png,s,l,pic/AffRest1.png,,,,,,,,,,,,,,,,,,,,,,,,,0,0,0,0,0,34,34,11,,,,1401.7318809999997,None,1400.5483473999993,1401.7485221999996,s,1,嘲笑,l,1,0.6396891000003961,0.8354562999993504,hjh,m,26,2024_Apr_18_1845,mian,2021.2.3,59.8937245742616,
,,,,,,0,0,pic/flanker6.png,pic/flanker2.png,a,l,pic/AffRest1.png,,,,,,,,,,,,,,,,,,,,,,,,,0,0,0,0,0,35,35,33,,,,1405.1479990999978,None,1403.9645581999976,1405.1649658999995,a,1,闷热,l,1,0.48453060000247206,0.7958259000006365,hjh,m,26,2024_Apr_18_1845,mian,2021.2.3,59.8937245742616,
,,,,,,0,1,pic/flanker5.png,pic/flanker1.png,s,k,pic/AffRest1.png,,,,,,,,,,,,,,,,,,,,,,,,,0,0,0,0,0,36,36,40,,,,1408.4308719,None,1407.247823499998,1408.4478597999987,s,1,振作,k,1,0.3563113999989582,0.6803615999997419,hjh,m,26,2024_Apr_18_1845,mian,2021.2.3,59.8937245742616,
,,,,,,1,0,pic/flanker6.png,pic/flanker4.png,s,l,pic/AffRest1.png,,,,,,,,,,,,,,,,,,,,,,,,,0,0,0,0,0,37,37,69,,,,1411.5138045999993,None,1410.3307399000005,1411.5304761000007,s,1,缺乏,l,1,0.7425203000020701,0.6196904999997059,hjh,m,26,2024_Apr_18_1845,mian,2021.2.3,59.8937245742616,
,,,,,,1,0,pic/flanker5.png,pic/flanker3.png,a,l,pic/AffRest1.png,,,,,,,,,,,,,,,,,,,,,,,,,0,0,0,0,0,38,38,71,,,,1414.9317473999981,None,1413.748397299998,1414.9481809999997,a,1,胡涂,l,1,0.5044842999996035,0.6629463999997824,hjh,m,26,2024_Apr_18_1845,mian,2021.2.3,59.8937245742616,
,,,,,,0,0,pic/flanker6.png,pic/flanker2.png,a,l,pic/AffRest1.png,,,,,,,,,,,,,,,,,,,,,,,,,0,0,0,0,0,39,39,41,,,,1418.0633070000003,None,1416.8799689999978,1418.0802507999979,a,1,慌忙,l,1,0.4186709999994491,1.0647567000014533,hjh,m,26,2024_Apr_18_1845,mian,2021.2.3,59.8937245742616,
,,,,,,0,1,pic/flanker6.png,pic/flanker2.png,a,k,pic/AffRest1.png,,,,,,,,,,,,,,,,,,,,,,,,,0,0,0,0,0,40,40,66,,,,1421.5311546999983,None,1420.3478002999982,1421.5477113999987,a,1,优雅,k,1,0.44880190000185394,0.5165526999990107,hjh,m,26,2024_Apr_18_1845,mian,2021.2.3,59.8937245742616,
,,,,,,0,0,pic/flanker5.png,pic/flanker1.png,s,l,pic/AffRest1.png,,,,,,,,,,,,,,,,,,,,,,,,,0,0,0,0,0,41,41,3,,,,1424.3461504000006,None,1423.1626450999975,1424.3630142000002,s,1,鲁莽,l,1,0.45283439999911934,0.5911913000018103,hjh,m,26,2024_Apr_18_1845,mian,2021.2.3,59.8937245742616,
,,,,,,1,1,pic/flanker5.png,pic/flanker3.png,a,k,pic/AffRest1.png,,,,,,,,,,,,,,,,,,,,,,,,,0,0,0,0,0,42,42,36,,,,1427.4459231,None,1426.262890099999,1427.4622267999985,a,1,公平,k,1,0.4975548999973398,0.6069645999996283,hjh,m,26,2024_Apr_18_1845,mian,2021.2.3,59.8937245742616,
,,,,,,0,1,pic/flanker6.png,pic/flanker2.png,a,k,pic/AffRest1.png,,,,,,,,,,,,,,,,,,,,,,,,,0,0,0,0,0,43,43,26,,,,1430.3955524999983,None,1429.2126640999995,1430.4118820000003,a,1,羡慕,k,1,0.42657970000072964,0.5924966999991739,hjh,m,26,2024_Apr_18_1845,mian,2021.2.3,59.8937245742616,
,,,,,,0,1,pic/flanker6.png,pic/flanker2.png,a,k,pic/AffRest1.png,,,,,,,,,,,,,,,,,,,,,,,,,0,0,0,0,0,44,44,2,,,,1433.3118902999995,None,1432.128914599998,1433.3287029999992,a,1,有利,k,1,0.3986373999978241,0.6042386000008264,hjh,m,26,2024_Apr_18_1845,mian,2021.2.3,59.8937245742616,
,,,,,,0,0,pic/flanker6.png,pic/flanker2.png,a,l,pic/AffRest1.png,,,,,,,,,,,,,,,,,,,,,,,,,0,0,0,0,0,45,45,1,,,,1436.362799300001,None,1435.1796933000005,1436.3797626999985,a,1,自卑,l,1,0.3657419999981357,0.6931144000009226,hjh,m,26,2024_Apr_18_1845,mian,2021.2.3,59.8937245742616,
,,,,,,0,0,pic/flanker5.png,pic/flanker1.png,s,l,pic/AffRest1.png,,,,,,,,,,,,,,,,,,,,,,,,,0,0,0,0,0,46,46,67,,,,1439.477994500001,None,1438.2947196999994,1439.4943071999987,s,1,逃避,l,1,0.533582900003239,0.8480823999998393,hjh,m,26,2024_Apr_18_1845,mian,2021.2.3,59.8937245742616,
,,,,,,0,1,pic/flanker6.png,pic/flanker2.png,a,k,pic/AffRest1.png,,,,,,,,,,,,,,,,,,,,,,,,,0,0,0,0,0,47,47,42,,,,1442.6954523999993,None,1441.5123674999995,1442.7124498999983,a,1,旺盛,k,1,0.42823139999745763,0.5941328999979305,hjh,m,26,2024_Apr_18_1845,mian,2021.2.3,59.8937245742616,
,,,,,,1,0,pic/flanker6.png,pic/flanker4.png,s,l,pic/AffRest1.png,,,,,,,,,,,,,,,,,,,,,,,,,0,0,0,0,0,48,48,61,,,,1445.5777343000009,None,1444.3940330999976,1445.5937564999986,s,1,穷苦,l,1,0.5674651000008453,0.6493738999997731,hjh,m,26,2024_Apr_18_1845,mian,2021.2.3,59.8937245742616,
,,,,,,0,1,pic/flanker6.png,pic/flanker2.png,a,k,pic/AffRest1.png,,,,,,,,,,,,,,,,,,,,,,,,,0,0,0,0,0,49,49,74,,,,1448.7267203999982,None,1447.543456200001,1448.7437629999986,a,1,生动,k,1,0.45958040000186884,0.6435873999980686,hjh,m,26,2024_Apr_18_1845,mian,2021.2.3,59.8937245742616,
,,,,,,0,1,pic/flanker5.png,pic/flanker1.png,s,k,pic/AffRest1.png,,,,,,,,,,,,,,,,,,,,,,,,,0,0,0,0,0,50,50,32,,,,1451.6770620999996,None,1450.4933605999977,1451.6937112999985,s,1,诚恳,k,1,0.3856445999990683,0.6436974999996892,hjh,m,26,2024_Apr_18_1845,mian,2021.2.3,59.8937245742616,
,,,,,,0,0,pic/flanker5.png,pic/flanker1.png,s,l,pic/AffRest1.png,,,,,,,,,,,,,,,,,,,,,,,,,0,0,0,0,0,51,51,35,,,,1454.6096445000003,None,1453.4266817999996,1454.626775599998,s,1,落后,l,1,0.4876425999973435,1.0863676000008127,hjh,m,26,2024_Apr_18_1845,mian,2021.2.3,59.8937245742616,
,,,,,,1,1,pic/flanker5.png,pic/flanker3.png,a,k,pic/AffRest1.png,,,,,,,,,,,,,,,,,,,,,,,,,0,0,0,0,0,52,52,4,,,,1458.0595047999996,None,1456.876047400001,1458.076200200001,a,1,圣洁,k,1,0.6119594999981928,0.5581256999976176,hjh,m,26,2024_Apr_18_1845,mian,2021.2.3,59.8937245742616,
,,,,,,1,0,pic/flanker5.png,pic/flanker3.png,a,l,pic/AffRest1.png,,,,,,,,,,,,,,,,,,,,,,,,,0,0,0,0,0,53,53,39,,,,1461.1756787999984,None,1459.992940199998,1461.1928153000008,a,1,浪费,l,1,0.5872782000005827,0.6466271999997844,hjh,m,26,2024_Apr_18_1845,mian,2021.2.3,59.8937245742616,
,,,,,,1,0,pic/flanker5.png,pic/flanker3.png,a,l,pic/AffRest1.png,,,,,,,,,,,,,,,,,,,,,,,,,0,0,0,0,0,54,54,15,,,,1464.3252087,None,1463.1427597000002,1464.3418305999985,a,1,别扭,l,1,0.595215699999244,0.7762326000010944,hjh,m,26,2024_Apr_18_1845,mian,2021.2.3,59.8937245742616,
,,,,,,0,0,pic/flanker6.png,pic/flanker2.png,a,l,pic/AffRest1.png,,,,,,,,,,,,,,,,,,,,,,,,,0,0,0,0,0,55,55,73,,,,1467.7430540999994,None,1466.559867699998,1467.7597658999985,a,1,悲观,l,1,0.45758849999765516,1.134999300000345,hjh,m,26,2024_Apr_18_1845,mian,2021.2.3,59.8937245742616,
,,,,,,1,0,pic/flanker6.png,pic/flanker4.png,s,l,pic/AffRest1.png,,,,,,,,,,,,,,,,,,,,,,,,,0,0,0,0,0,56,56,45,,,,1471.3916608,None,1470.2081880999976,1471.4081941999975,s,1,消沉,l,1,0.4797861000006378,0.5877412000008917,hjh,m,26,2024_Apr_18_1845,mian,2021.2.3,59.8937245742616,
,,,,,,0,1,pic/flanker6.png,pic/flanker2.png,a,k,pic/AffRest1.png,,,,,,,,,,,,,,,,,,,,,,,,,0,0,0,0,0,57,57,34,,,,1474.4742756999985,None,1473.291096099998,1474.4910347000005,a,1,畅销,k,1,0.4246755000021949,0.5816671000029601,hjh,m,26,2024_Apr_18_1845,mian,2021.2.3,59.8937245742616,
,,,,,,0,1,pic/flanker5.png,pic/flanker1.png,s,k,pic/AffRest1.png,,,,,,,,,,,,,,,,,,,,,,,,,0,0,0,0,0,58,58,8,,,,1477.324216099998,None,1476.1410971999976,1477.3407841000007,s,1,豪放,k,1,0.4627474999979313,0.6172760000008566,hjh,m,26,2024_Apr_18_1845,mian,2021.2.3,59.8937245742616,
,,,,,,0,1,pic/flanker5.png,pic/flanker1.png,s,k,pic/AffRest1.png,,,,,,,,,,,,,,,,,,,,,,,,,0,0,0,0,0,59,59,24,,,,1480.4255365999998,None,1479.242089299998,1480.4421113999997,s,1,正直,k,1,0.4857953999999154,0.6801919999998063,hjh,m,26,2024_Apr_18_1845,mian,2021.2.3,59.8937245742616,
,,,,,,1,1,pic/flanker6.png,pic/flanker4.png,s,k,pic/AffRest1.png,,,,,,,,,,,,,,,,,,,,,,,,,0,0,0,0,0,60,60,30,,,,1483.4235941000006,None,1482.2401623000005,1483.4399264999993,s,1,享受,k,1,0.6072242000009282,0.5345310000011523,hjh,m,26,2024_Apr_18_1845,mian,2021.2.3,59.8937245742616,
,,,,,,1,0,pic/flanker6.png,pic/flanker4.png,s,l,pic/AffRest1.png,,,,,,,,,,,,,,,,,,,,,,,,,0,0,0,0,0,61,61,13,,,,1486.6399454999992,None,1485.4564205999995,1486.6564779,s,1,忧虑,l,1,0.4743914999999106,0.6331257999991067,hjh,m,26,2024_Apr_18_1845,mian,2021.2.3,59.8937245742616,
,,,,,,0,1,pic/flanker5.png,pic/flanker1.png,s,k,pic/AffRest1.png,,,,,,,,,,,,,,,,,,,,,,,,,0,0,0,0,0,62,62,48,,,,1489.7059622999986,None,1488.522866899999,1489.7226964000001,s,1,赞成,k,1,0.43954800000210525,0.5707054000013159,hjh,m,26,2024_Apr_18_1845,mian,2021.2.3,59.8937245742616,
,,,,,,0,0,pic/flanker6.png,pic/flanker2.png,a,l,pic/AffRest1.png,,,,,,,,,,,,,,,,,,,,,,,,,0,0,0,0,0,63,63,57,,,,1492.7739426000007,None,1491.5908969999982,1492.7906297000009,a,1,罚款,l,1,0.42005860000062967,0.6296591999998782,hjh,m,26,2024_Apr_18_1845,mian,2021.2.3,59.8937245742616,
,,,,,,1,0,pic/flanker6.png,pic/flanker4.png,s,l,pic/AffRest1.png,,,,,,,,,,,,,,,,,,,,,,,,,0,0,0,0,0,64,64,21,,,,1495.806058099999,None,1494.6221589999986,1495.822561099998,s,1,失意,l,1,0.5468872999990708,0.6291703000024427,hjh,m,26,2024_Apr_18_1845,mian,2021.2.3,59.8937245742616,
,,,,,,1,0,pic/flanker6.png,pic/flanker4.png,s,l,pic/AffRest1.png,,,,,,,,,,,,,,,,,,,,,,,,,0,0,0,0,0,65,65,5,,,,1499.0386099999996,None,1497.8552500999976,1499.0556973999992,s,1,撒谎,l,1,0.4847200000003795,0.5531336000021838,hjh,m,26,2024_Apr_18_1845,mian,2021.2.3,59.8937245742616,
,,,,,,0,1,pic/flanker6.png,pic/flanker2.png,a,k,pic/AffRest1.png,,,,,,,,,,,,,,,,,,,,,,,,,0,0,0,0,0,66,66,50,,,,1502.088627699999,None,1500.9054198999984,1502.1051081999976,a,1,雄厚,k,1,0.4413867000002938,0.7932172000000719,hjh,m,26,2024_Apr_18_1845,mian,2021.2.3,59.8937245742616,
,,,,,,1,1,pic/flanker6.png,pic/flanker4.png,s,k,pic/AffRest1.png,,,,,,,,,,,,,,,,,,,,,,,,,0,0,0,0,0,67,67,54,,,,1505.3560969999999,None,1504.1730207,1505.3729459999995,s,1,敬佩,k,1,1.008987099998194,0.7577138000015111,hjh,m,26,2024_Apr_18_1845,mian,2021.2.3,59.8937245742616,
,,,,,,1,1,pic/flanker6.png,pic/flanker4.png,s,k,pic/AffRest1.png,,,,,,,,,,,,,,,,,,,,,,,,,0,0,0,0,0,68,68,70,,,,1508.9878871,None,1507.8047533999998,1509.0042847000004,s,1,前进,k,1,0.50038190000123,0.5447281000015209,hjh,m,26,2024_Apr_18_1845,mian,2021.2.3,59.8937245742616,
,,,,,,1,0,pic/flanker5.png,pic/flanker3.png,a,l,pic/AffRest1.png,,,,,,,,,,,,,,,,,,,,,,,,,0,0,0,0,0,69,69,7,,,,1512.0373194999993,None,1510.8541482,1512.0541847999993,a,1,处罚,l,1,0.5349658999984968,0.6650903000008839,hjh,m,26,2024_Apr_18_1845,mian,2021.2.3,59.8937245742616,
,,,,,,0,0,pic/flanker6.png,pic/flanker2.png,a,l,pic/AffRest1.png,,,,,,,,,,,,,,,,,,,,,,,,,0,0,0,0,0,70,70,17,,,,1515.0718095999982,None,1513.8885981999993,1515.0884263999978,a,1,郁闷,l,1,0.6210954999987734,0.5547110999978031,hjh,m,26,2024_Apr_18_1845,mian,2021.2.3,59.8937245742616,
,,,,,,1,0,pic/flanker5.png,pic/flanker3.png,a,l,pic/AffRest1.png,,,,,,,,,,,,,,,,,,,,,,,,,0,0,0,0,0,71,71,31,,,,1518.3201751999986,None,1517.1368488000007,1518.336906299999,a,1,禁止,l,1,0.5976475999996183,0.593239599998924,hjh,m,26,2024_Apr_18_1845,mian,2021.2.3,59.8937245742616,
,,,,,,1,1,pic/flanker5.png,pic/flanker3.png,a,k,pic/AffRest1.png,,,,,,,,,,,,,,,,,,,,,,,,,0,0,0,0,0,72,72,68,,,,1521.5364273999985,None,1520.3535608999991,1521.5533283000004,a,1,珍藏,k,1,1.0395943000003172,0.564453400002094,hjh,m,26,2024_Apr_18_1845,mian,2021.2.3,59.8937245742616,
,,,,,,1,1,pic/flanker5.png,pic/flanker3.png,a,k,pic/AffRest1.png,,,,,,,,,,,,,,,,,,,,,,,,,0,0,0,0,0,73,73,44,,,,1525.1207885999975,None,1523.9375019,1525.1374684000002,a,1,丰满,k,1,0.6303421999982675,0.6215067000011913,hjh,m,26,2024_Apr_18_1845,mian,2021.2.3,59.8937245742616,
,,,,,,0,1,pic/flanker5.png,pic/flanker1.png,s,k,pic/AffRest1.png,,,,,,,,,,,,,,,,,,,,,,,,,0,0,0,0,0,74,74,64,,,,1528.385605200001,None,1527.2022770000003,1528.4024500999985,s,1,清秀,k,1,0.39904509999905713,0.535913800002163,hjh,m,26,2024_Apr_18_1845,mian,2021.2.3,59.8937245742616,
,,,,,,0,1,pic/flanker6.png,pic/flanker2.png,a,k,pic/AffRest1.png,,,,,,,,,,,,,,,,,,,,,,,,,0,0,0,0,0,75,75,18,,,,1531.2873359999976,None,1530.1038024000009,1531.3043340000004,a,1,如愿,k,1,0.3476723999992828,0.5701837000015075,hjh,m,26,2024_Apr_18_1845,mian,2021.2.3,59.8937245742616,
,,,,,,0,0,pic/flanker5.png,pic/flanker1.png,s,l,pic/AffRest1.png,,,,,,,,,,,,,,,,,,,,,,,,,0,0,0,0,0,76,76,27,,,,1534.285228599998,None,1533.1018359000009,1534.3020374999978,s,1,厌恶,l,1,0.3507567000015115,0.7099760999990394,hjh,m,26,2024_Apr_18_1845,mian,2021.2.3,59.8937245742616,
,,,,,,1,1,pic/flanker6.png,pic/flanker4.png,s,k,pic/AffRest1.png,,,,,,,,,,,,,,,,,,,,,,,,,0,0,0,0,0,77,77,6,,,,1537.268658699999,None,1536.0850599999976,1537.2851864000004,s,1,奉献,k,1,0.5306235999996716,0.4920893000016804,hjh,m,26,2024_Apr_18_1845,mian,2021.2.3,59.8937245742616,
,,,,,,0,1,pic/flanker5.png,pic/flanker1.png,s,k,pic/AffRest1.png,,,,,,,,,,,,,,,,,,,,,,,,,0,0,0,0,0,78,78,72,,,,1540.3515945,None,1539.1680024999987,1540.3682969000001,s,1,典雅,k,1,0.9434767999991891,0.5046698000005563,hjh,m,26,2024_Apr_18_1845,mian,2021.2.3,59.8937245742616,
,,,,,,0,0,pic/flanker6.png,pic/flanker2.png,a,l,pic/AffRest1.png,,,,,,,,,,,,,,,,,,,,,,,,,0,0,0,0,0,79,79,25,,,,1543.6690337,None,1542.4858600999978,1543.685835100001,a,1,冷笑,l,1,0.44253849999950035,0.6444402000015543,hjh,m,26,2024_Apr_18_1845,mian,2021.2.3,59.8937245742616,
,,,,,,,,,,,,pic/AffRest1.png,,,,,,,,,,,,,,,,,,,,,,,,,0,0,0,0,,,,,,,,,,,,,,,,,,,hjh,m,26,2024_Apr_18_1845,mian,2021.2.3,59.8937245742616,
,,,,,,0,0,pic/flanker6.png,pic/flanker2.png,a,l,pic/AffRest2.png,,,,,,,,,,,,,,,,,,,,,,,,,0,1,1,1,0,0,0,9,,,,1559.8830221999997,None,1558.6998089000008,1559.8995700999985,a,1,轻率,l,1,0.45048010000027716,1.3341060000020661,hjh,m,26,2024_Apr_18_1845,mian,2021.2.3,59.8937245742616,
,,,,,,1,1,pic/flanker5.png,pic/flanker3.png,a,k,pic/AffRest2.png,,,,,,,,,,,,,,,,,,,,,,,,,0,1,1,1,0,1,1,4,,,,1563.5002829000005,None,1562.3170747999975,1563.5173998999999,None,0,前进,k,1,,1.0930166999969515,hjh,m,26,2024_Apr_18_1845,mian,2021.2.3,59.8937245742616,
,,,,,,0,0,pic/flanker6.png,pic/flanker2.png,a,l,pic/AffRest2.png,,,,,,,,,,,,,,,,,,,,,,,,,0,1,1,1,0,2,2,73,,,,1567.8667513,None,1566.6834586999976,1567.8833606999979,a,1,鲁莽,l,1,0.43803339999794844,0.6572956000018166,hjh,m,26,2024_Apr_18_1845,mian,2021.2.3,59.8937245742616,
,,,,,,0,1,pic/flanker6.png,pic/flanker2.png,a,k,pic/AffRest2.png,,,,,,,,,,,,,,,,,,,,,,,,,0,1,1,1,0,3,3,42,,,,1570.9163049999988,None,1569.7331907999978,1570.9329149000005,a,1,留恋,k,1,0.43178240000270307,1.282703799999581,hjh,m,26,2024_Apr_18_1845,mian,2021.2.3,59.8937245742616,
,,,,,,1,0,pic/flanker5.png,pic/flanker3.png,a,l,pic/AffRest2.png,,,,,,,,,,,,,,,,,,,,,,,,,0,1,1,1,0,4,4,7,,,,1574.4661041,None,1573.2827111999977,1574.4828387999987,a,1,烦恼,l,1,1.173748599998362,0.7080361000007542,hjh,m,26,2024_Apr_18_1845,mian,2021.2.3,59.8937245742616,
,,,,,,1,1,pic/flanker6.png,pic/flanker4.png,s,k,pic/AffRest2.png,,,,,,,,,,,,,,,,,,,,,,,,,0,1,1,1,0,5,5,30,,,,1578.431029299998,None,1577.2475790999997,1578.4474426999986,s,1,舒畅,k,1,0.6004449000029126,0.593094600000768,hjh,m,26,2024_Apr_18_1845,mian,2021.2.3,59.8937245742616,
,,,,,,0,0,pic/flanker5.png,pic/flanker1.png,s,l,pic/AffRest2.png,,,,,,,,,,,,,,,,,,,,,,,,,0,1,1,1,0,6,6,3,,,,1581.5820475,None,1580.3990387999984,1581.5986840999976,s,1,争吵,l,1,0.4810977000015555,0.9021921999992628,hjh,m,26,2024_Apr_18_1845,mian,2021.2.3,59.8937245742616,
,,,,,,0,0,pic/flanker5.png,pic/flanker1.png,s,l,pic/AffRest2.png,,,,,,,,,,,,,,,,,,,,,,,,,0,1,1,1,0,7,7,19,,,,1585.0316089000007,None,1583.8483946999986,1585.0488901999997,s,1,排斥,l,1,0.519538399999874,0.730747199999314,hjh,m,26,2024_Apr_18_1845,mian,2021.2.3,59.8937245742616,
,,,,,,1,1,pic/flanker5.png,pic/flanker3.png,a,k,pic/AffRest2.png,,,,,,,,,,,,,,,,,,,,,,,,,0,1,1,1,0,8,8,12,,,,1588.3146426999992,None,1587.1313306999982,1588.331334300001,a,1,公平,k,1,0.5185295000010228,0.876228799999808,hjh,m,26,2024_Apr_18_1845,mian,2021.2.3,59.8937245742616,
,,,,,,0,0,pic/flanker6.png,pic/flanker2.png,a,l,pic/AffRest2.png,,,,,,,,,,,,,,,,,,,,,,,,,0,1,1,1,0,9,9,49,,,,1591.5964304000008,None,1590.4128285999977,1591.6128640999996,a,1,别扭,l,1,0.4673899999979767,0.6738167000003159,hjh,m,26,2024_Apr_18_1845,mian,2021.2.3,59.8937245742616,
,,,,,,1,1,pic/flanker6.png,pic/flanker4.png,s,k,pic/AffRest2.png,,,,,,,,,,,,,,,,,,,,,,,,,0,1,1,1,0,10,10,78,,,,1594.6808139999994,None,1593.4974373000005,1594.6973694000008,s,1,圣洁,k,1,0.6981004000008397,0.571920800000953,hjh,m,26,2024_Apr_18_1845,mian,2021.2.3,59.8937245742616,
,,,,,,1,1,pic/flanker6.png,pic/flanker4.png,s,k,pic/AffRest2.png,,,,,,,,,,,,,,,,,,,,,,,,,0,1,1,1,0,11,11,62,,,,1597.9637049999983,None,1596.7803218000008,1597.9805438999974,s,1,充裕,k,1,0.5866213000008429,0.6329263000006904,hjh,m,26,2024_Apr_18_1845,mian,2021.2.3,59.8937245742616,
,,,,,,0,0,pic/flanker5.png,pic/flanker1.png,s,l,pic/AffRest2.png,,,,,,,,,,,,,,,,,,,,,,,,,0,1,1,1,0,12,12,27,,,,1601.1799492999999,None,1599.9968362,1601.1965887000006,s,1,懒惰,l,1,0.5793173999991268,0.7711946999988868,hjh,m,26,2024_Apr_18_1845,mian,2021.2.3,59.8937245742616,
,,,,,,0,1,pic/flanker5.png,pic/flanker1.png,s,k,pic/AffRest2.png,,,,,,,,,,,,,,,,,,,,,,,,,0,1,1,1,0,13,13,56,,,,1604.3796368000003,None,1603.1964014000005,1604.3964068999994,s,1,赞成,k,1,0.49988239999947837,0.5734768000002077,hjh,m,26,2024_Apr_18_1845,mian,2021.2.3,59.8937245742616,
,,,,,,1,1,pic/flanker5.png,pic/flanker3.png,a,k,pic/AffRest2.png,,,,,,,,,,,,,,,,,,,,,,,,,0,1,1,1,0,14,14,28,,,,1607.4293271999995,None,1606.2459648000004,1607.4459817999996,a,1,典雅,k,1,0.8774229000009655,0.5552881999974488,hjh,m,26,2024_Apr_18_1845,mian,2021.2.3,59.8937245742616,
,,,,,,0,0,pic/flanker5.png,pic/flanker1.png,s,l,pic/AffRest2.png,,,,,,,,,,,,,,,,,,,,,,,,,0,1,1,1,0,15,15,51,,,,1610.712367,None,1609.5290925000008,1610.7295148999983,s,1,孤单,l,1,0.4672742999973707,0.7700876999988395,hjh,m,26,2024_Apr_18_1845,mian,2021.2.3,59.8937245742616,
,,,,,,1,0,pic/flanker6.png,pic/flanker4.png,s,l,pic/AffRest2.png,,,,,,,,,,,,,,,,,,,,,,,,,0,1,1,1,0,16,16,61,,,,1613.7954647000006,None,1612.6122555000002,1613.812285600001,s,1,悲观,l,1,0.598436699998274,0.8728029999983846,hjh,m,26,2024_Apr_18_1845,mian,2021.2.3,59.8937245742616,
,,,,,,1,0,pic/flanker6.png,pic/flanker4.png,s,l,pic/AffRest2.png,,,,,,,,,,,,,,,,,,,,,,,,,0,1,1,1,0,17,17,29,,,,1617.261924399998,None,1616.0788369000002,1617.2782688999978,s,1,黑暗,l,1,0.6210123999990174,0.6161349000030896,hjh,m,26,2024_Apr_18_1845,mian,2021.2.3,59.8937245742616,
,,,,,,0,1,pic/flanker6.png,pic/flanker2.png,a,k,pic/AffRest2.png,,,,,,,,,,,,,,,,,,,,,,,,,0,1,1,1,0,18,18,18,,,,1620.4780481999987,None,1619.2948101000002,1620.4948635,a,1,永恒,k,1,0.4237649999995483,0.7391478999998071,hjh,m,26,2024_Apr_18_1845,mian,2021.2.3,59.8937245742616,
,,,,,,1,0,pic/flanker6.png,pic/flanker4.png,s,l,pic/AffRest2.png,,,,,,,,,,,,,,,,,,,,,,,,,0,1,1,1,0,19,19,37,,,,1623.4946294000001,None,1622.3114177999996,1623.5113216999998,s,1,心慌,l,1,0.5578330999996979,0.546987400000944,hjh,m,26,2024_Apr_18_1845,mian,2021.2.3,59.8937245742616,
,,,,,,0,0,pic/flanker6.png,pic/flanker2.png,a,l,pic/AffRest2.png,,,,,,,,,,,,,,,,,,,,,,,,,0,1,1,1,0,20,20,25,,,,1626.6441166999975,None,1625.460897099998,1626.6610101000006,a,1,慌忙,l,1,0.5163623999978881,0.5786062000006496,hjh,m,26,2024_Apr_18_1845,mian,2021.2.3,59.8937245742616,
,,,,,,0,1,pic/flanker5.png,pic/flanker1.png,s,k,pic/AffRest2.png,,,,,,,,,,,,,,,,,,,,,,,,,0,1,1,1,0,21,21,64,,,,1629.6272796999983,None,1628.4439020999998,1629.643877999999,s,1,羡慕,l,0,0.4632837000026484,0.6559453000008943,hjh,m,26,2024_Apr_18_1845,mian,2021.2.3,59.8937245742616,
,,,,,,1,1,pic/flanker5.png,pic/flanker3.png,a,k,pic/AffRest2.png,,,,,,,,,,,,,,,,,,,,,,,,,0,1,1,1,0,22,22,76,,,,1632.7935598000004,None,1631.610349399998,1632.8103334000007,a,1,廉洁,k,1,0.5525041999972018,0.5646263000016916,hjh,m,26,2024_Apr_18_1845,mian,2021.2.3,59.8937245742616,
,,,,,,0,1,pic/flanker5.png,pic/flanker1.png,s,k,pic/AffRest2.png,,,,,,,,,,,,,,,,,,,,,,,,,0,1,1,1,0,23,23,24,,,,1635.7433612999994,None,1634.5599220999975,1635.7599389999996,s,1,秀丽,k,1,0.38598429999910877,0.5814376000016637,hjh,m,26,2024_Apr_18_1845,mian,2021.2.3,59.8937245742616,
,,,,,,0,1,pic/flanker5.png,pic/flanker1.png,s,k,pic/AffRest2.png,,,,,,,,,,,,,,,,,,,,,,,,,0,1,1,1,0,24,24,32,,,,1638.6096270999988,None,1637.4263991000007,1638.6264150999996,s,1,优雅,k,1,0.3874036999986856,0.5832604999995965,hjh,m,26,2024_Apr_18_1845,mian,2021.2.3,59.8937245742616,
,,,,,,0,1,pic/flanker6.png,pic/flanker2.png,a,k,pic/AffRest2.png,,,,,,,,,,,,,,,,,,,,,,,,,0,1,1,1,0,25,25,26,,,,1641.4261871999988,None,1640.2428189999991,1641.4427706999995,a,1,瑰丽,k,1,0.49349720000100206,0.5635207999985141,hjh,m,26,2024_Apr_18_1845,mian,2021.2.3,59.8937245742616,
,,,,,,1,1,pic/flanker6.png,pic/flanker4.png,s,k,pic/AffRest2.png,,,,,,,,,,,,,,,,,,,,,,,,,0,1,1,1,0,26,26,22,,,,1644.4258972999996,None,1643.2424624999985,1644.4423776999975,s,1,卓越,k,1,0.4990327999985311,0.5765998999995645,hjh,m,26,2024_Apr_18_1845,mian,2021.2.3,59.8937245742616,
,,,,,,1,0,pic/flanker6.png,pic/flanker4.png,s,l,pic/AffRest2.png,,,,,,,,,,,,,,,,,,,,,,,,,0,1,1,1,0,27,27,45,,,,1647.4254225000004,None,1646.242245999998,1647.4421118999999,s,1,落后,l,1,0.5360068999980285,0.6924313999988954,hjh,m,26,2024_Apr_18_1845,mian,2021.2.3,59.8937245742616,
,,,,,,0,1,pic/flanker6.png,pic/flanker2.png,a,k,pic/AffRest2.png,,,,,,,,,,,,,,,,,,,,,,,,,0,1,1,1,0,28,28,58,,,,1650.5418943000004,None,1649.358713900001,1650.5586602000003,a,1,豪放,k,1,0.40741549999802373,0.5443173000021488,hjh,m,26,2024_Apr_18_1845,mian,2021.2.3,59.8937245742616,
,,,,,,0,1,pic/flanker6.png,pic/flanker2.png,a,k,pic/AffRest2.png,,,,,,,,,,,,,,,,,,,,,,,,,0,1,1,1,0,29,29,2,,,,1653.4414168999974,None,1652.2582206000006,1653.4583185999982,a,1,有利,k,1,0.447441099997377,0.5956442999995488,hjh,m,26,2024_Apr_18_1845,mian,2021.2.3,59.8937245742616,
,,,,,,0,0,pic/flanker5.png,pic/flanker1.png,s,l,pic/AffRest2.png,,,,,,,,,,,,,,,,,,,,,,,,,0,1,1,1,0,30,30,11,,,,1656.3746369,None,1655.191326799999,1656.3911893999975,s,1,失意,l,1,0.36343719999786117,0.6562721000009333,hjh,m,26,2024_Apr_18_1845,mian,2021.2.3,59.8937245742616,
,,,,,,0,0,pic/flanker5.png,pic/flanker1.png,s,l,pic/AffRest2.png,,,,,,,,,,,,,,,,,,,,,,,,,0,1,1,1,0,31,31,75,,,,1659.3410106999982,None,1658.1578322999994,1659.3576030999975,s,1,罚款,l,1,0.5174007999994501,0.6774460999986331,hjh,m,26,2024_Apr_18_1845,mian,2021.2.3,59.8937245742616,
,,,,,,0,1,pic/flanker5.png,pic/flanker1.png,s,k,pic/AffRest2.png,,,,,,,,,,,,,,,,,,,,,,,,,0,1,1,1,0,32,32,0,,,,1662.3739692999989,None,1661.1907151999985,1662.3906611999992,s,1,旺盛,k,1,0.4502467999991495,0.6810992000027909,hjh,m,26,2024_Apr_18_1845,mian,2021.2.3,59.8937245742616,
,,,,,,0,1,pic/flanker5.png,pic/flanker1.png,s,k,pic/AffRest2.png,,,,,,,,,,,,,,,,,,,,,,,,,0,1,1,1,0,33,33,16,,,,1665.340446099999,None,1664.1571794999982,1665.3569633999978,s,1,如愿,k,1,0.5672994999986258,0.6538973999995505,hjh,m,26,2024_Apr_18_1845,mian,2021.2.3,59.8937245742616,
,,,,,,0,0,pic/flanker6.png,pic/flanker2.png,a,l,pic/AffRest2.png,,,,,,,,,,,,,,,,,,,,,,,,,0,1,1,1,0,34,34,1,,,,1668.4067833000008,None,1667.2234091999999,1668.423889499998,a,1,缺乏,l,1,0.7037440999993123,0.600742500002525,hjh,m,26,2024_Apr_18_1845,mian,2021.2.3,59.8937245742616,
,,,,,,0,0,pic/flanker5.png,pic/flanker1.png,s,l,pic/AffRest2.png,,,,,,,,,,,,,,,,,,,,,,,,,0,1,1,1,0,35,35,43,,,,1671.5719328999985,None,1670.3887101,1671.5884881999991,s,1,厌恶,l,1,0.4356329999973241,0.6737003999987792,hjh,m,26,2024_Apr_18_1845,mian,2021.2.3,59.8937245742616,
,,,,,,0,0,pic/flanker6.png,pic/flanker2.png,a,l,pic/AffRest2.png,,,,,,,,,,,,,,,,,,,,,,,,,0,1,1,1,0,36,36,57,,,,1674.6728913000006,None,1673.4896389999994,1674.6897279999976,a,1,冷笑,l,1,0.5819964999973308,0.7397264999999607,hjh,m,26,2024_Apr_18_1845,mian,2021.2.3,59.8937245742616,
,,,,,,0,1,pic/flanker5.png,pic/flanker1.png,s,k,pic/AffRest2.png,,,,,,,,,,,,,,,,,,,,,,,,,0,1,1,1,0,37,37,8,,,,1677.8397165999995,None,1676.6559851999991,1677.855875199999,s,1,正直,k,1,0.33615719999943394,0.5397775999990699,hjh,m,26,2024_Apr_18_1845,mian,2021.2.3,59.8937245742616,
,,,,,,1,0,pic/flanker6.png,pic/flanker4.png,s,l,pic/AffRest2.png,,,,,,,,,,,,,,,,,,,,,,,,,0,1,1,1,0,38,38,77,,,,1680.6054920999995,None,1679.4223000999991,1680.6222847999998,s,1,杂乱,l,1,0.7362781000010727,0.7015718999973615,hjh,m,26,2024_Apr_18_1845,mian,2021.2.3,59.8937245742616,
,,,,,,0,1,pic/flanker6.png,pic/flanker2.png,a,k,pic/AffRest2.png,,,,,,,,,,,,,,,,,,,,,,,,,0,1,1,1,0,39,39,74,,,,1683.9720357000006,None,1682.7887579999988,1683.988620199998,a,1,珍藏,k,1,0.48649899999873014,0.5708956999988004,hjh,m,26,2024_Apr_18_1845,mian,2021.2.3,59.8937245742616,
,,,,,,1,1,pic/flanker5.png,pic/flanker3.png,a,k,pic/AffRest2.png,,,,,,,,,,,,,,,,,,,,,,,,,0,1,1,1,0,40,40,68,,,,1686.971588299999,None,1685.7884357000003,1686.9881380999977,a,1,热切,k,1,0.6656575999986671,0.5559823000003234,hjh,m,26,2024_Apr_18_1845,mian,2021.2.3,59.8937245742616,
,,,,,,0,1,pic/flanker6.png,pic/flanker2.png,a,k,pic/AffRest2.png,,,,,,,,,,,,,,,,,,,,,,,,,0,1,1,1,0,41,41,34,,,,1690.138003,None,1688.954640699998,1690.1548980000007,a,1,丰满,k,1,0.4634160999994492,0.5720350999981747,hjh,m,26,2024_Apr_18_1845,mian,2021.2.3,59.8937245742616,
,,,,,,1,1,pic/flanker5.png,pic/flanker3.png,a,k,pic/AffRest2.png,,,,,,,,,,,,,,,,,,,,,,,,,0,1,1,1,0,42,42,60,,,,1693.120967499999,None,1691.9376459999985,1693.137649100001,a,1,敬佩,k,1,0.6307122999969579,0.5873119000025326,hjh,m,26,2024_Apr_18_1845,mian,2021.2.3,59.8937245742616,
,,,,,,1,0,pic/flanker5.png,pic/flanker3.png,a,l,pic/AffRest2.png,,,,,,,,,,,,,,,,,,,,,,,,,0,1,1,1,0,43,43,15,,,,1696.2873228999997,None,1695.1042307999996,1696.3038433000002,a,1,堵塞,l,1,0.7577440999993996,0.6670235999990837,hjh,m,26,2024_Apr_18_1845,mian,2021.2.3,59.8937245742616,
,,,,,,0,0,pic/flanker6.png,pic/flanker2.png,a,l,pic/AffRest2.png,,,,,,,,,,,,,,,,,,,,,,,,,0,1,1,1,0,44,44,65,,,,1699.6535748999995,None,1698.4704285000007,1699.6708173999978,a,1,消沉,l,1,0.4277595999992627,0.8847879000022658,hjh,m,26,2024_Apr_18_1845,mian,2021.2.3,59.8937245742616,
,,,,,,1,1,pic/flanker6.png,pic/flanker4.png,s,k,pic/AffRest2.png,,,,,,,,,,,,,,,,,,,,,,,,,0,1,1,1,0,45,45,6,,,,1703.0200659000002,None,1701.8369093000001,1703.036870699998,s,1,富足,k,1,0.7390369999993709,0.5663281000015559,hjh,m,26,2024_Apr_18_1845,mian,2021.2.3,59.8937245742616,
,,,,,,1,0,pic/flanker5.png,pic/flanker3.png,a,l,pic/AffRest2.png,,,,,,,,,,,,,,,,,,,,,,,,,0,1,1,1,0,46,46,71,,,,1706.4029042000002,None,1705.2199094999996,1706.4196682000002,a,1,禁止,l,1,0.6428005999987363,0.6119205999966653,hjh,m,26,2024_Apr_18_1845,mian,2021.2.3,59.8937245742616,
,,,,,,1,0,pic/flanker6.png,pic/flanker4.png,s,l,pic/AffRest2.png,,,,,,,,,,,,,,,,,,,,,,,,,0,1,1,1,0,47,47,21,,,,1709.6029901000002,None,1708.419404799999,1709.6193064,s,1,伤心,l,1,0.6171627000003355,0.6535547000021324,hjh,m,26,2024_Apr_18_1845,mian,2021.2.3,59.8937245742616,
,,,,,,1,1,pic/flanker6.png,pic/flanker4.png,s,k,pic/AffRest2.png,,,,,,,,,,,,,,,,,,,,,,,,,0,1,1,1,0,48,48,70,,,,1712.8690045999974,None,1711.6858364,1712.8856663000006,s,1,富丽,k,1,0.5907740000002377,0.5780147000004945,hjh,m,26,2024_Apr_18_1845,mian,2021.2.3,59.8937245742616,
,,,,,,1,1,pic/flanker6.png,pic/flanker4.png,s,k,pic/AffRest2.png,,,,,,,,,,,,,,,,,,,,,,,,,0,1,1,1,0,49,49,38,,,,1715.8853452000003,None,1714.7023573999977,1715.9020425999988,s,1,鲜艳,k,1,0.828083799999149,0.5488931999971101,hjh,m,26,2024_Apr_18_1845,mian,2021.2.3,59.8937245742616,
,,,,,,0,1,pic/flanker6.png,pic/flanker2.png,a,k,pic/AffRest2.png,,,,,,,,,,,,,,,,,,,,,,,,,0,1,1,1,0,50,50,10,,,,1719.3004459999975,None,1718.1171830999992,1719.3169407999994,a,1,生动,k,1,0.45378879999771016,0.6633817000001727,hjh,m,26,2024_Apr_18_1845,mian,2021.2.3,59.8937245742616,
,,,,,,0,0,pic/flanker6.png,pic/flanker2.png,a,l,pic/AffRest2.png,,,,,,,,,,,,,,,,,,,,,,,,,0,1,1,1,0,51,51,41,,,,1722.3514245999977,None,1721.1681953000007,1722.3679625000004,a,1,怀疑,l,1,0.4760911000012129,1.0417888999982097,hjh,m,26,2024_Apr_18_1845,mian,2021.2.3,59.8937245742616,
,,,,,,1,0,pic/flanker5.png,pic/flanker3.png,a,l,pic/AffRest2.png,,,,,,,,,,,,,,,,,,,,,,,,,0,1,1,1,0,52,52,79,,,,1725.9344447999974,None,1724.7512609000005,1725.9510612999984,a,1,穷苦,l,1,1.3473164999995788,0.6402530999985174,hjh,m,26,2024_Apr_18_1845,mian,2021.2.3,59.8937245742616,
,,,,,,0,1,pic/flanker5.png,pic/flanker1.png,s,k,pic/AffRest2.png,,,,,,,,,,,,,,,,,,,,,,,,,0,1,1,1,0,53,53,48,,,,1729.9841230999991,None,1728.8009715000007,1730.0007474999984,s,1,奉献,k,1,0.5273514999971667,0.5783429999974032,hjh,m,26,2024_Apr_18_1845,mian,2021.2.3,59.8937245742616,
,,,,,,1,1,pic/flanker6.png,pic/flanker4.png,s,k,pic/AffRest2.png,,,,,,,,,,,,,,,,,,,,,,,,,0,1,1,1,0,54,54,54,,,,1732.9837262,None,1731.8006668999988,1733.0006175999988,None,0,顽强,k,1,,0.8061108000001695,hjh,m,26,2024_Apr_18_1845,mian,2021.2.3,59.8937245742616,
,,,,,,1,0,pic/flanker6.png,pic/flanker4.png,s,l,pic/AffRest2.png,,,,,,,,,,,,,,,,,,,,,,,,,0,1,1,1,0,55,55,53,,,,1737.1667887000003,None,1735.9835619999976,1737.1943126999977,s,1,嘲笑,l,1,0.5729449999998906,0.9138977000002342,hjh,m,26,2024_Apr_18_1845,mian,2021.2.3,59.8937245742616,
,,,,,,1,0,pic/flanker6.png,pic/flanker4.png,s,l,pic/AffRest2.png,,,,,,,,,,,,,,,,,,,,,,,,,0,1,1,1,0,56,56,69,,,,1740.516589499999,None,1739.3329759999979,1740.5334373000005,s,1,胡涂,l,1,0.524353599997994,0.7543174999991606,hjh,m,26,2024_Apr_18_1845,mian,2021.2.3,59.8937245742616,
,,,,,,0,0,pic/flanker5.png,pic/flanker1.png,s,l,pic/AffRest2.png,,,,,,,,,,,,,,,,,,,,,,,,,0,1,1,1,0,57,57,35,,,,1743.6992632000001,None,1742.5162849999979,1743.7160922000003,s,1,浪费,l,1,0.41994229999909294,0.6189419999973325,hjh,m,26,2024_Apr_18_1845,mian,2021.2.3,59.8937245742616,
,,,,,,1,1,pic/flanker6.png,pic/flanker4.png,s,k,pic/AffRest2.png,,,,,,,,,,,,,,,,,,,,,,,,,0,1,1,1,0,58,58,46,,,,1746.7824045999987,None,1745.5994853999982,1746.7991244000004,s,1,精致,k,1,0.645587400002114,0.5934508999998798,hjh,m,26,2024_Apr_18_1845,mian,2021.2.3,59.8937245742616,
,,,,,,0,0,pic/flanker6.png,pic/flanker2.png,a,l,pic/AffRest2.png,,,,,,,,,,,,,,,,,,,,,,,,,0,1,1,1,0,59,59,17,,,,1749.9653942000004,None,1748.782344299998,1749.9820570999982,a,1,沮丧,l,1,0.9843397000004188,1.023148799999035,hjh,m,26,2024_Apr_18_1845,mian,2021.2.3,59.8937245742616,
,,,,,,1,0,pic/flanker5.png,pic/flanker3.png,a,l,pic/AffRest2.png,,,,,,,,,,,,,,,,,,,,,,,,,0,1,1,1,0,60,60,47,,,,1753.865028199998,None,1752.6817370999997,1753.8816764000003,a,1,撒谎,l,1,0.6308547999979055,0.6246909999972559,hjh,m,26,2024_Apr_18_1845,mian,2021.2.3,59.8937245742616,
,,,,,,0,1,pic/flanker6.png,pic/flanker2.png,a,k,pic/AffRest2.png,,,,,,,,,,,,,,,,,,,,,,,,,0,1,1,1,0,61,61,66,,,,1757.164664,None,1755.9815037999979,1757.1814414,a,1,诚恳,k,1,0.42188180000084685,0.6568069999993895,hjh,m,26,2024_Apr_18_1845,mian,2021.2.3,59.8937245742616,
,,,,,,1,1,pic/flanker5.png,pic/flanker3.png,a,k,pic/AffRest2.png,,,,,,,,,,,,,,,,,,,,,,,,,0,1,1,1,0,62,62,36,,,,1760.2308577000003,None,1759.0480438999984,1760.2477513999984,a,1,振作,k,1,0.6027584000003117,0.819338000001153,hjh,m,26,2024_Apr_18_1845,mian,2021.2.3,59.8937245742616,
,,,,,,1,0,pic/flanker5.png,pic/flanker3.png,a,l,pic/AffRest2.png,,,,,,,,,,,,,,,,,,,,,,,,,0,1,1,1,0,63,63,31,,,,1763.5643367999983,None,1762.380724999999,1763.5807636999998,a,1,忧虑,l,1,0.6394733999986784,0.5901688000012655,hjh,m,26,2024_Apr_18_1845,mian,2021.2.3,59.8937245742616,
,,,,,,1,1,pic/flanker6.png,pic/flanker4.png,s,k,pic/AffRest2.png,,,,,,,,,,,,,,,,,,,,,,,,,0,1,1,1,0,64,64,14,,,,1766.6305213999985,None,1765.4473419999995,1766.6470429,s,1,吉祥,k,1,0.4973099999988335,0.5160646000003908,hjh,m,26,2024_Apr_18_1845,mian,2021.2.3,59.8937245742616,
,,,,,,0,1,pic/flanker5.png,pic/flanker1.png,s,k,pic/AffRest2.png,,,,,,,,,,,,,,,,,,,,,,,,,0,1,1,1,0,65,65,40,,,,1769.5300697999992,None,1768.346830399998,1769.5468314999998,s,1,享受,k,1,0.4240408000005118,0.5472895999992033,hjh,m,26,2024_Apr_18_1845,mian,2021.2.3,59.8937245742616,
,,,,,,1,1,pic/flanker5.png,pic/flanker3.png,a,k,pic/AffRest2.png,,,,,,,,,,,,,,,,,,,,,,,,,0,1,1,1,0,66,66,20,,,,1772.3466640000006,None,1771.1633887999997,1772.363128099998,a,1,雄厚,k,1,0.570778599998448,0.5918382999989262,hjh,m,26,2024_Apr_18_1845,mian,2021.2.3,59.8937245742616,
,,,,,,1,0,pic/flanker5.png,pic/flanker3.png,a,l,pic/AffRest2.png,,,,,,,,,,,,,,,,,,,,,,,,,0,1,1,1,0,67,67,39,,,,1775.412849299999,None,1774.2296745999993,1775.4295841999992,a,1,处罚,l,1,0.5887959000028786,0.5914668999976129,hjh,m,26,2024_Apr_18_1845,mian,2021.2.3,59.8937245742616,
,,,,,,1,0,pic/flanker5.png,pic/flanker3.png,a,l,pic/AffRest2.png,,,,,,,,,,,,,,,,,,,,,,,,,0,1,1,1,0,68,68,23,,,,1778.4959068999997,None,1777.3127209999984,1778.5126788999987,a,1,损害,l,1,0.5839730000006966,0.617617900003097,hjh,m,26,2024_Apr_18_1845,mian,2021.2.3,59.8937245742616,
,,,,,,0,1,pic/flanker6.png,pic/flanker2.png,a,k,pic/AffRest2.png,,,,,,,,,,,,,,,,,,,,,,,,,0,1,1,1,0,69,69,50,,,,1781.5291608999978,None,1780.3456660999982,1781.545723700001,a,1,畅销,k,1,0.5188295000007201,0.6329538000027242,hjh,m,26,2024_Apr_18_1845,mian,2021.2.3,59.8937245742616,
,,,,,,0,0,pic/flanker6.png,pic/flanker2.png,a,l,pic/AffRest2.png,,,,,,,,,,,,,,,,,,,,,,,,,0,1,1,1,0,70,70,33,,,,1784.661933299998,None,1783.478809799999,1784.6788018999978,a,1,闷热,l,1,0.4684127000000444,0.615934900000866,hjh,m,26,2024_Apr_18_1845,mian,2021.2.3,59.8937245742616,
,,,,,,1,0,pic/flanker6.png,pic/flanker4.png,s,l,pic/AffRest2.png,,,,,,,,,,,,,,,,,,,,,,,,,0,1,1,1,0,71,71,5,,,,1787.678398199998,None,1786.495216299998,1787.6950175999991,s,1,自卑,l,1,0.5942261000018334,0.8119513999990886,hjh,m,26,2024_Apr_18_1845,mian,2021.2.3,59.8937245742616,
,,,,,,1,0,pic/flanker6.png,pic/flanker4.png,s,l,pic/AffRest2.png,,,,,,,,,,,,,,,,,,,,,,,,,0,1,1,1,0,72,72,13,,,,1790.9780981000004,None,1789.7948727000003,1790.9945884000008,s,1,逃避,l,1,0.6275089000009757,0.6850035000024945,hjh,m,26,2024_Apr_18_1845,mian,2021.2.3,59.8937245742616,
,,,,,,1,1,pic/flanker5.png,pic/flanker3.png,a,k,pic/AffRest2.png,,,,,,,,,,,,,,,,,,,,,,,,,0,1,1,1,0,73,73,44,,,,1794.2276805000001,None,1793.0444097,1794.2446681000001,a,1,爽朗,k,1,0.4976716999990458,0.597909800002526,hjh,m,26,2024_Apr_18_1845,mian,2021.2.3,59.8937245742616,
,,,,,,0,0,pic/flanker5.png,pic/flanker1.png,s,l,pic/AffRest2.png,,,,,,,,,,,,,,,,,,,,,,,,,0,1,1,1,0,74,74,59,,,,1797.2605975000006,None,1796.0775639999993,1797.2773869999983,s,1,郁闷,l,1,0.39488900000287686,0.5617206999995688,hjh,m,26,2024_Apr_18_1845,mian,2021.2.3,59.8937245742616,
,,,,,,1,0,pic/flanker5.png,pic/flanker3.png,a,l,pic/AffRest2.png,,,,,,,,,,,,,,,,,,,,,,,,,0,1,1,1,0,75,75,63,,,,1800.2605402000008,None,1799.0770764000008,1800.2771619999985,a,1,假冒,l,1,0.5519505999982357,0.5905615999981819,hjh,m,26,2024_Apr_18_1845,mian,2021.2.3,59.8937245742616,
,,,,,,1,1,pic/flanker5.png,pic/flanker3.png,a,k,pic/AffRest2.png,,,,,,,,,,,,,,,,,,,,,,,,,0,1,1,1,0,76,76,52,,,,1803.3087242000001,None,1802.1258407999994,1803.3255849999987,a,1,清秀,k,1,0.5293418000001111,0.591214600000967,hjh,m,26,2024_Apr_18_1845,mian,2021.2.3,59.8937245742616,
,,,,,,0,0,pic/flanker5.png,pic/flanker1.png,s,l,pic/AffRest2.png,,,,,,,,,,,,,,,,,,,,,,,,,0,1,1,1,0,77,77,67,,,,1806.3264653999977,None,1805.1432778999988,1806.3432509999984,s,1,丢失,l,1,0.5612282000001869,0.5513711999992665,hjh,m,26,2024_Apr_18_1845,mian,2021.2.3,59.8937245742616,
,,,,,,0,1,pic/flanker5.png,pic/flanker1.png,s,k,pic/AffRest2.png,,,,,,,,,,,,,,,,,,,,,,,,,0,1,1,1,0,78,78,72,,,,1809.4262328999976,None,1808.2429951999984,1809.4428393999988,s,1,俊秀,k,1,0.4629037000013341,0.5493304999981774,hjh,m,26,2024_Apr_18_1845,mian,2021.2.3,59.8937245742616,
,,,,,,1,0,pic/flanker5.png,pic/flanker3.png,a,l,pic/AffRest2.png,,,,,,,,,,,,,,,,,,,,,,,,,0,1,1,1,0,79,79,55,,,,1812.3759694,None,1811.1927190999995,1812.3926317999976,a,1,焦躁,l,1,0.5652602999980445,0.6020934000007401,hjh,m,26,2024_Apr_18_1845,mian,2021.2.3,59.8937245742616,
,,,,,,,,,,,,pic/AffRest2.png,,,,,,,,,,,,,,,,,,,,,,,,,0,1,1,1,,,,,,,,,,,,,,,,,,,hjh,m,26,2024_Apr_18_1845,mian,2021.2.3,59.8937245742616,
,,,,,,0,0,pic/flanker6.png,pic/flanker2.png,a,l,pic/AffRest3.png,,,,,,,,,,,,,,,,,,,,,,,,,0,2,2,2,0,0,0,17,,,,1829.5394747999999,None,1828.3562628,1829.5561482999983,a,1,撒谎,l,1,0.4650700999991386,1.2127392000002146,hjh,m,26,2024_Apr_18_1845,mian,2021.2.3,59.8937245742616,
,,,,,,0,1,pic/flanker5.png,pic/flanker1.png,s,k,pic/AffRest3.png,,,,,,,,,,,,,,,,,,,,,,,,,0,2,2,2,0,1,1,56,,,,1833.124016499998,None,1831.9408885999983,1833.1405350999994,s,1,优雅,k,1,0.5571010999992723,0.5517005000001518,hjh,m,26,2024_Apr_18_1845,mian,2021.2.3,59.8937245742616,
,,,,,,0,0,pic/flanker6.png,pic/flanker2.png,a,l,pic/AffRest3.png,,,,,,,,,,,,,,,,,,,,,,,,,0,2,2,2,0,2,2,57,,,,1836.1570599999977,None,1834.9738102999981,1836.173670100001,a,1,假冒,l,1,0.3991898000022047,0.5536943000006431,hjh,m,26,2024_Apr_18_1845,mian,2021.2.3,59.8937245742616,
,,,,,,1,0,pic/flanker6.png,pic/flanker4.png,s,l,pic/AffRest3.png,,,,,,,,,,,,,,,,,,,,,,,,,0,2,2,2,0,3,3,37,,,,1838.956622499998,None,1837.7738910000007,1838.9732632999985,s,1,消沉,l,1,0.5931688999990001,0.522786300000007,hjh,m,26,2024_Apr_18_1845,mian,2021.2.3,59.8937245742616,
,,,,,,1,0,pic/flanker5.png,pic/flanker3.png,a,l,pic/AffRest3.png,,,,,,,,,,,,,,,,,,,,,,,,,0,2,2,2,0,4,4,47,,,,1842.0228788999993,None,1840.8396971000002,1842.0396273999977,a,1,悲观,l,1,0.5793553000003158,0.7723422000017308,hjh,m,26,2024_Apr_18_1845,mian,2021.2.3,59.8937245742616,
,,,,,,1,0,pic/flanker5.png,pic/flanker3.png,a,l,pic/AffRest3.png,,,,,,,,,,,,,,,,,,,,,,,,,0,2,2,2,0,5,5,39,,,,1845.3725883000006,None,1844.1895968999997,1845.3892917999983,a,1,伤心,l,1,0.5654326000003493,0.6808180000007269,hjh,m,26,2024_Apr_18_1845,mian,2021.2.3,59.8937245742616,
,,,,,,1,0,pic/flanker6.png,pic/flanker4.png,s,l,pic/AffRest3.png,,,,,,,,,,,,,,,,,,,,,,,,,0,2,2,2,0,6,6,77,,,,1848.5057151,None,1847.3224335999985,1848.522420199999,s,1,忧虑,l,1,0.6134712000020954,0.743452900002012,hjh,m,26,2024_Apr_18_1845,mian,2021.2.3,59.8937245742616,
,,,,,,0,1,pic/flanker6.png,pic/flanker2.png,a,k,pic/AffRest3.png,,,,,,,,,,,,,,,,,,,,,,,,,0,2,2,2,0,7,7,18,,,,1851.7553856999984,None,1850.5722648999981,1851.7719758999992,a,1,留恋,k,1,0.9955386000001454,0.7301886999994167,hjh,m,26,2024_Apr_18_1845,mian,2021.2.3,59.8937245742616,
,,,,,,0,1,pic/flanker6.png,pic/flanker2.png,a,k,pic/AffRest3.png,,,,,,,,,,,,,,,,,,,,,,,,,0,2,2,2,0,8,8,2,,,,1855.4219435999985,None,1854.2384586000007,1855.4386857999998,a,1,珍藏,k,1,0.47557579999920563,0.7515187999997579,hjh,m,26,2024_Apr_18_1845,mian,2021.2.3,59.8937245742616,
,,,,,,0,0,pic/flanker6.png,pic/flanker2.png,a,l,pic/AffRest3.png,,,,,,,,,,,,,,,,,,,,,,,,,0,2,2,2,0,9,9,65,,,,1858.5031697999984,None,1857.3202521999992,1858.5203056999999,a,1,禁止,l,1,0.587704900000972,0.7020415000006324,hjh,m,26,2024_Apr_18_1845,mian,2021.2.3,59.8937245742616,
,,,,,,0,0,pic/flanker6.png,pic/flanker2.png,a,l,pic/AffRest3.png,,,,,,,,,,,,,,,,,,,,,,,,,0,2,2,2,0,10,10,9,,,,1861.8377669000001,None,1860.6543450999998,1861.8543762000008,a,1,损害,l,1,0.4387948999974469,0.7324896000027366,hjh,m,26,2024_Apr_18_1845,mian,2021.2.3,59.8937245742616,
,,,,,,1,0,pic/flanker6.png,pic/flanker4.png,s,l,pic/AffRest3.png,,,,,,,,,,,,,,,,,,,,,,,,,0,2,2,2,0,11,11,13,,,,1864.8541637999988,None,1863.6709883000003,1864.871190599999,s,1,失意,l,1,0.6605772000002617,0.5898784999990312,hjh,m,26,2024_Apr_18_1845,mian,2021.2.3,59.8937245742616,
,,,,,,0,1,pic/flanker6.png,pic/flanker2.png,a,k,pic/AffRest3.png,,,,,,,,,,,,,,,,,,,,,,,,,0,2,2,2,0,12,12,26,,,,1867.9539073999986,None,1866.7705534999986,1867.9704927999992,a,1,爽朗,k,1,0.5109449999981734,0.5558798999991268,hjh,m,26,2024_Apr_18_1845,mian,2021.2.3,59.8937245742616,
,,,,,,0,1,pic/flanker5.png,pic/flanker1.png,s,k,pic/AffRest3.png,,,,,,,,,,,,,,,,,,,,,,,,,0,2,2,2,0,13,13,16,,,,1870.9701290999983,None,1869.7868823999997,1870.986772799999,s,1,瑰丽,k,1,0.43115129999932833,0.5119195999977819,hjh,m,26,2024_Apr_18_1845,mian,2021.2.3,59.8937245742616,
,,,,,,0,1,pic/flanker5.png,pic/flanker1.png,s,k,pic/AffRest3.png,,,,,,,,,,,,,,,,,,,,,,,,,0,2,2,2,0,14,14,72,,,,1873.8033114999998,None,1872.6199085000007,1873.8199839000008,s,1,享受,k,1,0.45982310000181315,0.6671370000003662,hjh,m,26,2024_Apr_18_1845,mian,2021.2.3,59.8937245742616,
,,,,,,1,0,pic/flanker6.png,pic/flanker4.png,s,l,pic/AffRest3.png,,,,,,,,,,,,,,,,,,,,,,,,,0,2,2,2,0,15,15,21,,,,1876.8362990999995,None,1875.6530435999994,1876.8529166000008,s,1,处罚,l,1,0.5423502999983612,0.7371376000010059,hjh,m,26,2024_Apr_18_1845,mian,2021.2.3,59.8937245742616,
,,,,,,1,0,pic/flanker5.png,pic/flanker3.png,a,l,pic/AffRest3.png,,,,,,,,,,,,,,,,,,,,,,,,,0,2,2,2,0,16,16,7,,,,1880.2027835000008,None,1879.0195074000003,1880.2194200999984,a,1,胡涂,l,1,0.6452016000002914,0.667587599997205,hjh,m,26,2024_Apr_18_1845,mian,2021.2.3,59.8937245742616,
,,,,,,0,0,pic/flanker5.png,pic/flanker1.png,s,l,pic/AffRest3.png,,,,,,,,,,,,,,,,,,,,,,,,,0,2,2,2,0,17,17,3,,,,1883.5522117,None,1882.3689951999986,1883.56898,s,1,慌忙,l,1,0.4327646999990975,0.627359099999012,hjh,m,26,2024_Apr_18_1845,mian,2021.2.3,59.8937245742616,
,,,,,,1,0,pic/flanker5.png,pic/flanker3.png,a,l,pic/AffRest3.png,,,,,,,,,,,,,,,,,,,,,,,,,0,2,2,2,0,18,18,15,,,,1886.633810899999,None,1885.4507001999991,1886.6507101999996,a,1,郁闷,l,1,0.5550935999999638,0.6086236000010103,hjh,m,26,2024_Apr_18_1845,mian,2021.2.3,59.8937245742616,
,,,,,,0,0,pic/flanker5.png,pic/flanker1.png,s,l,pic/AffRest3.png,,,,,,,,,,,,,,,,,,,,,,,,,0,2,2,2,0,19,19,19,,,,1889.6352774000006,None,1888.451949899998,1889.6517640999991,s,1,冷笑,l,1,0.4666772000018682,0.628773699998419,hjh,m,26,2024_Apr_18_1845,mian,2021.2.3,59.8937245742616,
,,,,,,0,1,pic/flanker6.png,pic/flanker2.png,a,k,pic/AffRest3.png,,,,,,,,,,,,,,,,,,,,,,,,,0,2,2,2,0,20,20,42,,,,1892.551292199998,None,1891.368015600001,1892.5680186999998,a,1,热切,k,1,0.5791976999971666,0.6337726999990991,hjh,m,26,2024_Apr_18_1845,mian,2021.2.3,59.8937245742616,
,,,,,,1,1,pic/flanker5.png,pic/flanker3.png,a,k,pic/AffRest3.png,,,,,,,,,,,,,,,,,,,,,,,,,0,2,2,2,0,21,21,76,,,,1895.7510101999978,None,1894.5677942000002,1895.7676888999995,a,1,敬佩,k,1,0.543627999999444,0.5876375999978336,hjh,m,26,2024_Apr_18_1845,mian,2021.2.3,59.8937245742616,
,,,,,,0,1,pic/flanker6.png,pic/flanker2.png,a,k,pic/AffRest3.png,,,,,,,,,,,,,,,,,,,,,,,,,0,2,2,2,0,22,22,66,,,,1898.8331180999994,None,1897.6498076999997,1898.8501232999988,a,1,清秀,k,1,0.4200743999972474,0.54756190000262,hjh,m,26,2024_Apr_18_1845,mian,2021.2.3,59.8937245742616,
,,,,,,0,1,pic/flanker5.png,pic/flanker1.png,s,k,pic/AffRest3.png,,,,,,,,,,,,,,,,,,,,,,,,,0,2,2,2,0,23,23,64,,,,1901.667362199998,None,1900.4838108000004,1901.6839701999997,s,1,如愿,k,1,0.3791157000014209,0.6050233000023582,hjh,m,26,2024_Apr_18_1845,mian,2021.2.3,59.8937245742616,
,,,,,,1,1,pic/flanker6.png,pic/flanker4.png,s,k,pic/AffRest3.png,,,,,,,,,,,,,,,,,,,,,,,,,0,2,2,2,0,24,24,38,,,,1904.4834768,None,1903.3002017,1904.5001902999975,s,1,正直,k,1,0.5244657999974152,0.5341717999981483,hjh,m,26,2024_Apr_18_1845,mian,2021.2.3,59.8937245742616,
,,,,,,0,0,pic/flanker5.png,pic/flanker1.png,s,l,pic/AffRest3.png,,,,,,,,,,,,,,,,,,,,,,,,,0,2,2,2,0,25,25,35,,,,1907.4831639000004,None,1906.300103900001,1907.4999415999991,s,1,焦躁,l,1,0.45772419999775593,0.6889124000008451,hjh,m,26,2024_Apr_18_1845,mian,2021.2.3,59.8937245742616,
,,,,,,1,1,pic/flanker6.png,pic/flanker4.png,s,k,pic/AffRest3.png,,,,,,,,,,,,,,,,,,,,,,,,,0,2,2,2,0,26,26,14,,,,1910.6329211999982,None,1909.4496983999998,1910.6496066,s,1,豪放,k,1,0.659998800001631,0.5514683000001241,hjh,m,26,2024_Apr_18_1845,mian,2021.2.3,59.8937245742616,
,,,,,,1,0,pic/flanker6.png,pic/flanker4.png,s,l,pic/AffRest3.png,,,,,,,,,,,,,,,,,,,,,,,,,0,2,2,2,0,27,27,5,,,,1913.782779000001,None,1912.5994629999987,1913.7994491999998,s,1,厌恶,l,1,0.6911173999978928,0.6060012000016286,hjh,m,26,2024_Apr_18_1845,mian,2021.2.3,59.8937245742616,
,,,,,,0,1,pic/flanker6.png,pic/flanker2.png,a,k,pic/AffRest3.png,,,,,,,,,,,,,,,,,,,,,,,,,0,2,2,2,0,28,28,74,,,,1916.9156038,None,1915.7324377000004,1916.9323289999993,a,1,圣洁,k,1,0.567038400000456,0.5734288999992714,hjh,m,26,2024_Apr_18_1845,mian,2021.2.3,59.8937245742616,
,,,,,,0,0,pic/flanker6.png,pic/flanker2.png,a,l,pic/AffRest3.png,,,,,,,,,,,,,,,,,,,,,,,,,0,2,2,2,0,29,29,33,,,,1919.9160995999991,None,1918.7320919999984,1919.9321267999985,a,1,黑暗,l,1,0.38378130000273813,0.8470491000007314,hjh,m,26,2024_Apr_18_1845,mian,2021.2.3,59.8937245742616,
,,,,,,0,1,pic/flanker6.png,pic/flanker2.png,a,k,pic/AffRest3.png,,,,,,,,,,,,,,,,,,,,,,,,,0,2,2,2,0,30,30,58,,,,1923.0319739999977,None,1921.8485746999977,1923.0483881,a,1,吉祥,k,1,0.4115094000007957,0.58727319999889,hjh,m,26,2024_Apr_18_1845,mian,2021.2.3,59.8937245742616,
,,,,,,0,1,pic/flanker5.png,pic/flanker1.png,s,k,pic/AffRest3.png,,,,,,,,,,,,,,,,,,,,,,,,,0,2,2,2,0,31,31,24,,,,1925.980142299999,None,1924.7970193,1925.9968878,s,1,典雅,k,1,0.36398389999885694,0.566601400001673,hjh,m,26,2024_Apr_18_1845,mian,2021.2.3,59.8937245742616,
,,,,,,1,1,pic/flanker6.png,pic/flanker4.png,s,k,pic/AffRest3.png,,,,,,,,,,,,,,,,,,,,,,,,,0,2,2,2,0,32,32,30,,,,1928.7312259999999,None,1927.5479538,1928.7478029999984,s,1,顽强,k,1,0.456126499997481,0.5792619999992894,hjh,m,26,2024_Apr_18_1845,mian,2021.2.3,59.8937245742616,
,,,,,,1,1,pic/flanker5.png,pic/flanker3.png,a,k,pic/AffRest3.png,,,,,,,,,,,,,,,,,,,,,,,,,0,2,2,2,0,33,33,4,,,,1931.5974938,None,1930.4145790000002,1931.6141972999976,a,1,畅销,k,1,0.5359425999995437,0.6153984000011405,hjh,m,26,2024_Apr_18_1845,mian,2021.2.3,59.8937245742616,
,,,,,,0,1,pic/flanker6.png,pic/flanker2.png,a,k,pic/AffRest3.png,,,,,,,,,,,,,,,,,,,,,,,,,0,2,2,2,0,34,34,50,,,,1934.6456002999985,None,1933.4628412999991,1934.6624417999992,a,1,秀丽,k,1,0.5493552000007185,0.5609537999989698,hjh,m,26,2024_Apr_18_1845,mian,2021.2.3,59.8937245742616,
,,,,,,0,0,pic/flanker5.png,pic/flanker1.png,s,l,pic/AffRest3.png,,,,,,,,,,,,,,,,,,,,,,,,,0,2,2,2,0,35,35,51,,,,1937.7468549999976,None,1936.5639489999994,1937.7635071999975,s,1,烦恼,l,1,0.5044218000002729,0.7079405000004044,hjh,m,26,2024_Apr_18_1845,mian,2021.2.3,59.8937245742616,
,,,,,,0,0,pic/flanker6.png,pic/flanker2.png,a,l,pic/AffRest3.png,,,,,,,,,,,,,,,,,,,,,,,,,0,2,2,2,0,36,36,25,,,,1941.0465793999974,None,1939.863292099999,1941.063383599998,a,1,怀疑,l,1,0.443994000001112,0.8078315000020666,hjh,m,26,2024_Apr_18_1845,mian,2021.2.3,59.8937245742616,
,,,,,,1,1,pic/flanker6.png,pic/flanker4.png,s,k,pic/AffRest3.png,,,,,,,,,,,,,,,,,,,,,,,,,0,2,2,2,0,37,37,70,,,,1944.1963152999997,None,1943.013100199998,1944.212926199998,s,1,丰满,k,1,0.5731324000007589,0.5521800999995321,hjh,m,26,2024_Apr_18_1845,mian,2021.2.3,59.8937245742616,
,,,,,,1,1,pic/flanker6.png,pic/flanker4.png,s,k,pic/AffRest3.png,,,,,,,,,,,,,,,,,,,,,,,,,0,2,2,2,0,38,38,62,,,,1947.3129575999992,None,1946.1296569000006,1947.3293029999986,s,1,有利,k,1,0.5756289000019024,0.5284415999994962,hjh,m,26,2024_Apr_18_1845,mian,2021.2.3,59.8937245742616,
,,,,,,0,0,pic/flanker6.png,pic/flanker2.png,a,l,pic/AffRest3.png,,,,,,,,,,,,,,,,,,,,,,,,,0,2,2,2,0,39,39,49,,,,1950.2956483999988,None,1949.1128432000005,1950.312602599999,a,1,堵塞,l,1,0.4346201000007568,0.674741399998311,hjh,m,26,2024_Apr_18_1845,mian,2021.2.3,59.8937245742616,
,,,,,,0,0,pic/flanker5.png,pic/flanker1.png,s,l,pic/AffRest3.png,,,,,,,,,,,,,,,,,,,,,,,,,0,2,2,2,0,40,40,27,,,,1953.3289215000004,None,1952.1454029999986,1953.3456065999999,s,1,鲁莽,l,1,0.3307514000007359,0.6886622999991232,hjh,m,26,2024_Apr_18_1845,mian,2021.2.3,59.8937245742616,
,,,,,,0,1,pic/flanker5.png,pic/flanker1.png,s,k,pic/AffRest3.png,,,,,,,,,,,,,,,,,,,,,,,,,0,2,2,2,0,41,41,0,,,,1956.1785687999982,None,1954.9952075,1956.1950892999994,s,1,雄厚,k,1,0.4201902999993763,0.5668088000020362,hjh,m,26,2024_Apr_18_1845,mian,2021.2.3,59.8937245742616,
,,,,,,1,0,pic/flanker6.png,pic/flanker4.png,s,l,pic/AffRest3.png,,,,,,,,,,,,,,,,,,,,,,,,,0,2,2,2,0,42,42,53,,,,1959.0937654000008,None,1957.9104184999997,1959.110550999998,s,1,心慌,l,1,0.5768322999974771,0.54549169999882,hjh,m,26,2024_Apr_18_1845,mian,2021.2.3,59.8937245742616,
,,,,,,0,0,pic/flanker5.png,pic/flanker1.png,s,l,pic/AffRest3.png,,,,,,,,,,,,,,,,,,,,,,,,,0,2,2,2,0,43,43,59,,,,1962.2612222999996,None,1961.0778179000008,1962.2778333999995,s,1,缺乏,l,1,0.39358509999874514,0.6062631999993755,hjh,m,26,2024_Apr_18_1845,mian,2021.2.3,59.8937245742616,
,,,,,,1,0,pic/flanker6.png,pic/flanker4.png,s,l,pic/AffRest3.png,,,,,,,,,,,,,,,,,,,,,,,,,0,2,2,2,0,44,44,69,,,,1965.1441459999987,None,1963.960949299999,1965.160775299999,s,1,逃避,l,1,0.5068405999991228,0.5762647999981709,hjh,m,26,2024_Apr_18_1845,mian,2021.2.3,59.8937245742616,
,,,,,,1,0,pic/flanker5.png,pic/flanker3.png,a,l,pic/AffRest3.png,,,,,,,,,,,,,,,,,,,,,,,,,0,2,2,2,0,45,45,31,,,,1968.2605321999981,None,1967.077418599998,1968.277187399999,a,1,穷苦,l,1,0.6113141000023461,0.633081799998763,hjh,m,26,2024_Apr_18_1845,mian,2021.2.3,59.8937245742616,
,,,,,,0,1,pic/flanker6.png,pic/flanker2.png,a,k,pic/AffRest3.png,,,,,,,,,,,,,,,,,,,,,,,,,0,2,2,2,0,46,46,10,,,,1971.5269609999996,None,1970.3435944999983,1971.5435421000002,a,1,赞成,k,1,0.4943332000002556,0.727401899999677,hjh,m,26,2024_Apr_18_1845,mian,2021.2.3,59.8937245742616,
,,,,,,0,1,pic/flanker5.png,pic/flanker1.png,s,k,pic/AffRest3.png,,,,,,,,,,,,,,,,,,,,,,,,,0,2,2,2,0,47,47,32,,,,1974.5766554000002,None,1973.393439399999,1974.5933695999993,s,1,旺盛,k,1,0.5116349999989325,0.7168450000026496,hjh,m,26,2024_Apr_18_1845,mian,2021.2.3,59.8937245742616,
,,,,,,1,0,pic/flanker5.png,pic/flanker3.png,a,l,pic/AffRest3.png,,,,,,,,,,,,,,,,,,,,,,,,,0,2,2,2,0,48,48,55,,,,1977.7931014999995,None,1976.6099914999977,1977.809781699998,a,1,罚款,l,1,0.5823023000011744,0.5809159000018553,hjh,m,26,2024_Apr_18_1845,mian,2021.2.3,59.8937245742616,
