target,反应类型,条件,truetarget,CorAns,Position,congruency,AffValue,flankerPic,targetPic,corAnsF,corAnsA,RestPic,returnPractice.thisRepN,returnPractice.thisTrialN,returnPractice.thisN,returnPractice.thisIndex,pracNum.thisRepN,pracNum.thisTrialN,pracNum.thisN,pracNum.thisIndex,NumBlock1.thisRepN,NumBlock1.thisTrialN,NumBlock1.thisN,NumBlock1.thisIndex,NumBlock2.thisRepN,NumBlock2.thisTrialN,NumBlock2.thisN,NumBlock2.thisIndex,returnPrac.thisRepN,returnPrac.thisTrialN,returnPrac.thisN,returnPrac.thisIndex,PracAff.thisRepN,PracAff.thisTrialN,PracAff.thisN,PracAff.thisIndex,AffBlocks.thisRepN,AffBlocks.thisTrialN,AffBlocks.thisN,AffBlocks.thisIndex,AffBlock1.thisRepN,AffBlock1.thisTrialN,AffBlock1.thisN,AffBlock1.thisIndex,respNum2word.keys,respNum2word.corr,respNum2word.rt,text.started,text.stopped,blank.started,blank.stopped,respFlanker.keys,respFlanker.corr,respFlanker.rt,thisWord,respAffWord.keys,respAffWord.corr,respAffWord.rt,姓名,性别,年龄（周岁）,date,expName,psychopyVersion,frameRate,
2A,1,1,A,a,"[0.2, 0.2]",,,,,,,,0,0,0,0,0,0,0,0,,,,,,,,,,,,,,,,,,,,,,,,,l,0,1.0746281000001545,,,,,,,,,,,,hxy,f,22,2024_Apr_09_1518,mian,2021.2.3,59.99401259756743,
A9,1,2,A,a,"[-0.2, 0.2]",,,,,,,,0,0,0,0,0,1,1,1,,,,,,,,,,,,,,,,,,,,,,,,,a,1,1.3657123000002684,,,,,,,,,,,,hxy,f,22,2024_Apr_09_1518,mian,2021.2.3,59.99401259756743,
7e,2,1,7.0,a,"[-0.2, -0.2]",,,,,,,,0,0,0,0,0,2,2,2,,,,,,,,,,,,,,,,,,,,,,,,,a,1,1.1462479000001622,,,,,,,,,,,,hxy,f,22,2024_Apr_09_1518,mian,2021.2.3,59.99401259756743,
9H,2,2,9.0,a,"[0.2, -0.2]",,,,,,,,0,0,0,0,0,3,3,3,,,,,,,,,,,,,,,,,,,,,,,,,a,1,1.6445303000000422,,,,,,,,,,,,hxy,f,22,2024_Apr_09_1518,mian,2021.2.3,59.99401259756743,
h4,1,1,h,l,"[0.2, 0.2]",,,,,,,,0,0,0,0,0,4,4,4,,,,,,,,,,,,,,,,,,,,,,,,,l,1,1.1988031999999293,,,,,,,,,,,,hxy,f,22,2024_Apr_09_1518,mian,2021.2.3,59.99401259756743,
4H,1,2,H,a,"[-0.2, 0.2]",,,,,,,,0,0,0,0,0,5,5,5,,,,,,,,,,,,,,,,,,,,,,,,,l,0,2.0272020000002158,,,,,,,,,,,,hxy,f,22,2024_Apr_09_1518,mian,2021.2.3,59.99401259756743,
F8,2,1,8.0,l,"[-0.2, -0.2]",,,,,,,,0,0,0,0,0,6,6,6,,,,,,,,,,,,,,,,,,,,,,,,,l,1,2.7701196999996682,,,,,,,,,,,,hxy,f,22,2024_Apr_09_1518,mian,2021.2.3,59.99401259756743,
h7,2,2,7.0,a,"[0.2, -0.2]",,,,,,,,0,0,0,0,0,7,7,7,,,,,,,,,,,,,,,,,,,,,,,,,a,1,1.0178131000002395,,,,,,,,,,,,hxy,f,22,2024_Apr_09_1518,mian,2021.2.3,59.99401259756743,
5e,1,1,e,l,"[0.2, 0.2]",,,,,,,,0,0,0,0,0,8,8,8,,,,,,,,,,,,,,,,,,,,,,,,,l,1,1.6340452000004007,,,,,,,,,,,,hxy,f,22,2024_Apr_09_1518,mian,2021.2.3,59.99401259756743,
e8,1,2,e,l,"[-0.2, 0.2]",,,,,,,,0,0,0,0,0,9,9,9,,,,,,,,,,,,,,,,,,,,,,,,,l,1,2.441058499999599,,,,,,,,,,,,hxy,f,22,2024_Apr_09_1518,mian,2021.2.3,59.99401259756743,
4E,2,1,4.0,l,"[-0.2, -0.2]",,,,,,,,0,0,0,0,0,10,10,10,,,,,,,,,,,,,,,,,,,,,,,,,l,1,1.1225701000003028,,,,,,,,,,,,hxy,f,22,2024_Apr_09_1518,mian,2021.2.3,59.99401259756743,
5H,2,2,5.0,a,"[0.2, -0.2]",,,,,,,,0,0,0,0,0,11,11,11,,,,,,,,,,,,,,,,,,,,,,,,,a,1,0.7695560000001933,,,,,,,,,,,,hxy,f,22,2024_Apr_09_1518,mian,2021.2.3,59.99401259756743,
9E,1,1,E,a,"[0.2, 0.2]",,,,,,,,0,0,0,0,0,12,12,12,,,,,,,,,,,,,,,,,,,,,,,,,l,0,1.1272558000000572,,,,,,,,,,,,hxy,f,22,2024_Apr_09_1518,mian,2021.2.3,59.99401259756743,
h9,1,2,h,l,"[-0.2, 0.2]",,,,,,,,0,0,0,0,0,13,13,13,,,,,,,,,,,,,,,,,,,,,,,,,l,1,0.7432231000002503,,,,,,,,,,,,hxy,f,22,2024_Apr_09_1518,mian,2021.2.3,59.99401259756743,
2a,2,1,2.0,l,"[-0.2, -0.2]",,,,,,,,0,0,0,0,0,14,14,14,,,,,,,,,,,,,,,,,,,,,,,,,l,1,1.0588275000000067,,,,,,,,,,,,hxy,f,22,2024_Apr_09_1518,mian,2021.2.3,59.99401259756743,
e5,2,2,5.0,a,"[0.2, -0.2]",,,,,,,,0,0,0,0,0,15,15,15,,,,,,,,,,,,,,,,,,,,,,,,,a,1,0.8253845999997793,,,,,,,,,,,,hxy,f,22,2024_Apr_09_1518,mian,2021.2.3,59.99401259756743,
A5,1,1,A,a,"[0.2, 0.2]",,,,,,,,0,0,0,0,0,16,16,16,,,,,,,,,,,,,,,,,,,,,,,,,a,1,0.8380654000002323,,,,,,,,,,,,hxy,f,22,2024_Apr_09_1518,mian,2021.2.3,59.99401259756743,
a6,1,2,a,l,"[-0.2, 0.2]",,,,,,,,0,0,0,0,0,17,17,17,,,,,,,,,,,,,,,,,,,,,,,,,l,1,0.6513586000000942,,,,,,,,,,,,hxy,f,22,2024_Apr_09_1518,mian,2021.2.3,59.99401259756743,
2F,2,1,2.0,l,"[-0.2, -0.2]",,,,,,,,0,0,0,0,0,18,18,18,,,,,,,,,,,,,,,,,,,,,,,,,l,1,0.7607355000000098,,,,,,,,,,,,hxy,f,22,2024_Apr_09_1518,mian,2021.2.3,59.99401259756743,
e4,2,2,4.0,l,"[0.2, -0.2]",,,,,,,,0,0,0,0,0,19,19,19,,,,,,,,,,,,,,,,,,,,,,,,,l,1,0.720633199999611,,,,,,,,,,,,hxy,f,22,2024_Apr_09_1518,mian,2021.2.3,59.99401259756743,
,,,,,,,,,,,,,0,0,0,0,,,,,,,,,,,,,,,,,,,,,,,,,,,,,,,,,,,,,,,,,,,hxy,f,22,2024_Apr_09_1518,mian,2021.2.3,59.99401259756743,
7h,1,1,h,l,"[0.2, 0.2]",,,,,,,,,,,,,,,,0,0,0,0,,,,,,,,,,,,,,,,,,,,,l,1,1.7452751999999236,,,,,,,,,,,,hxy,f,22,2024_Apr_09_1518,mian,2021.2.3,59.99401259756743,
8F,1,2,F,a,"[-0.2, 0.2]",,,,,,,,,,,,,,,,0,1,1,1,,,,,,,,,,,,,,,,,,,,,a,1,1.1577418999995643,,,,,,,,,,,,hxy,f,22,2024_Apr_09_1518,mian,2021.2.3,59.99401259756743,
8h,2,1,8.0,l,"[-0.2, -0.2]",,,,,,,,,,,,,,,,0,2,2,2,,,,,,,,,,,,,,,,,,,,,l,1,1.0783937000005608,,,,,,,,,,,,hxy,f,22,2024_Apr_09_1518,mian,2021.2.3,59.99401259756743,
a2,2,2,2.0,l,"[0.2, -0.2]",,,,,,,,,,,,,,,,0,3,3,3,,,,,,,,,,,,,,,,,,,,,l,1,0.8310633999999482,,,,,,,,,,,,hxy,f,22,2024_Apr_09_1518,mian,2021.2.3,59.99401259756743,
8f,1,1,f,l,"[0.2, 0.2]",,,,,,,,,,,,,,,,0,4,4,4,,,,,,,,,,,,,,,,,,,,,l,1,1.5005603000008705,,,,,,,,,,,,hxy,f,22,2024_Apr_09_1518,mian,2021.2.3,59.99401259756743,
6a,1,2,a,l,"[-0.2, 0.2]",,,,,,,,,,,,,,,,0,5,5,5,,,,,,,,,,,,,,,,,,,,,l,1,0.7343282000001636,,,,,,,,,,,,hxy,f,22,2024_Apr_09_1518,mian,2021.2.3,59.99401259756743,
h6,2,1,6.0,l,"[-0.2, -0.2]",,,,,,,,,,,,,,,,0,6,6,6,,,,,,,,,,,,,,,,,,,,,l,1,0.9855759000001854,,,,,,,,,,,,hxy,f,22,2024_Apr_09_1518,mian,2021.2.3,59.99401259756743,
f9,2,2,9.0,a,"[0.2, -0.2]",,,,,,,,,,,,,,,,0,7,7,7,,,,,,,,,,,,,,,,,,,,,a,1,0.6093282000001636,,,,,,,,,,,,hxy,f,22,2024_Apr_09_1518,mian,2021.2.3,59.99401259756743,
E4,1,1,E,a,"[0.2, 0.2]",,,,,,,,,,,,,,,,0,8,8,8,,,,,,,,,,,,,,,,,,,,,a,1,0.8253907999996954,,,,,,,,,,,,hxy,f,22,2024_Apr_09_1518,mian,2021.2.3,59.99401259756743,
6e,1,2,e,l,"[-0.2, 0.2]",,,,,,,,,,,,,,,,0,9,9,9,,,,,,,,,,,,,,,,,,,,,l,1,0.7663698000005752,,,,,,,,,,,,hxy,f,22,2024_Apr_09_1518,mian,2021.2.3,59.99401259756743,
5G,2,1,5.0,a,"[-0.2, -0.2]",,,,,,,,,,,,,,,,0,10,10,10,,,,,,,,,,,,,,,,,,,,,a,1,1.6128428000001804,,,,,,,,,,,,hxy,f,22,2024_Apr_09_1518,mian,2021.2.3,59.99401259756743,
h3,2,2,3.0,a,"[0.2, -0.2]",,,,,,,,,,,,,,,,0,11,11,11,,,,,,,,,,,,,,,,,,,,,a,1,0.9537232000002405,,,,,,,,,,,,hxy,f,22,2024_Apr_09_1518,mian,2021.2.3,59.99401259756743,
9e,1,1,e,l,"[0.2, 0.2]",,,,,,,,,,,,,,,,0,12,12,12,,,,,,,,,,,,,,,,,,,,,l,1,0.9361570999999458,,,,,,,,,,,,hxy,f,22,2024_Apr_09_1518,mian,2021.2.3,59.99401259756743,
a8,1,2,a,l,"[-0.2, 0.2]",,,,,,,,,,,,,,,,0,13,13,13,,,,,,,,,,,,,,,,,,,,,l,1,1.3668989999996484,,,,,,,,,,,,hxy,f,22,2024_Apr_09_1518,mian,2021.2.3,59.99401259756743,
e8,2,1,8.0,l,"[-0.2, -0.2]",,,,,,,,,,,,,,,,0,14,14,14,,,,,,,,,,,,,,,,,,,,,l,1,1.0470311999997648,,,,,,,,,,,,hxy,f,22,2024_Apr_09_1518,mian,2021.2.3,59.99401259756743,
3f,2,2,3.0,a,"[0.2, -0.2]",,,,,,,,,,,,,,,,0,15,15,15,,,,,,,,,,,,,,,,,,,,,a,1,0.7042362000001958,,,,,,,,,,,,hxy,f,22,2024_Apr_09_1518,mian,2021.2.3,59.99401259756743,
7f,1,1,f,l,"[0.2, 0.2]",,,,,,,,,,,,,,,,0,16,16,16,,,,,,,,,,,,,,,,,,,,,l,1,1.2061602999992829,,,,,,,,,,,,hxy,f,22,2024_Apr_09_1518,mian,2021.2.3,59.99401259756743,
a7,1,2,a,l,"[-0.2, 0.2]",,,,,,,,,,,,,,,,0,17,17,17,,,,,,,,,,,,,,,,,,,,,l,1,0.7068234999997003,,,,,,,,,,,,hxy,f,22,2024_Apr_09_1518,mian,2021.2.3,59.99401259756743,
5A,2,1,5.0,a,"[-0.2, -0.2]",,,,,,,,,,,,,,,,0,18,18,18,,,,,,,,,,,,,,,,,,,,,a,1,1.105264000000716,,,,,,,,,,,,hxy,f,22,2024_Apr_09_1518,mian,2021.2.3,59.99401259756743,
8g,2,2,8.0,l,"[0.2, -0.2]",,,,,,,,,,,,,,,,0,19,19,19,,,,,,,,,,,,,,,,,,,,,l,1,1.121621999999661,,,,,,,,,,,,hxy,f,22,2024_Apr_09_1518,mian,2021.2.3,59.99401259756743,
9a,1,1,a,l,"[0.2, 0.2]",,,,,,,,,,,,,,,,0,20,20,20,,,,,,,,,,,,,,,,,,,,,l,1,0.8359314999997878,,,,,,,,,,,,hxy,f,22,2024_Apr_09_1518,mian,2021.2.3,59.99401259756743,
f7,1,2,f,l,"[-0.2, 0.2]",,,,,,,,,,,,,,,,0,21,21,21,,,,,,,,,,,,,,,,,,,,,l,1,1.1078151000001526,,,,,,,,,,,,hxy,f,22,2024_Apr_09_1518,mian,2021.2.3,59.99401259756743,
g9,2,1,9.0,a,"[-0.2, -0.2]",,,,,,,,,,,,,,,,0,22,22,22,,,,,,,,,,,,,,,,,,,,,a,1,0.9446564999998373,,,,,,,,,,,,hxy,f,22,2024_Apr_09_1518,mian,2021.2.3,59.99401259756743,
3h,2,2,3.0,a,"[0.2, -0.2]",,,,,,,,,,,,,,,,0,23,23,23,,,,,,,,,,,,,,,,,,,,,a,1,1.101104899999882,,,,,,,,,,,,hxy,f,22,2024_Apr_09_1518,mian,2021.2.3,59.99401259756743,
E6,1,1,E,a,"[0.2, 0.2]",,,,,,,,,,,,,,,,0,24,24,24,,,,,,,,,,,,,,,,,,,,,a,1,0.9968246999997064,,,,,,,,,,,,hxy,f,22,2024_Apr_09_1518,mian,2021.2.3,59.99401259756743,
F6,1,2,F,a,"[-0.2, 0.2]",,,,,,,,,,,,,,,,0,25,25,25,,,,,,,,,,,,,,,,,,,,,a,1,0.8191440999999031,,,,,,,,,,,,hxy,f,22,2024_Apr_09_1518,mian,2021.2.3,59.99401259756743,
3A,2,1,3.0,a,"[-0.2, -0.2]",,,,,,,,,,,,,,,,0,26,26,26,,,,,,,,,,,,,,,,,,,,,l,0,1.1271161999993637,,,,,,,,,,,,hxy,f,22,2024_Apr_09_1518,mian,2021.2.3,59.99401259756743,
8H,2,2,8.0,l,"[0.2, -0.2]",,,,,,,,,,,,,,,,0,27,27,27,,,,,,,,,,,,,,,,,,,,,l,1,1.060994400000709,,,,,,,,,,,,hxy,f,22,2024_Apr_09_1518,mian,2021.2.3,59.99401259756743,
5a,1,1,a,l,"[0.2, 0.2]",,,,,,,,,,,,,,,,0,28,28,28,,,,,,,,,,,,,,,,,,,,,l,1,1.0480479000007108,,,,,,,,,,,,hxy,f,22,2024_Apr_09_1518,mian,2021.2.3,59.99401259756743,
2h,1,2,h,l,"[-0.2, 0.2]",,,,,,,,,,,,,,,,0,29,29,29,,,,,,,,,,,,,,,,,,,,,l,1,0.5583878999996159,,,,,,,,,,,,hxy,f,22,2024_Apr_09_1518,mian,2021.2.3,59.99401259756743,
e5,2,1,5.0,a,"[-0.2, -0.2]",,,,,,,,,,,,,,,,0,30,30,30,,,,,,,,,,,,,,,,,,,,,a,1,0.8978869000002305,,,,,,,,,,,,hxy,f,22,2024_Apr_09_1518,mian,2021.2.3,59.99401259756743,
a3,2,2,3.0,a,"[0.2, -0.2]",,,,,,,,,,,,,,,,0,31,31,31,,,,,,,,,,,,,,,,,,,,,a,1,0.630332300000191,,,,,,,,,,,,hxy,f,22,2024_Apr_09_1518,mian,2021.2.3,59.99401259756743,
f3,1,1,f,l,"[0.2, 0.2]",,,,,,,,,,,,,,,,0,32,32,32,,,,,,,,,,,,,,,,,,,,,l,1,0.9011013999997886,,,,,,,,,,,,hxy,f,22,2024_Apr_09_1518,mian,2021.2.3,59.99401259756743,
2E,1,2,E,a,"[-0.2, 0.2]",,,,,,,,,,,,,,,,0,33,33,33,,,,,,,,,,,,,,,,,,,,,a,1,0.6488846000002013,,,,,,,,,,,,hxy,f,22,2024_Apr_09_1518,mian,2021.2.3,59.99401259756743,
2H,2,1,2.0,l,"[-0.2, -0.2]",,,,,,,,,,,,,,,,0,34,34,34,,,,,,,,,,,,,,,,,,,,,l,1,1.2106480000002193,,,,,,,,,,,,hxy,f,22,2024_Apr_09_1518,mian,2021.2.3,59.99401259756743,
H8,2,2,8.0,l,"[0.2, -0.2]",,,,,,,,,,,,,,,,0,35,35,35,,,,,,,,,,,,,,,,,,,,,l,1,0.6322050999997373,,,,,,,,,,,,hxy,f,22,2024_Apr_09_1518,mian,2021.2.3,59.99401259756743,
9g,1,1,g,l,"[0.2, 0.2]",,,,,,,,,,,,,,,,0,36,36,36,,,,,,,,,,,,,,,,,,,,,l,1,0.9436539999996967,,,,,,,,,,,,hxy,f,22,2024_Apr_09_1518,mian,2021.2.3,59.99401259756743,
5h,1,2,h,l,"[-0.2, 0.2]",,,,,,,,,,,,,,,,0,37,37,37,,,,,,,,,,,,,,,,,,,,,l,1,0.716144400000303,,,,,,,,,,,,hxy,f,22,2024_Apr_09_1518,mian,2021.2.3,59.99401259756743,
e4,2,1,4.0,l,"[-0.2, -0.2]",,,,,,,,,,,,,,,,0,38,38,38,,,,,,,,,,,,,,,,,,,,,l,1,2.9982388999997056,,,,,,,,,,,,hxy,f,22,2024_Apr_09_1518,mian,2021.2.3,59.99401259756743,
9h,2,2,9.0,a,"[0.2, -0.2]",,,,,,,,,,,,,,,,0,39,39,39,,,,,,,,,,,,,,,,,,,,,a,1,1.1317398000001049,,,,,,,,,,,,hxy,f,22,2024_Apr_09_1518,mian,2021.2.3,59.99401259756743,
G3,1,1,G,a,"[0.2, 0.2]",,,,,,,,,,,,,,,,0,40,40,40,,,,,,,,,,,,,,,,,,,,,a,1,0.8946796999998696,,,,,,,,,,,,hxy,f,22,2024_Apr_09_1518,mian,2021.2.3,59.99401259756743,
9A,1,2,A,a,"[-0.2, 0.2]",,,,,,,,,,,,,,,,0,41,41,41,,,,,,,,,,,,,,,,,,,,,a,1,1.0296179000006305,,,,,,,,,,,,hxy,f,22,2024_Apr_09_1518,mian,2021.2.3,59.99401259756743,
H5,2,1,5.0,a,"[-0.2, -0.2]",,,,,,,,,,,,,,,,0,42,42,42,,,,,,,,,,,,,,,,,,,,,a,1,1.130280600000333,,,,,,,,,,,,hxy,f,22,2024_Apr_09_1518,mian,2021.2.3,59.99401259756743,
4e,2,2,4.0,l,"[0.2, -0.2]",,,,,,,,,,,,,,,,0,43,43,43,,,,,,,,,,,,,,,,,,,,,l,1,0.7995275000002948,,,,,,,,,,,,hxy,f,22,2024_Apr_09_1518,mian,2021.2.3,59.99401259756743,
E2,1,1,E,a,"[0.2, 0.2]",,,,,,,,,,,,,,,,0,44,44,44,,,,,,,,,,,,,,,,,,,,,a,1,0.9326141999999891,,,,,,,,,,,,hxy,f,22,2024_Apr_09_1518,mian,2021.2.3,59.99401259756743,
A5,1,2,A,a,"[-0.2, 0.2]",,,,,,,,,,,,,,,,0,45,45,45,,,,,,,,,,,,,,,,,,,,,a,1,0.9104774999996152,,,,,,,,,,,,hxy,f,22,2024_Apr_09_1518,mian,2021.2.3,59.99401259756743,
2A,2,1,2.0,l,"[-0.2, -0.2]",,,,,,,,,,,,,,,,0,46,46,46,,,,,,,,,,,,,,,,,,,,,l,1,1.1214983999998367,,,,,,,,,,,,hxy,f,22,2024_Apr_09_1518,mian,2021.2.3,59.99401259756743,
6G,2,2,6.0,l,"[0.2, -0.2]",,,,,,,,,,,,,,,,0,47,47,47,,,,,,,,,,,,,,,,,,,,,l,1,0.7364735999999539,,,,,,,,,,,,hxy,f,22,2024_Apr_09_1518,mian,2021.2.3,59.99401259756743,
H3,1,1,H,a,"[0.2, 0.2]",,,,,,,,,,,,,,,,0,48,48,48,,,,,,,,,,,,,,,,,,,,,a,1,1.0420577000004414,,,,,,,,,,,,hxy,f,22,2024_Apr_09_1518,mian,2021.2.3,59.99401259756743,
H2,1,2,H,a,"[-0.2, 0.2]",,,,,,,,,,,,,,,,0,49,49,49,,,,,,,,,,,,,,,,,,,,,a,1,0.5263727999999901,,,,,,,,,,,,hxy,f,22,2024_Apr_09_1518,mian,2021.2.3,59.99401259756743,
e9,2,1,9.0,a,"[-0.2, -0.2]",,,,,,,,,,,,,,,,0,50,50,50,,,,,,,,,,,,,,,,,,,,,a,1,0.9375165000001289,,,,,,,,,,,,hxy,f,22,2024_Apr_09_1518,mian,2021.2.3,59.99401259756743,
2G,2,2,2.0,l,"[0.2, -0.2]",,,,,,,,,,,,,,,,0,51,51,51,,,,,,,,,,,,,,,,,,,,,l,1,1.2982222999999067,,,,,,,,,,,,hxy,f,22,2024_Apr_09_1518,mian,2021.2.3,59.99401259756743,
4f,1,1,f,l,"[0.2, 0.2]",,,,,,,,,,,,,,,,0,52,52,52,,,,,,,,,,,,,,,,,,,,,l,1,1.5089975000000777,,,,,,,,,,,,hxy,f,22,2024_Apr_09_1518,mian,2021.2.3,59.99401259756743,
H6,1,2,H,a,"[-0.2, 0.2]",,,,,,,,,,,,,,,,0,53,53,53,,,,,,,,,,,,,,,,,,,,,a,1,0.7486668999999893,,,,,,,,,,,,hxy,f,22,2024_Apr_09_1518,mian,2021.2.3,59.99401259756743,
A4,2,1,4.0,l,"[-0.2, -0.2]",,,,,,,,,,,,,,,,0,54,54,54,,,,,,,,,,,,,,,,,,,,,l,1,0.9665098000004946,,,,,,,,,,,,hxy,f,22,2024_Apr_09_1518,mian,2021.2.3,59.99401259756743,
3F,2,2,3.0,a,"[0.2, -0.2]",,,,,,,,,,,,,,,,0,55,55,55,,,,,,,,,,,,,,,,,,,,,a,1,0.8592592000004515,,,,,,,,,,,,hxy,f,22,2024_Apr_09_1518,mian,2021.2.3,59.99401259756743,
7e,1,1,e,l,"[0.2, 0.2]",,,,,,,,,,,,,,,,0,56,56,56,,,,,,,,,,,,,,,,,,,,,l,1,1.525607399999899,,,,,,,,,,,,hxy,f,22,2024_Apr_09_1518,mian,2021.2.3,59.99401259756743,
F9,1,2,F,a,"[-0.2, 0.2]",,,,,,,,,,,,,,,,0,57,57,57,,,,,,,,,,,,,,,,,,,,,a,1,0.8290665000004083,,,,,,,,,,,,hxy,f,22,2024_Apr_09_1518,mian,2021.2.3,59.99401259756743,
e2,2,1,2.0,l,"[-0.2, -0.2]",,,,,,,,,,,,,,,,0,58,58,58,,,,,,,,,,,,,,,,,,,,,l,1,0.6620119999997769,,,,,,,,,,,,hxy,f,22,2024_Apr_09_1518,mian,2021.2.3,59.99401259756743,
5F,2,2,5.0,a,"[0.2, -0.2]",,,,,,,,,,,,,,,,0,59,59,59,,,,,,,,,,,,,,,,,,,,,a,1,0.5824469999997746,,,,,,,,,,,,hxy,f,22,2024_Apr_09_1518,mian,2021.2.3,59.99401259756743,
f6,1,1,f,l,"[0.2, 0.2]",,,,,,,,,,,,,,,,0,60,60,60,,,,,,,,,,,,,,,,,,,,,l,1,1.0037340999997468,,,,,,,,,,,,hxy,f,22,2024_Apr_09_1518,mian,2021.2.3,59.99401259756743,
7G,1,2,G,a,"[-0.2, 0.2]",,,,,,,,,,,,,,,,0,61,61,61,,,,,,,,,,,,,,,,,,,,,a,1,0.6076546000003873,,,,,,,,,,,,hxy,f,22,2024_Apr_09_1518,mian,2021.2.3,59.99401259756743,
e6,2,1,6.0,l,"[-0.2, -0.2]",,,,,,,,,,,,,,,,0,62,62,62,,,,,,,,,,,,,,,,,,,,,l,1,0.6241197999997894,,,,,,,,,,,,hxy,f,22,2024_Apr_09_1518,mian,2021.2.3,59.99401259756743,
3G,2,2,3.0,a,"[0.2, -0.2]",,,,,,,,,,,,,,,,0,63,63,63,,,,,,,,,,,,,,,,,,,,,a,1,0.7005422000002,,,,,,,,,,,,hxy,f,22,2024_Apr_09_1518,mian,2021.2.3,59.99401259756743,
5E,1,1,E,a,"[0.2, 0.2]",,,,,,,,,,,,,,,,0,64,64,64,,,,,,,,,,,,,,,,,,,,,a,1,1.4996692999993684,,,,,,,,,,,,hxy,f,22,2024_Apr_09_1518,mian,2021.2.3,59.99401259756743,
A6,1,2,A,a,"[-0.2, 0.2]",,,,,,,,,,,,,,,,0,65,65,65,,,,,,,,,,,,,,,,,,,,,a,1,0.7733746000003521,,,,,,,,,,,,hxy,f,22,2024_Apr_09_1518,mian,2021.2.3,59.99401259756743,
E3,2,1,3.0,a,"[-0.2, -0.2]",,,,,,,,,,,,,,,,0,66,66,66,,,,,,,,,,,,,,,,,,,,,a,1,1.0960853000005955,,,,,,,,,,,,hxy,f,22,2024_Apr_09_1518,mian,2021.2.3,59.99401259756743,
2f,2,2,2.0,l,"[0.2, -0.2]",,,,,,,,,,,,,,,,0,67,67,67,,,,,,,,,,,,,,,,,,,,,l,1,1.1984495999995488,,,,,,,,,,,,hxy,f,22,2024_Apr_09_1518,mian,2021.2.3,59.99401259756743,
g3,1,1,g,l,"[0.2, 0.2]",,,,,,,,,,,,,,,,0,68,68,68,,,,,,,,,,,,,,,,,,,,,l,1,0.9120013000001563,,,,,,,,,,,,hxy,f,22,2024_Apr_09_1518,mian,2021.2.3,59.99401259756743,
E8,1,2,E,a,"[-0.2, 0.2]",,,,,,,,,,,,,,,,0,69,69,69,,,,,,,,,,,,,,,,,,,,,a,1,0.8757388999993054,,,,,,,,,,,,hxy,f,22,2024_Apr_09_1518,mian,2021.2.3,59.99401259756743,
6g,2,1,6.0,l,"[-0.2, -0.2]",,,,,,,,,,,,,,,,0,70,70,70,,,,,,,,,,,,,,,,,,,,,l,1,1.1973766999999498,,,,,,,,,,,,hxy,f,22,2024_Apr_09_1518,mian,2021.2.3,59.99401259756743,
5H,2,2,5.0,a,"[0.2, -0.2]",,,,,,,,,,,,,,,,0,71,71,71,,,,,,,,,,,,,,,,,,,,,a,1,0.5177604000000429,,,,,,,,,,,,hxy,f,22,2024_Apr_09_1518,mian,2021.2.3,59.99401259756743,
4A,1,1,A,a,"[0.2, 0.2]",,,,,,,,,,,,,,,,0,72,72,72,,,,,,,,,,,,,,,,,,,,,a,1,1.1993412000001626,,,,,,,,,,,,hxy,f,22,2024_Apr_09_1518,mian,2021.2.3,59.99401259756743,
7F,1,2,F,a,"[-0.2, 0.2]",,,,,,,,,,,,,,,,0,73,73,73,,,,,,,,,,,,,,,,,,,,,a,1,0.8773562000005768,,,,,,,,,,,,hxy,f,22,2024_Apr_09_1518,mian,2021.2.3,59.99401259756743,
6H,2,1,6.0,l,"[-0.2, -0.2]",,,,,,,,,,,,,,,,0,74,74,74,,,,,,,,,,,,,,,,,,,,,l,1,0.7129359999998996,,,,,,,,,,,,hxy,f,22,2024_Apr_09_1518,mian,2021.2.3,59.99401259756743,
3a,2,2,3.0,a,"[0.2, -0.2]",,,,,,,,,,,,,,,,0,75,75,75,,,,,,,,,,,,,,,,,,,,,a,1,0.45060169999942445,,,,,,,,,,,,hxy,f,22,2024_Apr_09_1518,mian,2021.2.3,59.99401259756743,
9F,1,1,F,a,"[0.2, 0.2]",,,,,,,,,,,,,,,,0,76,76,76,,,,,,,,,,,,,,,,,,,,,a,1,1.2254816000004212,,,,,,,,,,,,hxy,f,22,2024_Apr_09_1518,mian,2021.2.3,59.99401259756743,
G7,1,2,G,a,"[-0.2, 0.2]",,,,,,,,,,,,,,,,0,77,77,77,,,,,,,,,,,,,,,,,,,,,a,1,0.899562400000832,,,,,,,,,,,,hxy,f,22,2024_Apr_09_1518,mian,2021.2.3,59.99401259756743,
a6,2,1,6.0,l,"[-0.2, -0.2]",,,,,,,,,,,,,,,,0,78,78,78,,,,,,,,,,,,,,,,,,,,,l,1,0.8179918999994698,,,,,,,,,,,,hxy,f,22,2024_Apr_09_1518,mian,2021.2.3,59.99401259756743,
4h,2,2,4.0,l,"[0.2, -0.2]",,,,,,,,,,,,,,,,0,79,79,79,,,,,,,,,,,,,,,,,,,,,l,1,0.562872100000277,,,,,,,,,,,,hxy,f,22,2024_Apr_09_1518,mian,2021.2.3,59.99401259756743,
6A,1,1,A,a,"[0.2, 0.2]",,,,,,,,,,,,,,,,,,,,0,0,0,0,,,,,,,,,,,,,,,,,a,1,1.0937767000004897,,,,,,,,,,,,hxy,f,22,2024_Apr_09_1518,mian,2021.2.3,59.99401259756743,
4H,1,2,H,a,"[-0.2, 0.2]",,,,,,,,,,,,,,,,,,,,0,1,1,1,,,,,,,,,,,,,,,,,a,1,1.0764980000003561,,,,,,,,,,,,hxy,f,22,2024_Apr_09_1518,mian,2021.2.3,59.99401259756743,
3H,2,1,3.0,a,"[-0.2, -0.2]",,,,,,,,,,,,,,,,,,,,0,2,2,2,,,,,,,,,,,,,,,,,a,1,0.8224215000000186,,,,,,,,,,,,hxy,f,22,2024_Apr_09_1518,mian,2021.2.3,59.99401259756743,
a9,2,2,9.0,a,"[0.2, -0.2]",,,,,,,,,,,,,,,,,,,,0,3,3,3,,,,,,,,,,,,,,,,,a,1,0.948225299999649,,,,,,,,,,,,hxy,f,22,2024_Apr_09_1518,mian,2021.2.3,59.99401259756743,
E7,1,1,E,a,"[0.2, 0.2]",,,,,,,,,,,,,,,,,,,,0,4,4,4,,,,,,,,,,,,,,,,,a,1,0.9891810999997688,,,,,,,,,,,,hxy,f,22,2024_Apr_09_1518,mian,2021.2.3,59.99401259756743,
6h,1,2,h,l,"[-0.2, 0.2]",,,,,,,,,,,,,,,,,,,,0,5,5,5,,,,,,,,,,,,,,,,,l,1,0.9328850000001694,,,,,,,,,,,,hxy,f,22,2024_Apr_09_1518,mian,2021.2.3,59.99401259756743,
8A,2,1,8.0,l,"[-0.2, -0.2]",,,,,,,,,,,,,,,,,,,,0,6,6,6,,,,,,,,,,,,,,,,,l,1,1.3512155999997049,,,,,,,,,,,,hxy,f,22,2024_Apr_09_1518,mian,2021.2.3,59.99401259756743,
f5,2,2,5.0,a,"[0.2, -0.2]",,,,,,,,,,,,,,,,,,,,0,7,7,7,,,,,,,,,,,,,,,,,a,1,0.6577928000006068,,,,,,,,,,,,hxy,f,22,2024_Apr_09_1518,mian,2021.2.3,59.99401259756743,
2a,1,1,a,l,"[0.2, 0.2]",,,,,,,,,,,,,,,,,,,,0,8,8,8,,,,,,,,,,,,,,,,,l,1,0.701256000000285,,,,,,,,,,,,hxy,f,22,2024_Apr_09_1518,mian,2021.2.3,59.99401259756743,
F7,1,2,F,a,"[-0.2, 0.2]",,,,,,,,,,,,,,,,,,,,0,9,9,9,,,,,,,,,,,,,,,,,a,1,0.749075300000186,,,,,,,,,,,,hxy,f,22,2024_Apr_09_1518,mian,2021.2.3,59.99401259756743,
h2,2,1,2.0,l,"[-0.2, -0.2]",,,,,,,,,,,,,,,,,,,,0,10,10,10,,,,,,,,,,,,,,,,,l,1,1.3706558999992922,,,,,,,,,,,,hxy,f,22,2024_Apr_09_1518,mian,2021.2.3,59.99401259756743,
F5,2,2,5.0,a,"[0.2, -0.2]",,,,,,,,,,,,,,,,,,,,0,11,11,11,,,,,,,,,,,,,,,,,a,1,0.4919259999996939,,,,,,,,,,,,hxy,f,22,2024_Apr_09_1518,mian,2021.2.3,59.99401259756743,
A9,1,1,A,a,"[0.2, 0.2]",,,,,,,,,,,,,,,,,,,,0,12,12,12,,,,,,,,,,,,,,,,,a,1,0.6453092000001561,,,,,,,,,,,,hxy,f,22,2024_Apr_09_1518,mian,2021.2.3,59.99401259756743,
3e,1,2,e,l,"[-0.2, 0.2]",,,,,,,,,,,,,,,,,,,,0,13,13,13,,,,,,,,,,,,,,,,,l,1,0.9256806000003053,,,,,,,,,,,,hxy,f,22,2024_Apr_09_1518,mian,2021.2.3,59.99401259756743,
f8,2,1,8.0,l,"[-0.2, -0.2]",,,,,,,,,,,,,,,,,,,,0,14,14,14,,,,,,,,,,,,,,,,,l,1,0.8604612999997698,,,,,,,,,,,,hxy,f,22,2024_Apr_09_1518,mian,2021.2.3,59.99401259756743,
G2,2,2,2.0,l,"[0.2, -0.2]",,,,,,,,,,,,,,,,,,,,0,15,15,15,,,,,,,,,,,,,,,,,l,1,0.5122312999992573,,,,,,,,,,,,hxy,f,22,2024_Apr_09_1518,mian,2021.2.3,59.99401259756743,
F2,1,1,F,a,"[0.2, 0.2]",,,,,,,,,,,,,,,,,,,,0,16,16,16,,,,,,,,,,,,,,,,,a,1,0.7338018000000375,,,,,,,,,,,,hxy,f,22,2024_Apr_09_1518,mian,2021.2.3,59.99401259756743,
5e,1,2,e,l,"[-0.2, 0.2]",,,,,,,,,,,,,,,,,,,,0,17,17,17,,,,,,,,,,,,,,,,,a,0,0.7508254000003944,,,,,,,,,,,,hxy,f,22,2024_Apr_09_1518,mian,2021.2.3,59.99401259756743,
A3,2,1,3.0,a,"[-0.2, -0.2]",,,,,,,,,,,,,,,,,,,,0,18,18,18,,,,,,,,,,,,,,,,,a,1,1.1084291000006488,,,,,,,,,,,,hxy,f,22,2024_Apr_09_1518,mian,2021.2.3,59.99401259756743,
4g,2,2,4.0,l,"[0.2, -0.2]",,,,,,,,,,,,,,,,,,,,0,19,19,19,,,,,,,,,,,,,,,,,l,1,0.682739699999729,,,,,,,,,,,,hxy,f,22,2024_Apr_09_1518,mian,2021.2.3,59.99401259756743,
h7,1,1,h,l,"[0.2, 0.2]",,,,,,,,,,,,,,,,,,,,0,20,20,20,,,,,,,,,,,,,,,,,l,1,1.0538889999997991,,,,,,,,,,,,hxy,f,22,2024_Apr_09_1518,mian,2021.2.3,59.99401259756743,
3g,1,2,g,l,"[-0.2, 0.2]",,,,,,,,,,,,,,,,,,,,0,21,21,21,,,,,,,,,,,,,,,,,l,1,0.5208983000002263,,,,,,,,,,,,hxy,f,22,2024_Apr_09_1518,mian,2021.2.3,59.99401259756743,
8a,2,1,8.0,l,"[-0.2, -0.2]",,,,,,,,,,,,,,,,,,,,0,22,22,22,,,,,,,,,,,,,,,,,l,1,0.6433295999995607,,,,,,,,,,,,hxy,f,22,2024_Apr_09_1518,mian,2021.2.3,59.99401259756743,
4E,2,2,4.0,l,"[0.2, -0.2]",,,,,,,,,,,,,,,,,,,,0,23,23,23,,,,,,,,,,,,,,,,,l,1,0.4626053000001775,,,,,,,,,,,,hxy,f,22,2024_Apr_09_1518,mian,2021.2.3,59.99401259756743,
E5,1,1,E,a,"[0.2, 0.2]",,,,,,,,,,,,,,,,,,,,0,24,24,24,,,,,,,,,,,,,,,,,a,1,0.7799620999994659,,,,,,,,,,,,hxy,f,22,2024_Apr_09_1518,mian,2021.2.3,59.99401259756743,
g6,1,2,g,l,"[-0.2, 0.2]",,,,,,,,,,,,,,,,,,,,0,25,25,25,,,,,,,,,,,,,,,,,l,1,0.6755948999998509,,,,,,,,,,,,hxy,f,22,2024_Apr_09_1518,mian,2021.2.3,59.99401259756743,
2e,2,1,2.0,l,"[-0.2, -0.2]",,,,,,,,,,,,,,,,,,,,0,26,26,26,,,,,,,,,,,,,,,,,l,1,0.728625199999442,,,,,,,,,,,,hxy,f,22,2024_Apr_09_1518,mian,2021.2.3,59.99401259756743,
h8,2,2,8.0,l,"[0.2, -0.2]",,,,,,,,,,,,,,,,,,,,0,27,27,27,,,,,,,,,,,,,,,,,l,1,0.5083823000004486,,,,,,,,,,,,hxy,f,22,2024_Apr_09_1518,mian,2021.2.3,59.99401259756743,
G6,1,1,G,a,"[0.2, 0.2]",,,,,,,,,,,,,,,,,,,,0,28,28,28,,,,,,,,,,,,,,,,,a,1,0.862238000000616,,,,,,,,,,,,hxy,f,22,2024_Apr_09_1518,mian,2021.2.3,59.99401259756743,
a4,1,2,a,l,"[-0.2, 0.2]",,,,,,,,,,,,,,,,,,,,0,29,29,29,,,,,,,,,,,,,,,,,l,1,0.6503229999998439,,,,,,,,,,,,hxy,f,22,2024_Apr_09_1518,mian,2021.2.3,59.99401259756743,
9H,2,1,9.0,a,"[-0.2, -0.2]",,,,,,,,,,,,,,,,,,,,0,30,30,30,,,,,,,,,,,,,,,,,a,1,1.1091858999998294,,,,,,,,,,,,hxy,f,22,2024_Apr_09_1518,mian,2021.2.3,59.99401259756743,
7H,2,2,7.0,a,"[0.2, -0.2]",,,,,,,,,,,,,,,,,,,,0,31,31,31,,,,,,,,,,,,,,,,,a,1,0.5268372999998974,,,,,,,,,,,,hxy,f,22,2024_Apr_09_1518,mian,2021.2.3,59.99401259756743,
9f,1,1,f,l,"[0.2, 0.2]",,,,,,,,,,,,,,,,,,,,0,32,32,32,,,,,,,,,,,,,,,,,l,1,1.0768471999999747,,,,,,,,,,,,hxy,f,22,2024_Apr_09_1518,mian,2021.2.3,59.99401259756743,
8E,1,2,E,a,"[-0.2, 0.2]",,,,,,,,,,,,,,,,,,,,0,33,33,33,,,,,,,,,,,,,,,,,a,1,0.7941897999999128,,,,,,,,,,,,hxy,f,22,2024_Apr_09_1518,mian,2021.2.3,59.99401259756743,
A2,2,1,2.0,l,"[-0.2, -0.2]",,,,,,,,,,,,,,,,,,,,0,34,34,34,,,,,,,,,,,,,,,,,l,1,0.8751259000000573,,,,,,,,,,,,hxy,f,22,2024_Apr_09_1518,mian,2021.2.3,59.99401259756743,
H7,2,2,7.0,a,"[0.2, -0.2]",,,,,,,,,,,,,,,,,,,,0,35,35,35,,,,,,,,,,,,,,,,,a,1,0.8480339999996431,,,,,,,,,,,,hxy,f,22,2024_Apr_09_1518,mian,2021.2.3,59.99401259756743,
h9,1,1,h,l,"[0.2, 0.2]",,,,,,,,,,,,,,,,,,,,0,36,36,36,,,,,,,,,,,,,,,,,l,1,0.9201380999993489,,,,,,,,,,,,hxy,f,22,2024_Apr_09_1518,mian,2021.2.3,59.99401259756743,
8G,1,2,G,a,"[-0.2, 0.2]",,,,,,,,,,,,,,,,,,,,0,37,37,37,,,,,,,,,,,,,,,,,a,1,0.6974997999996049,,,,,,,,,,,,hxy,f,22,2024_Apr_09_1518,mian,2021.2.3,59.99401259756743,
H4,2,1,4.0,l,"[-0.2, -0.2]",,,,,,,,,,,,,,,,,,,,0,38,38,38,,,,,,,,,,,,,,,,,l,1,1.2213572000000568,,,,,,,,,,,,hxy,f,22,2024_Apr_09_1518,mian,2021.2.3,59.99401259756743,
A8,2,2,8.0,l,"[0.2, -0.2]",,,,,,,,,,,,,,,,,,,,0,39,39,39,,,,,,,,,,,,,,,,,l,1,0.672406100000444,,,,,,,,,,,,hxy,f,22,2024_Apr_09_1518,mian,2021.2.3,59.99401259756743,
g7,1,1,g,l,"[0.2, 0.2]",,,,,,,,,,,,,,,,,,,,0,40,40,40,,,,,,,,,,,,,,,,,l,1,1.499371799999608,,,,,,,,,,,,hxy,f,22,2024_Apr_09_1518,mian,2021.2.3,59.99401259756743,
H9,1,2,H,a,"[-0.2, 0.2]",,,,,,,,,,,,,,,,,,,,0,41,41,41,,,,,,,,,,,,,,,,,a,1,0.8984486999997898,,,,,,,,,,,,hxy,f,22,2024_Apr_09_1518,mian,2021.2.3,59.99401259756743,
9E,2,1,9.0,a,"[-0.2, -0.2]",,,,,,,,,,,,,,,,,,,,0,42,42,42,,,,,,,,,,,,,,,,,l,0,0.7747081999996226,,,,,,,,,,,,hxy,f,22,2024_Apr_09_1518,mian,2021.2.3,59.99401259756743,
a5,2,2,5.0,a,"[0.2, -0.2]",,,,,,,,,,,,,,,,,,,,0,43,43,43,,,,,,,,,,,,,,,,,a,1,1.0043494999999893,,,,,,,,,,,,hxy,f,22,2024_Apr_09_1518,mian,2021.2.3,59.99401259756743,
3E,1,1,E,a,"[0.2, 0.2]",,,,,,,,,,,,,,,,,,,,0,44,44,44,,,,,,,,,,,,,,,,,a,1,2.47451749999982,,,,,,,,,,,,hxy,f,22,2024_Apr_09_1518,mian,2021.2.3,59.99401259756743,
6f,1,2,f,l,"[-0.2, 0.2]",,,,,,,,,,,,,,,,,,,,0,45,45,45,,,,,,,,,,,,,,,,,l,1,1.7901565000001938,,,,,,,,,,,,hxy,f,22,2024_Apr_09_1518,mian,2021.2.3,59.99401259756743,
g8,2,1,8.0,l,"[-0.2, -0.2]",,,,,,,,,,,,,,,,,,,,0,46,46,46,,,,,,,,,,,,,,,,,l,1,0.9127018999997745,,,,,,,,,,,,hxy,f,22,2024_Apr_09_1518,mian,2021.2.3,59.99401259756743,
4F,2,2,4.0,l,"[0.2, -0.2]",,,,,,,,,,,,,,,,,,,,0,47,47,47,,,,,,,,,,,,,,,,,l,1,0.5279420000006212,,,,,,,,,,,,hxy,f,22,2024_Apr_09_1518,mian,2021.2.3,59.99401259756743,
4a,1,1,a,l,"[0.2, 0.2]",,,,,,,,,,,,,,,,,,,,0,48,48,48,,,,,,,,,,,,,,,,,l,1,0.80563279999933,,,,,,,,,,,,hxy,f,22,2024_Apr_09_1518,mian,2021.2.3,59.99401259756743,
e3,1,2,e,l,"[-0.2, 0.2]",,,,,,,,,,,,,,,,,,,,0,49,49,49,,,,,,,,,,,,,,,,,l,1,0.4671742999998969,,,,,,,,,,,,hxy,f,22,2024_Apr_09_1518,mian,2021.2.3,59.99401259756743,
5g,2,1,5.0,a,"[-0.2, -0.2]",,,,,,,,,,,,,,,,,,,,0,50,50,50,,,,,,,,,,,,,,,,,a,1,0.4650836000000709,,,,,,,,,,,,hxy,f,22,2024_Apr_09_1518,mian,2021.2.3,59.99401259756743,
f4,2,2,4.0,l,"[0.2, -0.2]",,,,,,,,,,,,,,,,,,,,0,51,51,51,,,,,,,,,,,,,,,,,l,1,0.5100405000002866,,,,,,,,,,,,hxy,f,22,2024_Apr_09_1518,mian,2021.2.3,59.99401259756743,
6E,1,1,E,a,"[0.2, 0.2]",,,,,,,,,,,,,,,,,,,,0,52,52,52,,,,,,,,,,,,,,,,,a,1,1.1013982000004034,,,,,,,,,,,,hxy,f,22,2024_Apr_09_1518,mian,2021.2.3,59.99401259756743,
7A,1,2,A,a,"[-0.2, 0.2]",,,,,,,,,,,,,,,,,,,,0,53,53,53,,,,,,,,,,,,,,,,,a,1,0.45931370000016614,,,,,,,,,,,,hxy,f,22,2024_Apr_09_1518,mian,2021.2.3,59.99401259756743,
F4,2,1,4.0,l,"[-0.2, -0.2]",,,,,,,,,,,,,,,,,,,,0,54,54,54,,,,,,,,,,,,,,,,,a,0,0.5364075999996203,,,,,,,,,,,,hxy,f,22,2024_Apr_09_1518,mian,2021.2.3,59.99401259756743,
2g,2,2,2.0,l,"[0.2, -0.2]",,,,,,,,,,,,,,,,,,,,0,55,55,55,,,,,,,,,,,,,,,,,l,1,1.1813744000000952,,,,,,,,,,,,hxy,f,22,2024_Apr_09_1518,mian,2021.2.3,59.99401259756743,
7E,1,1,E,a,"[0.2, 0.2]",,,,,,,,,,,,,,,,,,,,0,56,56,56,,,,,,,,,,,,,,,,,a,1,1.9451576000001296,,,,,,,,,,,,hxy,f,22,2024_Apr_09_1518,mian,2021.2.3,59.99401259756743,
G4,1,2,G,a,"[-0.2, 0.2]",,,,,,,,,,,,,,,,,,,,0,57,57,57,,,,,,,,,,,,,,,,,a,1,0.680375300000378,,,,,,,,,,,,hxy,f,22,2024_Apr_09_1518,mian,2021.2.3,59.99401259756743,
2F,2,1,2.0,l,"[-0.2, -0.2]",,,,,,,,,,,,,,,,,,,,0,58,58,58,,,,,,,,,,,,,,,,,l,1,0.5031755999998495,,,,,,,,,,,,hxy,f,22,2024_Apr_09_1518,mian,2021.2.3,59.99401259756743,
E9,2,2,9.0,a,"[0.2, -0.2]",,,,,,,,,,,,,,,,,,,,0,59,59,59,,,,,,,,,,,,,,,,,a,1,0.5496204000000944,,,,,,,,,,,,hxy,f,22,2024_Apr_09_1518,mian,2021.2.3,59.99401259756743,
5f,1,1,f,l,"[0.2, 0.2]",,,,,,,,,,,,,,,,,,,,0,60,60,60,,,,,,,,,,,,,,,,,l,1,0.8786493000006885,,,,,,,,,,,,hxy,f,22,2024_Apr_09_1518,mian,2021.2.3,59.99401259756743,
e7,1,2,e,l,"[-0.2, 0.2]",,,,,,,,,,,,,,,,,,,,0,61,61,61,,,,,,,,,,,,,,,,,l,1,0.7485053000000335,,,,,,,,,,,,hxy,f,22,2024_Apr_09_1518,mian,2021.2.3,59.99401259756743,
f2,2,1,2.0,l,"[-0.2, -0.2]",,,,,,,,,,,,,,,,,,,,0,62,62,62,,,,,,,,,,,,,,,,,l,1,0.507954100000461,,,,,,,,,,,,hxy,f,22,2024_Apr_09_1518,mian,2021.2.3,59.99401259756743,
G9,2,2,9.0,a,"[0.2, -0.2]",,,,,,,,,,,,,,,,,,,,0,63,63,63,,,,,,,,,,,,,,,,,a,1,0.6304023000002417,,,,,,,,,,,,hxy,f,22,2024_Apr_09_1518,mian,2021.2.3,59.99401259756743,
7g,1,1,g,l,"[0.2, 0.2]",,,,,,,,,,,,,,,,,,,,0,64,64,64,,,,,,,,,,,,,,,,,l,1,0.8356343000004927,,,,,,,,,,,,hxy,f,22,2024_Apr_09_1518,mian,2021.2.3,59.99401259756743,
F8,1,2,F,a,"[-0.2, 0.2]",,,,,,,,,,,,,,,,,,,,0,65,65,65,,,,,,,,,,,,,,,,,a,1,0.5573469999999361,,,,,,,,,,,,hxy,f,22,2024_Apr_09_1518,mian,2021.2.3,59.99401259756743,
A7,2,1,7.0,a,"[-0.2, -0.2]",,,,,,,,,,,,,,,,,,,,0,66,66,66,,,,,,,,,,,,,,,,,a,1,0.7856738000000405,,,,,,,,,,,,hxy,f,22,2024_Apr_09_1518,mian,2021.2.3,59.99401259756743,
4G,2,2,4.0,l,"[0.2, -0.2]",,,,,,,,,,,,,,,,,,,,0,67,67,67,,,,,,,,,,,,,,,,,l,1,0.9800101999999242,,,,,,,,,,,,hxy,f,22,2024_Apr_09_1518,mian,2021.2.3,59.99401259756743,
g2,1,1,g,l,"[0.2, 0.2]",,,,,,,,,,,,,,,,,,,,0,68,68,68,,,,,,,,,,,,,,,,,l,1,0.9473918999992748,,,,,,,,,,,,hxy,f,22,2024_Apr_09_1518,mian,2021.2.3,59.99401259756743,
g4,1,2,g,l,"[-0.2, 0.2]",,,,,,,,,,,,,,,,,,,,0,69,69,69,,,,,,,,,,,,,,,,,l,1,0.6526296000001821,,,,,,,,,,,,hxy,f,22,2024_Apr_09_1518,mian,2021.2.3,59.99401259756743,
7a,2,1,7.0,a,"[-0.2, -0.2]",,,,,,,,,,,,,,,,,,,,0,70,70,70,,,,,,,,,,,,,,,,,a,1,0.6182951999999204,,,,,,,,,,,,hxy,f,22,2024_Apr_09_1518,mian,2021.2.3,59.99401259756743,
8e,2,2,8.0,l,"[0.2, -0.2]",,,,,,,,,,,,,,,,,,,,0,71,71,71,,,,,,,,,,,,,,,,,l,1,0.7195499999997992,,,,,,,,,,,,hxy,f,22,2024_Apr_09_1518,mian,2021.2.3,59.99401259756743,
h4,1,1,h,l,"[0.2, 0.2]",,,,,,,,,,,,,,,,,,,,0,72,72,72,,,,,,,,,,,,,,,,,l,1,0.8901937000000544,,,,,,,,,,,,hxy,f,22,2024_Apr_09_1518,mian,2021.2.3,59.99401259756743,
G8,1,2,G,a,"[-0.2, 0.2]",,,,,,,,,,,,,,,,,,,,0,73,73,73,,,,,,,,,,,,,,,,,a,1,0.5773346999994828,,,,,,,,,,,,hxy,f,22,2024_Apr_09_1518,mian,2021.2.3,59.99401259756743,
6F,2,1,6.0,l,"[-0.2, -0.2]",,,,,,,,,,,,,,,,,,,,0,74,74,74,,,,,,,,,,,,,,,,,l,1,0.728740900000048,,,,,,,,,,,,hxy,f,22,2024_Apr_09_1518,mian,2021.2.3,59.99401259756743,
g5,2,2,5.0,a,"[0.2, -0.2]",,,,,,,,,,,,,,,,,,,,0,75,75,75,,,,,,,,,,,,,,,,,a,1,0.5724145000003773,,,,,,,,,,,,hxy,f,22,2024_Apr_09_1518,mian,2021.2.3,59.99401259756743,
G5,1,1,G,a,"[0.2, 0.2]",,,,,,,,,,,,,,,,,,,,0,76,76,76,,,,,,,,,,,,,,,,,a,1,0.8965625999999247,,,,,,,,,,,,hxy,f,22,2024_Apr_09_1518,mian,2021.2.3,59.99401259756743,
h5,1,2,h,l,"[-0.2, 0.2]",,,,,,,,,,,,,,,,,,,,0,77,77,77,,,,,,,,,,,,,,,,,l,1,0.7729331999998976,,,,,,,,,,,,hxy,f,22,2024_Apr_09_1518,mian,2021.2.3,59.99401259756743,
9G,2,1,9.0,a,"[-0.2, -0.2]",,,,,,,,,,,,,,,,,,,,0,78,78,78,,,,,,,,,,,,,,,,,a,1,1.3320218000008026,,,,,,,,,,,,hxy,f,22,2024_Apr_09_1518,mian,2021.2.3,59.99401259756743,
F3,2,2,3.0,a,"[0.2, -0.2]",,,,,,,,,,,,,,,,,,,,0,79,79,79,,,,,,,,,,,,,,,,,a,1,0.6711181000000579,,,,,,,,,,,,hxy,f,22,2024_Apr_09_1518,mian,2021.2.3,59.99401259756743,
,,,,,,1,0,pic/flanker6.png,pic/flanker4.png,s,l,,,,,,,,,,,,,,,,,,0,0,0,0,0,0,0,5,,,,,,,,,,,,466.3341823999999,None,465.14465029999974,466.3509014000001,s,1,0.9854307000005065,黑暗,l,1,1.0262146999994002,hxy,f,22,2024_Apr_09_1518,mian,2021.2.3,59.99401259756743,
,,,,,,1,1,pic/flanker5.png,pic/flanker3.png,a,k,,,,,,,,,,,,,,,,,,0,0,0,0,0,1,1,4,,,,,,,,,,,,470.4509753000002,None,469.2676664999999,470.46768989999964,a,1,0.5484950000000026,诚恳,k,1,0.7526483000001463,hxy,f,22,2024_Apr_09_1518,mian,2021.2.3,59.99401259756743,
,,,,,,0,0,pic/flanker6.png,pic/flanker2.png,a,l,,,,,,,,,,,,,,,,,,0,0,0,0,0,2,2,1,,,,,,,,,,,,473.7340121999996,None,472.55077319999964,473.7506562999997,a,1,0.3489739999995436,忧虑,l,1,0.67608139999993,hxy,f,22,2024_Apr_09_1518,mian,2021.2.3,59.99401259756743,
,,,,,,0,1,pic/flanker6.png,pic/flanker2.png,a,k,,,,,,,,,,,,,,,,,,0,0,0,0,0,3,3,2,,,,,,,,,,,,476.66769469999963,None,475.48423509999975,476.6843137999995,a,1,0.3814305999994758,典雅,k,1,0.6862513000005492,hxy,f,22,2024_Apr_09_1518,mian,2021.2.3,59.99401259756743,
,,,,,,1,0,pic/flanker5.png,pic/flanker3.png,a,l,,,,,,,,,,,,,,,,,,0,0,0,0,0,4,4,7,,,,,,,,,,,,479.7675602999998,None,478.58421069999986,479.7842420999996,a,1,0.5040227999998024,缺乏,l,1,0.6275567000002411,hxy,f,22,2024_Apr_09_1518,mian,2021.2.3,59.99401259756743,
,,,,,,1,1,pic/flanker6.png,pic/flanker4.png,s,k,,,,,,,,,,,,,,,,,,0,0,0,0,0,5,5,6,,,,,,,,,,,,482.9176851000002,None,481.73426779999954,482.93432329999996,s,1,0.6085818999999901,充裕,k,1,0.7129357000003438,hxy,f,22,2024_Apr_09_1518,mian,2021.2.3,59.99401259756743,
,,,,,,0,0,pic/flanker5.png,pic/flanker1.png,s,l,,,,,,,,,,,,,,,,,,0,0,0,0,0,6,6,3,,,,,,,,,,,,486.1008916999999,None,484.91761810000025,486.1175751999999,s,1,0.47047639999982493,消沉,l,1,0.6157602999992378,hxy,f,22,2024_Apr_09_1518,mian,2021.2.3,59.99401259756743,
,,,,,,0,1,pic/flanker5.png,pic/flanker1.png,s,k,,,,,,,,,,,,,,,,,,0,0,0,0,0,7,7,0,,,,,,,,,,,,489.15096279999943,None,487.96764559999974,489.1675659000002,s,1,0.45485439999993105,富丽,k,1,0.5849177000000054,hxy,f,22,2024_Apr_09_1518,mian,2021.2.3,59.99401259756743,
,,,,,,,,,,,,,,,,,,,,,,,,,,,,,0,0,0,0,,,,,,,,,,,,,,,,,,,,,,,,,,,hxy,f,22,2024_Apr_09_1518,mian,2021.2.3,59.99401259756743,
,,,,,,1,0,pic/flanker5.png,pic/flanker3.png,a,l,pic/AffRest1.png,,,,,,,,,,,,,,,,,,,,,,,,,0,0,0,0,0,0,0,15,,,,496.08434620000025,None,494.89752679999947,496.10102929999994,a,1,0.3761354999996911,丢失,l,1,0.7038987999994788,hxy,f,22,2024_Apr_09_1518,mian,2021.2.3,59.99401259756743,
,,,,,,1,0,pic/flanker5.png,pic/flanker3.png,a,l,pic/AffRest1.png,,,,,,,,,,,,,,,,,,,,,,,,,0,0,0,0,0,1,1,79,,,,499.1840992999996,None,498.0009124999997,499.20089050000024,a,1,0.38611519999994925,心慌,l,1,0.5489496000000145,hxy,f,22,2024_Apr_09_1518,mian,2021.2.3,59.99401259756743,
,,,,,,1,1,pic/flanker5.png,pic/flanker3.png,a,k,pic/AffRest1.png,,,,,,,,,,,,,,,,,,,,,,,,,0,0,0,0,0,2,2,20,,,,502.13430119999975,None,500.95099070000015,502.1509169000001,a,1,0.39794350000011036,精致,k,1,0.5355994999999893,hxy,f,22,2024_Apr_09_1518,mian,2021.2.3,59.99401259756743,
,,,,,,1,1,pic/flanker6.png,pic/flanker4.png,s,k,pic/AffRest1.png,,,,,,,,,,,,,,,,,,,,,,,,,0,0,0,0,0,3,3,38,,,,505.08430789999966,None,503.9008034999997,505.10088240000005,s,1,0.38882180000018707,舒畅,k,1,0.6308178999997835,hxy,f,22,2024_Apr_09_1518,mian,2021.2.3,59.99401259756743,
,,,,,,0,1,pic/flanker5.png,pic/flanker1.png,s,k,pic/AffRest1.png,,,,,,,,,,,,,,,,,,,,,,,,,0,0,0,0,0,4,4,64,,,,508.0509750000001,None,506.86757260000013,508.0675669000002,a,0,0.4082840999999462,羡慕,k,1,1.2176406999997198,hxy,f,22,2024_Apr_09_1518,mian,2021.2.3,59.99401259756743,
,,,,,,0,0,pic/flanker6.png,pic/flanker2.png,a,l,pic/AffRest1.png,,,,,,,,,,,,,,,,,,,,,,,,,0,0,0,0,0,5,5,41,,,,511.63442099999975,None,510.4509806999995,511.6510613999999,a,1,0.3872365000006539,堵塞,l,1,0.6426669000002221,hxy,f,22,2024_Apr_09_1518,mian,2021.2.3,59.99401259756743,
,,,,,,0,0,pic/flanker5.png,pic/flanker1.png,s,l,pic/AffRest1.png,,,,,,,,,,,,,,,,,,,,,,,,,0,0,0,0,0,6,6,11,,,,514.5340242000002,None,513.3504575999996,514.5506814999999,s,1,0.4685438000005888,嘲笑,l,1,0.5778669999999693,hxy,f,22,2024_Apr_09_1518,mian,2021.2.3,59.99401259756743,
,,,,,,0,0,pic/flanker6.png,pic/flanker2.png,a,l,pic/AffRest1.png,,,,,,,,,,,,,,,,,,,,,,,,,0,0,0,0,0,7,7,1,,,,517.5843992999999,None,516.4010122,517.6010238999997,a,1,0.33807080000042333,罚款,l,1,0.5257945000003019,hxy,f,22,2024_Apr_09_1518,mian,2021.2.3,59.99401259756743,
,,,,,,0,1,pic/flanker5.png,pic/flanker1.png,s,k,pic/AffRest1.png,,,,,,,,,,,,,,,,,,,,,,,,,0,0,0,0,0,8,8,72,,,,520.5176909000002,None,519.3335103999998,520.5343619999994,s,1,0.41575860000011744,优雅,k,1,0.6246628999997483,hxy,f,22,2024_Apr_09_1518,mian,2021.2.3,59.99401259756743,
,,,,,,0,1,pic/flanker6.png,pic/flanker2.png,a,k,pic/AffRest1.png,,,,,,,,,,,,,,,,,,,,,,,,,0,0,0,0,0,9,9,34,,,,523.4343114000003,None,522.2509038999997,523.4509347000003,a,1,0.828036300000349,敬佩,k,1,0.6927558999996108,hxy,f,22,2024_Apr_09_1518,mian,2021.2.3,59.99401259756743,
,,,,,,1,0,pic/flanker5.png,pic/flanker3.png,a,l,pic/AffRest1.png,,,,,,,,,,,,,,,,,,,,,,,,,0,0,0,0,0,10,10,39,,,,526.8509084999996,None,525.6678597999999,526.8676138999999,a,1,0.37645249999968655,忧虑,l,1,0.822164299999713,hxy,f,22,2024_Apr_09_1518,mian,2021.2.3,59.99401259756743,
,,,,,,1,0,pic/flanker6.png,pic/flanker4.png,s,l,pic/AffRest1.png,,,,,,,,,,,,,,,,,,,,,,,,,0,0,0,0,0,11,11,5,,,,530.0343941000001,None,528.8509618999997,530.0510211000001,s,1,0.44661029999952007,伤心,l,1,0.5664686999998594,hxy,f,22,2024_Apr_09_1518,mian,2021.2.3,59.99401259756743,
,,,,,,0,1,pic/flanker5.png,pic/flanker1.png,s,k,pic/AffRest1.png,,,,,,,,,,,,,,,,,,,,,,,,,0,0,0,0,0,12,12,0,,,,533.0510370000002,None,531.8676030999995,533.0677100000003,s,1,0.5005218999995122,圣洁,k,1,0.6838275000000067,hxy,f,22,2024_Apr_09_1518,mian,2021.2.3,59.99401259756743,
,,,,,,0,1,pic/flanker6.png,pic/flanker2.png,a,k,pic/AffRest1.png,,,,,,,,,,,,,,,,,,,,,,,,,0,0,0,0,0,13,13,2,,,,536.2172005000002,None,535.0342310999995,536.2338462999996,a,1,0.37482920000002196,留恋,k,1,0.8821941999995033,hxy,f,22,2024_Apr_09_1518,mian,2021.2.3,59.99401259756743,
,,,,,,1,0,pic/flanker5.png,pic/flanker3.png,a,l,pic/AffRest1.png,,,,,,,,,,,,,,,,,,,,,,,,,0,0,0,0,0,14,14,55,,,,539.4670572999994,None,538.2841077000003,539.4838730000001,a,1,0.48529250000046886,禁止,l,1,0.5574225000000297,hxy,f,22,2024_Apr_09_1518,mian,2021.2.3,59.99401259756743,
,,,,,,0,0,pic/flanker6.png,pic/flanker2.png,a,l,pic/AffRest1.png,,,,,,,,,,,,,,,,,,,,,,,,,0,0,0,0,0,15,15,33,,,,542.5510400000003,None,541.3674572,542.5677397999998,a,1,0.42041189999963535,自卑,l,1,0.6184765000007246,hxy,f,22,2024_Apr_09_1518,mian,2021.2.3,59.99401259756743,
,,,,,,1,0,pic/flanker6.png,pic/flanker4.png,s,l,pic/AffRest1.png,,,,,,,,,,,,,,,,,,,,,,,,,0,0,0,0,0,16,16,69,,,,545.6676226,None,544.4842054000001,545.6835484000003,s,1,0.43897930000002816,撒谎,l,1,0.552346800000123,hxy,f,22,2024_Apr_09_1518,mian,2021.2.3,59.99401259756743,
,,,,,,1,1,pic/flanker6.png,pic/flanker4.png,s,k,pic/AffRest1.png,,,,,,,,,,,,,,,,,,,,,,,,,0,0,0,0,0,17,17,30,,,,548.6510154999996,None,547.4676709999994,548.6677656000002,s,1,0.4765943000002153,典雅,k,1,0.7918374999999287,hxy,f,22,2024_Apr_09_1518,mian,2021.2.3,59.99401259756743,
,,,,,,1,0,pic/flanker6.png,pic/flanker4.png,s,l,pic/AffRest1.png,,,,,,,,,,,,,,,,,,,,,,,,,0,0,0,0,0,18,18,29,,,,551.9010054,None,550.7176155999996,551.9175506000001,s,1,0.42492439999932685,消沉,l,1,0.5316317000006165,hxy,f,22,2024_Apr_09_1518,mian,2021.2.3,59.99401259756743,
,,,,,,0,1,pic/flanker6.png,pic/flanker2.png,a,k,pic/AffRest1.png,,,,,,,,,,,,,,,,,,,,,,,,,0,0,0,0,0,19,19,42,,,,554.8342671,None,553.6508808999997,554.8508383999997,a,1,0.389350899999954,旺盛,k,1,0.7734613000002355,hxy,f,22,2024_Apr_09_1518,mian,2021.2.3,59.99401259756743,
,,,,,,0,0,pic/flanker6.png,pic/flanker2.png,a,l,pic/AffRest1.png,,,,,,,,,,,,,,,,,,,,,,,,,0,0,0,0,0,20,20,25,,,,557.8843858,None,556.7010279999995,557.9010782999994,a,1,0.6328631999995196,失意,l,1,0.5854843999995865,hxy,f,22,2024_Apr_09_1518,mian,2021.2.3,59.99401259756743,
,,,,,,1,1,pic/flanker6.png,pic/flanker4.png,s,k,pic/AffRest1.png,,,,,,,,,,,,,,,,,,,,,,,,,0,0,0,0,0,21,21,78,,,,561.0341607,None,559.8509635,561.0507489000001,s,1,0.4713329000005615,爽朗,k,1,0.951941700000134,hxy,f,22,2024_Apr_09_1518,mian,2021.2.3,59.99401259756743,
,,,,,,0,1,pic/flanker5.png,pic/flanker1.png,s,k,pic/AffRest1.png,,,,,,,,,,,,,,,,,,,,,,,,,0,0,0,0,0,22,22,24,,,,564.3176274999996,None,563.1345223999997,564.3343064999999,s,1,0.3669521000001623,前进,k,1,0.8590660999998363,hxy,f,22,2024_Apr_09_1518,mian,2021.2.3,59.99401259756743,
,,,,,,0,1,pic/flanker6.png,pic/flanker2.png,a,k,pic/AffRest1.png,,,,,,,,,,,,,,,,,,,,,,,,,0,0,0,0,0,23,23,18,,,,567.6174769999998,None,566.4342207999998,567.6342173000003,a,1,0.38048019999951066,有利,k,1,0.5352459000005183,hxy,f,22,2024_Apr_09_1518,mian,2021.2.3,59.99401259756743,
,,,,,,1,0,pic/flanker6.png,pic/flanker4.png,s,l,pic/AffRest1.png,,,,,,,,,,,,,,,,,,,,,,,,,0,0,0,0,0,24,24,45,,,,570.6008270000002,None,569.4176927999997,570.6176195999997,s,1,0.4258167999996658,孤单,l,1,0.5380445000000691,hxy,f,22,2024_Apr_09_1518,mian,2021.2.3,59.99401259756743,
,,,,,,1,1,pic/flanker5.png,pic/flanker3.png,a,k,pic/AffRest1.png,,,,,,,,,,,,,,,,,,,,,,,,,0,0,0,0,0,25,25,28,,,,573.6009234000003,None,572.4175979000001,573.6180330999996,a,1,0.40328959999988,清秀,k,1,0.5001582000004419,hxy,f,22,2024_Apr_09_1518,mian,2021.2.3,59.99401259756743,
,,,,,,0,1,pic/flanker6.png,pic/flanker2.png,a,k,pic/AffRest1.png,,,,,,,,,,,,,,,,,,,,,,,,,0,0,0,0,0,26,26,58,,,,576.3677006999997,None,575.1843508000002,576.3843846999998,a,1,0.38190580000082264,顽强,k,1,0.5748449000002438,hxy,f,22,2024_Apr_09_1518,mian,2021.2.3,59.99401259756743,
,,,,,,0,0,pic/flanker6.png,pic/flanker2.png,a,l,pic/AffRest1.png,,,,,,,,,,,,,,,,,,,,,,,,,0,0,0,0,0,27,27,73,,,,579.2844078999997,None,578.1009807,579.3010477999997,a,1,0.34875499999998283,冷笑,l,1,0.6057903999999326,hxy,f,22,2024_Apr_09_1518,mian,2021.2.3,59.99401259756743,
,,,,,,1,1,pic/flanker6.png,pic/flanker4.png,s,k,pic/AffRest1.png,,,,,,,,,,,,,,,,,,,,,,,,,0,0,0,0,0,28,28,22,,,,582.2174779999996,None,581.0340927999996,582.2343107999995,s,1,0.4646990999999616,诚恳,k,1,0.48045100000035745,hxy,f,22,2024_Apr_09_1518,mian,2021.2.3,59.99401259756743,
,,,,,,1,0,pic/flanker6.png,pic/flanker4.png,s,l,pic/AffRest1.png,,,,,,,,,,,,,,,,,,,,,,,,,0,0,0,0,0,29,29,61,,,,585.0841819999996,None,583.9008120999997,585.1008292999995,s,1,0.43752110000059474,缺乏,l,1,0.6568660999992062,hxy,f,22,2024_Apr_09_1518,mian,2021.2.3,59.99401259756743,
,,,,,,1,0,pic/flanker5.png,pic/flanker3.png,a,l,pic/AffRest1.png,,,,,,,,,,,,,,,,,,,,,,,,,0,0,0,0,0,30,30,47,,,,588.234316,None,587.0506772999997,588.2510666999997,a,1,0.5130254000005152,穷苦,l,1,0.5446206000005986,hxy,f,22,2024_Apr_09_1518,mian,2021.2.3,59.99401259756743,
,,,,,,0,1,pic/flanker6.png,pic/flanker2.png,a,k,pic/AffRest1.png,,,,,,,,,,,,,,,,,,,,,,,,,0,0,0,0,0,31,31,66,,,,591.3508882999995,None,590.1676085999998,591.3675182999996,a,1,0.3843867000005048,俊秀,k,1,0.5623808000000281,hxy,f,22,2024_Apr_09_1518,mian,2021.2.3,59.99401259756743,
,,,,,,1,1,pic/flanker6.png,pic/flanker4.png,s,k,pic/AffRest1.png,,,,,,,,,,,,,,,,,,,,,,,,,0,0,0,0,0,32,32,6,,,,594.2177278999998,None,593.0342453000003,594.2343762999999,s,1,0.477990200000022,秀丽,k,1,0.7228982999995424,hxy,f,22,2024_Apr_09_1518,mian,2021.2.3,59.99401259756743,
,,,,,,1,0,pic/flanker5.png,pic/flanker3.png,a,l,pic/AffRest1.png,,,,,,,,,,,,,,,,,,,,,,,,,0,0,0,0,0,33,33,31,,,,597.5009466000001,None,596.3174313999998,597.5177337999994,a,1,0.4253459000001385,杂乱,l,1,0.5025933000006262,hxy,f,22,2024_Apr_09_1518,mian,2021.2.3,59.99401259756743,
,,,,,,1,0,pic/flanker6.png,pic/flanker4.png,s,l,pic/AffRest1.png,,,,,,,,,,,,,,,,,,,,,,,,,0,0,0,0,0,34,34,53,,,,600.4510018000001,None,599.2675804,600.4678079999994,s,1,0.38906930000030115,厌恶,l,1,0.8838359000001219,hxy,f,22,2024_Apr_09_1518,mian,2021.2.3,59.99401259756743,
,,,,,,1,1,pic/flanker5.png,pic/flanker3.png,a,k,pic/AffRest1.png,,,,,,,,,,,,,,,,,,,,,,,,,0,0,0,0,0,35,35,4,,,,603.7343340999996,None,602.5509181999996,603.7509239000001,a,1,0.4087466000000859,珍藏,k,1,0.5698984999999084,hxy,f,22,2024_Apr_09_1518,mian,2021.2.3,59.99401259756743,
,,,,,,0,1,pic/flanker5.png,pic/flanker1.png,s,k,pic/AffRest1.png,,,,,,,,,,,,,,,,,,,,,,,,,0,0,0,0,0,36,36,16,,,,606.7175439000002,None,605.5340925999999,606.7343492,s,1,0.4819448000007469,振作,k,1,0.5346429000001081,hxy,f,22,2024_Apr_09_1518,mian,2021.2.3,59.99401259756743,
,,,,,,1,1,pic/flanker5.png,pic/flanker3.png,a,k,pic/AffRest1.png,,,,,,,,,,,,,,,,,,,,,,,,,0,0,0,0,0,37,37,36,,,,609.7177326000001,None,608.5343402999997,609.7343758999996,a,1,0.5866452999998728,瑰丽,k,1,0.5749523000004046,hxy,f,22,2024_Apr_09_1518,mian,2021.2.3,59.99401259756743,
,,,,,,0,1,pic/flanker5.png,pic/flanker1.png,s,k,pic/AffRest1.png,,,,,,,,,,,,,,,,,,,,,,,,,0,0,0,0,0,38,38,32,,,,612.9675526999999,None,611.7841769999995,612.9841851000001,s,1,0.44578090000049997,丰满,k,1,0.46149659999991854,hxy,f,22,2024_Apr_09_1518,mian,2021.2.3,59.99401259756743,
,,,,,,1,0,pic/flanker5.png,pic/flanker3.png,a,l,pic/AffRest1.png,,,,,,,,,,,,,,,,,,,,,,,,,0,0,0,0,0,39,39,23,,,,615.8510213999998,None,614.6676023999999,615.8675336999995,a,1,0.4067752000000837,胡涂,l,1,0.4990451000003304,hxy,f,22,2024_Apr_09_1518,mian,2021.2.3,59.99401259756743,
,,,,,,1,0,pic/flanker5.png,pic/flanker3.png,a,l,pic/AffRest1.png,,,,,,,,,,,,,,,,,,,,,,,,,0,0,0,0,0,40,40,7,,,,618.7342435999999,None,617.5507683999995,618.7507530000003,a,1,0.5179532999991352,黑暗,l,1,0.5925271000005523,hxy,f,22,2024_Apr_09_1518,mian,2021.2.3,59.99401259756743,
,,,,,,1,0,pic/flanker6.png,pic/flanker4.png,s,l,pic/AffRest1.png,,,,,,,,,,,,,,,,,,,,,,,,,0,0,0,0,0,41,41,13,,,,621.9009522999995,None,620.7175016000001,621.9175347,s,1,0.43404539999937697,懒惰,l,1,0.5247038999996221,hxy,f,22,2024_Apr_09_1518,mian,2021.2.3,59.99401259756743,
,,,,,,0,0,pic/flanker5.png,pic/flanker1.png,s,l,pic/AffRest1.png,,,,,,,,,,,,,,,,,,,,,,,,,0,0,0,0,0,42,42,51,,,,624.8509561999999,None,623.6677198999996,624.8675831999999,s,1,0.37078249999922264,烦恼,l,1,0.40326160000040545,hxy,f,22,2024_Apr_09_1518,mian,2021.2.3,59.99401259756743,
,,,,,,0,0,pic/flanker6.png,pic/flanker2.png,a,l,pic/AffRest1.png,,,,,,,,,,,,,,,,,,,,,,,,,0,0,0,0,0,43,43,9,,,,627.4675698000001,None,626.2841988999999,627.4842011999999,a,1,0.3440047999993112,假冒,l,1,0.5235189000004539,hxy,f,22,2024_Apr_09_1518,mian,2021.2.3,59.99401259756743,
,,,,,,1,1,pic/flanker5.png,pic/flanker3.png,a,k,pic/AffRest1.png,,,,,,,,,,,,,,,,,,,,,,,,,0,0,0,0,0,44,44,52,,,,630.2677273999998,None,629.0842893999998,630.2843778999995,a,1,0.36019759999999224,生动,k,1,0.5300745000004099,hxy,f,22,2024_Apr_09_1518,mian,2021.2.3,59.99401259756743,
,,,,,,1,1,pic/flanker6.png,pic/flanker4.png,s,k,pic/AffRest1.png,,,,,,,,,,,,,,,,,,,,,,,,,0,0,0,0,0,45,45,14,,,,633.0508528999999,None,631.8674627,633.0676057000001,s,1,0.43024309999964316,奉献,k,1,0.605626200000188,hxy,f,22,2024_Apr_09_1518,mian,2021.2.3,59.99401259756743,
,,,,,,1,0,pic/flanker5.png,pic/flanker3.png,a,l,pic/AffRest1.png,,,,,,,,,,,,,,,,,,,,,,,,,0,0,0,0,0,46,46,71,,,,635.9675317000001,None,634.784396,635.9841943000001,a,1,0.3924543999992238,鲁莽,l,1,0.5304071000000476,hxy,f,22,2024_Apr_09_1518,mian,2021.2.3,59.99401259756743,
,,,,,,1,1,pic/flanker6.png,pic/flanker4.png,s,k,pic/AffRest1.png,,,,,,,,,,,,,,,,,,,,,,,,,0,0,0,0,0,47,47,70,,,,638.9509643000001,None,637.7676842999999,638.9676284999996,s,1,0.3710445000006075,富足,k,1,0.5109281999993982,hxy,f,22,2024_Apr_09_1518,mian,2021.2.3,59.99401259756743,
,,,,,,0,1,pic/flanker5.png,pic/flanker1.png,s,k,pic/AffRest1.png,,,,,,,,,,,,,,,,,,,,,,,,,0,0,0,0,0,48,48,40,,,,641.8511289999997,None,640.6675085999996,641.8677167999995,s,1,0.3582254999992074,廉洁,k,1,0.5373524999995425,hxy,f,22,2024_Apr_09_1518,mian,2021.2.3,59.99401259756743,
,,,,,,1,1,pic/flanker6.png,pic/flanker4.png,s,k,pic/AffRest1.png,,,,,,,,,,,,,,,,,,,,,,,,,0,0,0,0,0,49,49,62,,,,644.6343237000001,None,643.4510694999999,644.6509648000001,s,1,0.35340399999950023,正直,k,1,0.47367300000041723,hxy,f,22,2024_Apr_09_1518,mian,2021.2.3,59.99401259756743,
,,,,,,1,1,pic/flanker5.png,pic/flanker3.png,a,k,pic/AffRest1.png,,,,,,,,,,,,,,,,,,,,,,,,,0,0,0,0,0,50,50,76,,,,647.5334166000002,None,646.3509248,647.5500292999996,a,1,0.40863030000036815,享受,l,0,0.3943282000000181,hxy,f,22,2024_Apr_09_1518,mian,2021.2.3,59.99401259756743,
,,,,,,1,0,pic/flanker6.png,pic/flanker4.png,s,l,pic/AffRest1.png,,,,,,,,,,,,,,,,,,,,,,,,,0,0,0,0,0,51,51,37,,,,650.2510471999994,None,649.0671143,650.2677776999999,s,1,0.42133879999983037,轻率,l,1,0.5798402999998871,hxy,f,22,2024_Apr_09_1518,mian,2021.2.3,59.99401259756743,
,,,,,,1,0,pic/flanker5.png,pic/flanker3.png,a,l,pic/AffRest1.png,,,,,,,,,,,,,,,,,,,,,,,,,0,0,0,0,0,52,52,63,,,,653.1505279000003,None,651.9676283999997,653.1677167999997,a,1,0.43691469999976107,落后,l,1,0.5891060000003563,hxy,f,22,2024_Apr_09_1518,mian,2021.2.3,59.99401259756743,
,,,,,,0,1,pic/flanker5.png,pic/flanker1.png,s,k,pic/AffRest1.png,,,,,,,,,,,,,,,,,,,,,,,,,0,0,0,0,0,53,53,8,,,,656.2177086000002,None,655.0343363000002,656.2342879999997,s,1,0.48131740000007994,畅销,k,1,0.5179463000004034,hxy,f,22,2024_Apr_09_1518,mian,2021.2.3,59.99401259756743,
,,,,,,0,0,pic/flanker6.png,pic/flanker2.png,a,l,pic/AffRest1.png,,,,,,,,,,,,,,,,,,,,,,,,,0,0,0,0,0,54,54,49,,,,659.1010796999999,None,657.9175476,659.1176961000001,a,1,0.6403556000004755,闷热,l,1,0.6135141000004296,hxy,f,22,2024_Apr_09_1518,mian,2021.2.3,59.99401259756743,
,,,,,,0,1,pic/flanker6.png,pic/flanker2.png,a,k,pic/AffRest1.png,,,,,,,,,,,,,,,,,,,,,,,,,0,0,0,0,0,55,55,10,,,,662.3172708000002,None,661.1337395,662.3339685999999,a,1,0.700971500000378,雄厚,k,1,0.63290010000037,hxy,f,22,2024_Apr_09_1518,mian,2021.2.3,59.99401259756743,
,,,,,,0,0,pic/flanker5.png,pic/flanker1.png,s,l,pic/AffRest1.png,,,,,,,,,,,,,,,,,,,,,,,,,0,0,0,0,0,56,56,35,,,,665.5341429999999,None,664.3508941999999,665.550682,s,1,0.4175702000002275,焦躁,l,1,0.4991909999998825,hxy,f,22,2024_Apr_09_1518,mian,2021.2.3,59.99401259756743,
,,,,,,0,1,pic/flanker6.png,pic/flanker2.png,a,k,pic/AffRest1.png,,,,,,,,,,,,,,,,,,,,,,,,,0,0,0,0,0,57,57,26,,,,668.3005033999998,None,667.1176593,668.3176825999999,a,1,0.37641290000010486,如愿,k,1,0.6301566000001912,hxy,f,22,2024_Apr_09_1518,mian,2021.2.3,59.99401259756743,
,,,,,,0,0,pic/flanker5.png,pic/flanker1.png,s,l,pic/AffRest1.png,,,,,,,,,,,,,,,,,,,,,,,,,0,0,0,0,0,58,58,59,,,,671.2843439999997,None,670.1008517999999,671.3009273999996,s,1,0.4276393999998618,郁闷,l,1,0.5892333000001599,hxy,f,22,2024_Apr_09_1518,mian,2021.2.3,59.99401259756743,
,,,,,,0,0,pic/flanker5.png,pic/flanker1.png,s,l,pic/AffRest1.png,,,,,,,,,,,,,,,,,,,,,,,,,0,0,0,0,0,59,59,27,,,,674.3843113000003,None,673.2008175000001,674.4009543000002,s,1,0.40527250000013737,逃避,l,1,0.49979810000058933,hxy,f,22,2024_Apr_09_1518,mian,2021.2.3,59.99401259756743,
,,,,,,1,1,pic/flanker5.png,pic/flanker3.png,a,k,pic/AffRest1.png,,,,,,,,,,,,,,,,,,,,,,,,,0,0,0,0,0,60,60,44,,,,677.3673240999997,None,676.1843644,677.3843999000001,a,1,0.457296800000222,永恒,k,1,0.41172069999993255,hxy,f,22,2024_Apr_09_1518,mian,2021.2.3,59.99401259756743,
,,,,,,1,0,pic/flanker6.png,pic/flanker4.png,s,l,pic/AffRest1.png,,,,,,,,,,,,,,,,,,,,,,,,,0,0,0,0,0,61,61,21,,,,680.1011114000003,None,678.9174537999997,680.1178138999994,s,1,0.5262823000002754,悲观,l,1,1.6690503999998327,hxy,f,22,2024_Apr_09_1518,mian,2021.2.3,59.99401259756743,
,,,,,,1,1,pic/flanker5.png,pic/flanker3.png,a,k,pic/AffRest1.png,,,,,,,,,,,,,,,,,,,,,,,,,0,0,0,0,0,62,62,60,,,,684.1675573000002,None,682.9843123999999,684.1843146000001,a,1,0.370437800000218,公平,k,1,0.7212693000001309,hxy,f,22,2024_Apr_09_1518,mian,2021.2.3,59.99401259756743,
,,,,,,0,0,pic/flanker5.png,pic/flanker1.png,s,l,pic/AffRest1.png,,,,,,,,,,,,,,,,,,,,,,,,,0,0,0,0,0,63,63,43,,,,687.1175772999995,None,685.9344102999994,687.1342181999999,s,1,0.37995929999942746,处罚,l,1,0.5680690999997751,hxy,f,22,2024_Apr_09_1518,mian,2021.2.3,59.99401259756743,
,,,,,,1,1,pic/flanker6.png,pic/flanker4.png,s,k,pic/AffRest1.png,,,,,,,,,,,,,,,,,,,,,,,,,0,0,0,0,0,64,64,54,,,,690.1010489,None,688.9176811999996,690.1177176000001,s,1,0.7094066999998176,充裕,k,1,0.5081630999993649,hxy,f,22,2024_Apr_09_1518,mian,2021.2.3,59.99401259756743,
,,,,,,0,0,pic/flanker5.png,pic/flanker1.png,s,l,pic/AffRest1.png,,,,,,,,,,,,,,,,,,,,,,,,,0,0,0,0,0,65,65,19,,,,693.3003450999995,None,692.1176057000002,693.3176038000001,s,1,0.4096349999999802,争吵,k,0,0.4876851999997598,hxy,f,22,2024_Apr_09_1518,mian,2021.2.3,59.99401259756743,
,,,,,,1,1,pic/flanker6.png,pic/flanker4.png,s,k,pic/AffRest1.png,,,,,,,,,,,,,,,,,,,,,,,,,0,0,0,0,0,66,66,46,,,,696.1510791999999,None,694.9672682999999,696.1677271999997,s,1,0.5680869999996503,赞成,k,1,0.5504482999995162,hxy,f,22,2024_Apr_09_1518,mian,2021.2.3,59.99401259756743,
,,,,,,1,0,pic/flanker6.png,pic/flanker4.png,s,l,pic/AffRest1.png,,,,,,,,,,,,,,,,,,,,,,,,,0,0,0,0,0,67,67,77,,,,699.3009474999999,None,698.1175398999994,699.3176143000001,s,1,0.5451634000000922,浪费,l,1,0.5522707999998602,hxy,f,22,2024_Apr_09_1518,mian,2021.2.3,59.99401259756743,
,,,,,,0,0,pic/flanker5.png,pic/flanker1.png,s,l,pic/AffRest1.png,,,,,,,,,,,,,,,,,,,,,,,,,0,0,0,0,0,68,68,75,,,,702.2674864999999,None,701.0840915999997,702.2842748000003,s,1,0.42878880000080244,沮丧,l,1,0.5515686999997342,hxy,f,22,2024_Apr_09_1518,mian,2021.2.3,59.99401259756743,
,,,,,,0,1,pic/flanker5.png,pic/flanker1.png,s,k,pic/AffRest1.png,,,,,,,,,,,,,,,,,,,,,,,,,0,0,0,0,0,69,69,48,,,,705.1176466999996,None,703.9340571000002,705.1342982999995,s,1,0.44884300000012445,豪放,k,1,0.5319094000005862,hxy,f,22,2024_Apr_09_1518,mian,2021.2.3,59.99401259756743,
,,,,,,0,1,pic/flanker6.png,pic/flanker2.png,a,k,pic/AffRest1.png,,,,,,,,,,,,,,,,,,,,,,,,,0,0,0,0,0,70,70,74,,,,708.0010714999999,None,706.8172183999995,708.0177177999994,a,1,0.40475340000011784,富丽,k,1,0.5071535999995831,hxy,f,22,2024_Apr_09_1518,mian,2021.2.3,59.99401259756743,
,,,,,,0,0,pic/flanker6.png,pic/flanker2.png,a,l,pic/AffRest1.png,,,,,,,,,,,,,,,,,,,,,,,,,0,0,0,0,0,71,71,57,,,,710.9343781999996,None,709.7509070999995,710.9510528000001,a,1,0.4046923000005336,别扭,l,1,0.607950399999936,hxy,f,22,2024_Apr_09_1518,mian,2021.2.3,59.99401259756743,
,,,,,,1,1,pic/flanker5.png,pic/flanker3.png,a,k,pic/AffRest1.png,,,,,,,,,,,,,,,,,,,,,,,,,0,0,0,0,0,72,72,68,,,,713.9842483000002,None,712.8009463999997,714.0009714999997,a,1,0.47323470000083034,热切,k,1,0.5426185000005717,hxy,f,22,2024_Apr_09_1518,mian,2021.2.3,59.99401259756743,
,,,,,,0,1,pic/flanker5.png,pic/flanker1.png,s,k,pic/AffRest1.png,,,,,,,,,,,,,,,,,,,,,,,,,0,0,0,0,0,73,73,56,,,,716.9177355000002,None,715.7342367000001,716.9342830999994,s,1,0.4901676999998017,吉祥,k,1,0.6656619999994291,hxy,f,22,2024_Apr_09_1518,mian,2021.2.3,59.99401259756743,
,,,,,,0,0,pic/flanker5.png,pic/flanker1.png,s,l,pic/AffRest1.png,,,,,,,,,,,,,,,,,,,,,,,,,0,0,0,0,0,74,74,67,,,,720.0177365999998,None,718.8342617999997,720.0344036999995,s,1,0.43865999999979977,慌忙,l,1,0.6592006000000765,hxy,f,22,2024_Apr_09_1518,mian,2021.2.3,59.99401259756743,
,,,,,,0,1,pic/flanker6.png,pic/flanker2.png,a,k,pic/AffRest1.png,,,,,,,,,,,,,,,,,,,,,,,,,0,0,0,0,0,75,75,50,,,,723.1004581999996,None,721.9180903999995,723.1172549000003,a,1,0.4109703999993144,卓越,l,0,0.5420659999999771,hxy,f,22,2024_Apr_09_1518,mian,2021.2.3,59.99401259756743,
,,,,,,0,0,pic/flanker6.png,pic/flanker2.png,a,l,pic/AffRest1.png,,,,,,,,,,,,,,,,,,,,,,,,,0,0,0,0,0,76,76,17,,,,726.0176091000003,None,724.8342501999996,726.0342417000002,a,1,0.33491810000032274,排斥,l,1,0.557363300000361,hxy,f,22,2024_Apr_09_1518,mian,2021.2.3,59.99401259756743,
,,,,,,1,1,pic/flanker5.png,pic/flanker3.png,a,k,pic/AffRest1.png,,,,,,,,,,,,,,,,,,,,,,,,,0,0,0,0,0,77,77,12,,,,728.9177270999999,None,727.7343003999995,728.9343743,a,1,0.42016419999981736,鲜艳,k,1,0.5276486000002478,hxy,f,22,2024_Apr_09_1518,mian,2021.2.3,59.99401259756743,
,,,,,,0,0,pic/flanker6.png,pic/flanker2.png,a,l,pic/AffRest1.png,,,,,,,,,,,,,,,,,,,,,,,,,0,0,0,0,0,78,78,65,,,,731.8503043000001,None,730.6674952000003,731.8675670000002,a,1,0.42099140000027546,损害,l,1,0.5568904000001567,hxy,f,22,2024_Apr_09_1518,mian,2021.2.3,59.99401259756743,
,,,,,,0,0,pic/flanker5.png,pic/flanker1.png,s,l,pic/AffRest1.png,,,,,,,,,,,,,,,,,,,,,,,,,0,0,0,0,0,79,79,3,,,,734.8343635000001,None,733.6509952999995,734.8510402000002,s,1,0.5226376999999047,怀疑,l,1,0.6188867999999275,hxy,f,22,2024_Apr_09_1518,mian,2021.2.3,59.99401259756743,
,,,,,,,,,,,,pic/AffRest1.png,,,,,,,,,,,,,,,,,,,,,,,,,0,0,0,0,,,,,,,,,,,,,,,,,,,hxy,f,22,2024_Apr_09_1518,mian,2021.2.3,59.99401259756743,
,,,,,,1,1,pic/flanker5.png,pic/flanker3.png,a,k,pic/AffRest2.png,,,,,,,,,,,,,,,,,,,,,,,,,0,1,1,1,0,0,0,60,,,,760.0010617999997,None,758.7995549999996,760.0010617999997,a,1,0.4754448000003322,如愿,l,0,0.45165760000054433,hxy,f,22,2024_Apr_09_1518,mian,2021.2.3,59.99401259756743,
,,,,,,0,0,pic/flanker6.png,pic/flanker2.png,a,l,pic/AffRest2.png,,,,,,,,,,,,,,,,,,,,,,,,,0,1,1,1,0,1,1,33,,,,762.9343229999995,None,761.7509208000001,762.9508943999999,a,1,0.38819229999990057,悲观,l,1,0.4718286999996053,hxy,f,22,2024_Apr_09_1518,mian,2021.2.3,59.99401259756743,
,,,,,,1,1,pic/flanker6.png,pic/flanker4.png,s,k,pic/AffRest2.png,,,,,,,,,,,,,,,,,,,,,,,,,0,1,1,1,0,2,2,6,,,,765.8343634000003,None,764.6509427000001,765.8510218000001,s,1,0.3765744000002087,鲜艳,k,1,0.4949883999997837,hxy,f,22,2024_Apr_09_1518,mian,2021.2.3,59.99401259756743,
,,,,,,0,1,pic/flanker5.png,pic/flanker1.png,s,k,pic/AffRest2.png,,,,,,,,,,,,,,,,,,,,,,,,,0,1,1,1,0,3,3,56,,,,768.7344039,None,767.5508891,768.7510784999995,s,1,0.4770357999996122,赞成,k,1,0.5619004000000132,hxy,f,22,2024_Apr_09_1518,mian,2021.2.3,59.99401259756743,
,,,,,,1,1,pic/flanker6.png,pic/flanker4.png,s,k,pic/AffRest2.png,,,,,,,,,,,,,,,,,,,,,,,,,0,1,1,1,0,4,4,62,,,,771.6507885999999,None,770.4675746000003,771.6675269999996,s,1,0.4310970999995334,富丽,k,1,0.45789460000014515,hxy,f,22,2024_Apr_09_1518,mian,2021.2.3,59.99401259756743,
,,,,,,0,0,pic/flanker5.png,pic/flanker1.png,s,l,pic/AffRest2.png,,,,,,,,,,,,,,,,,,,,,,,,,0,1,1,1,0,5,5,75,,,,774.4510583000001,None,773.2675515999999,774.4677186999998,s,1,0.5104520999993838,罚款,l,1,0.5658485000003566,hxy,f,22,2024_Apr_09_1518,mian,2021.2.3,59.99401259756743,
,,,,,,0,0,pic/flanker5.png,pic/flanker1.png,s,l,pic/AffRest2.png,,,,,,,,,,,,,,,,,,,,,,,,,0,1,1,1,0,6,6,35,,,,777.6007602999998,None,776.4175614999995,777.617526,s,1,0.3674306000002616,忧虑,l,1,0.5176836999999068,hxy,f,22,2024_Apr_09_1518,mian,2021.2.3,59.99401259756743,
,,,,,,0,1,pic/flanker5.png,pic/flanker1.png,s,k,pic/AffRest2.png,,,,,,,,,,,,,,,,,,,,,,,,,0,1,1,1,0,7,7,48,,,,780.3342198,None,779.1509310000001,780.3509815999996,s,1,0.36017289999927016,丰满,k,1,0.6142092999998567,hxy,f,22,2024_Apr_09_1518,mian,2021.2.3,59.99401259756743,
,,,,,,1,0,pic/flanker6.png,pic/flanker4.png,s,l,pic/AffRest2.png,,,,,,,,,,,,,,,,,,,,,,,,,0,1,1,1,0,8,8,45,,,,783.2509081999997,None,782.0675255999995,783.2675775999996,s,1,0.4390432000000146,杂乱,k,0,0.4461052999995445,hxy,f,22,2024_Apr_09_1518,mian,2021.2.3,59.99401259756743,
,,,,,,0,0,pic/flanker5.png,pic/flanker1.png,s,l,pic/AffRest2.png,,,,,,,,,,,,,,,,,,,,,,,,,0,1,1,1,0,9,9,43,,,,786.0676893,None,784.8837905,786.084057,s,1,0.42766889999984414,鲁莽,l,1,0.6083490000000893,hxy,f,22,2024_Apr_09_1518,mian,2021.2.3,59.99401259756743,
,,,,,,1,1,pic/flanker6.png,pic/flanker4.png,s,k,pic/AffRest2.png,,,,,,,,,,,,,,,,,,,,,,,,,0,1,1,1,0,10,10,54,,,,788.9843302999998,None,787.8009256999994,789.0009272999996,s,1,0.44971739999982674,俊秀,k,1,0.5584929999995438,hxy,f,22,2024_Apr_09_1518,mian,2021.2.3,59.99401259756743,
,,,,,,1,0,pic/flanker6.png,pic/flanker4.png,s,l,pic/AffRest2.png,,,,,,,,,,,,,,,,,,,,,,,,,0,1,1,1,0,11,11,69,,,,791.8341184000001,None,790.6509341000001,791.8508927000003,s,1,0.4555374000001393,穷苦,l,1,0.49524879999989935,hxy,f,22,2024_Apr_09_1518,mian,2021.2.3,59.99401259756743,
,,,,,,0,0,pic/flanker5.png,pic/flanker1.png,s,l,pic/AffRest2.png,,,,,,,,,,,,,,,,,,,,,,,,,0,1,1,1,0,12,12,67,,,,794.6009119999999,None,793.4174541000002,794.6176175999999,s,1,0.5317851000008886,假冒,l,1,0.47135290000005625,hxy,f,22,2024_Apr_09_1518,mian,2021.2.3,59.99401259756743,
,,,,,,0,1,pic/flanker5.png,pic/flanker1.png,s,k,pic/AffRest2.png,,,,,,,,,,,,,,,,,,,,,,,,,0,1,1,1,0,13,13,24,,,,797.4843137999997,None,796.3009554999999,797.5010837999998,s,1,0.48045270000056917,卓越,l,0,0.48666030000003957,hxy,f,22,2024_Apr_09_1518,mian,2021.2.3,59.99401259756743,
,,,,,,0,1,pic/flanker6.png,pic/flanker2.png,a,k,pic/AffRest2.png,,,,,,,,,,,,,,,,,,,,,,,,,0,1,1,1,0,14,14,10,,,,800.3343956999997,None,799.1509488000002,800.3508003999996,a,1,0.5106150000001435,顽强,k,1,0.5299059999997553,hxy,f,22,2024_Apr_09_1518,mian,2021.2.3,59.99401259756743,
,,,,,,1,0,pic/flanker6.png,pic/flanker4.png,s,l,pic/AffRest2.png,,,,,,,,,,,,,,,,,,,,,,,,,0,1,1,1,0,15,15,13,,,,803.2837615999997,None,802.1010408000002,803.3005010999996,s,1,0.5152921999997488,懒惰,l,1,0.5215926999999283,hxy,f,22,2024_Apr_09_1518,mian,2021.2.3,59.99401259756743,
,,,,,,1,1,pic/flanker5.png,pic/flanker3.png,a,k,pic/AffRest2.png,,,,,,,,,,,,,,,,,,,,,,,,,0,1,1,1,0,16,16,52,,,,806.2342779999999,None,805.0506618,806.2509346999996,a,1,0.4921479000004183,公平,k,1,0.5491166000001613,hxy,f,22,2024_Apr_09_1518,mian,2021.2.3,59.99401259756743,
,,,,,,1,1,pic/flanker6.png,pic/flanker4.png,s,k,pic/AffRest2.png,,,,,,,,,,,,,,,,,,,,,,,,,0,1,1,1,0,17,17,38,,,,809.3176136000002,None,808.1343109999998,809.3343102999997,s,1,0.4376713000001473,永恒,k,1,0.45366220000050816,hxy,f,22,2024_Apr_09_1518,mian,2021.2.3,59.99401259756743,
,,,,,,1,0,pic/flanker6.png,pic/flanker4.png,s,l,pic/AffRest2.png,,,,,,,,,,,,,,,,,,,,,,,,,0,1,1,1,0,18,18,61,,,,812.2176141999998,None,811.0342896000002,812.2342105999996,s,1,0.5033336000005875,别扭,l,1,1.0266756000000896,hxy,f,22,2024_Apr_09_1518,mian,2021.2.3,59.99401259756743,
,,,,,,1,0,pic/flanker5.png,pic/flanker3.png,a,l,pic/AffRest2.png,,,,,,,,,,,,,,,,,,,,,,,,,0,1,1,1,0,19,19,15,,,,815.7674965999995,None,814.5842658000001,815.7841546,a,1,0.6913233000004766,争吵,l,1,0.5837951000003159,hxy,f,22,2024_Apr_09_1518,mian,2021.2.3,59.99401259756743,
,,,,,,0,0,pic/flanker6.png,pic/flanker2.png,a,l,pic/AffRest2.png,,,,,,,,,,,,,,,,,,,,,,,,,0,1,1,1,0,20,20,1,,,,818.9511512999998,None,817.7675209999998,818.9677327999998,a,1,0.4226702000005389,失意,l,1,0.5315119999995659,hxy,f,22,2024_Apr_09_1518,mian,2021.2.3,59.99401259756743,
,,,,,,1,0,pic/flanker5.png,pic/flanker3.png,a,l,pic/AffRest2.png,,,,,,,,,,,,,,,,,,,,,,,,,0,1,1,1,0,21,21,79,,,,821.7675067999999,None,820.5843635000001,821.7842318000003,a,1,0.4464424000007057,撒谎,l,1,0.5682673999999679,hxy,f,22,2024_Apr_09_1518,mian,2021.2.3,59.99401259756743,
,,,,,,0,0,pic/flanker6.png,pic/flanker2.png,a,l,pic/AffRest2.png,,,,,,,,,,,,,,,,,,,,,,,,,0,1,1,1,0,22,22,65,,,,824.8176592,None,823.6343811999996,824.8343238999996,a,1,0.4165397999995548,处罚,l,1,0.48658810000051744,hxy,f,22,2024_Apr_09_1518,mian,2021.2.3,59.99401259756743,
,,,,,,1,0,pic/flanker6.png,pic/flanker4.png,s,l,pic/AffRest2.png,,,,,,,,,,,,,,,,,,,,,,,,,0,1,1,1,0,23,23,53,,,,827.7008402000001,None,826.5171212999994,827.7174187,s,1,0.6093479999999545,孤单,l,1,0.4884139999994659,hxy,f,22,2024_Apr_09_1518,mian,2021.2.3,59.99401259756743,
,,,,,,1,1,pic/flanker6.png,pic/flanker4.png,s,k,pic/AffRest2.png,,,,,,,,,,,,,,,,,,,,,,,,,0,1,1,1,0,24,24,30,,,,830.7839771999998,None,829.6001915999996,830.8006317999998,s,1,0.5744748999995863,精致,k,1,0.678799400000571,hxy,f,22,2024_Apr_09_1518,mian,2021.2.3,59.99401259756743,
,,,,,,1,0,pic/flanker6.png,pic/flanker4.png,s,l,pic/AffRest2.png,,,,,,,,,,,,,,,,,,,,,,,,,0,1,1,1,0,25,25,21,,,,833.8676016,None,832.6842489000001,833.8841855999999,s,1,0.6994328000000678,丢失,l,1,0.613219100000606,hxy,f,22,2024_Apr_09_1518,mian,2021.2.3,59.99401259756743,
,,,,,,0,0,pic/flanker5.png,pic/flanker1.png,s,l,pic/AffRest2.png,,,,,,,,,,,,,,,,,,,,,,,,,0,1,1,1,0,26,26,59,,,,837.2177308999999,None,836.0342424999999,837.2343774000001,s,1,0.4156169999996564,胡涂,l,1,1.0200443999992785,hxy,f,22,2024_Apr_09_1518,mian,2021.2.3,59.99401259756743,
,,,,,,0,1,pic/flanker5.png,pic/flanker1.png,s,k,pic/AffRest2.png,,,,,,,,,,,,,,,,,,,,,,,,,0,1,1,1,0,27,27,8,,,,840.6343959999995,None,839.4509484,840.6509968999999,s,1,0.5268874000003052,廉洁,l,0,0.5259720000003654,hxy,f,22,2024_Apr_09_1518,mian,2021.2.3,59.99401259756743,
,,,,,,1,1,pic/flanker6.png,pic/flanker4.png,s,k,pic/AffRest2.png,,,,,,,,,,,,,,,,,,,,,,,,,0,1,1,1,0,28,28,22,,,,843.6508518,None,842.4676300000001,843.6675649999997,s,1,0.8562443999999232,清秀,k,1,0.6624351999998908,hxy,f,22,2024_Apr_09_1518,mian,2021.2.3,59.99401259756743,
,,,,,,1,1,pic/flanker6.png,pic/flanker4.png,s,k,pic/AffRest2.png,,,,,,,,,,,,,,,,,,,,,,,,,0,1,1,1,0,29,29,46,,,,847.1009148000003,None,845.9175869000001,847.1175729999995,s,1,0.4772825999998531,秀丽,k,1,0.490230800000063,hxy,f,22,2024_Apr_09_1518,mian,2021.2.3,59.99401259756743,
,,,,,,1,0,pic/flanker5.png,pic/flanker3.png,a,l,pic/AffRest2.png,,,,,,,,,,,,,,,,,,,,,,,,,0,1,1,1,0,30,30,31,,,,850.0174816999997,None,848.8343053999997,850.0340991000003,a,1,0.5442043999992165,冷笑,l,1,0.8906145999999353,hxy,f,22,2024_Apr_09_1518,mian,2021.2.3,59.99401259756743,
,,,,,,1,0,pic/flanker5.png,pic/flanker3.png,a,l,pic/AffRest2.png,,,,,,,,,,,,,,,,,,,,,,,,,0,1,1,1,0,31,31,39,,,,853.3842268999997,None,852.2010198999997,853.4007534000002,None,0,,黑暗,k,0,0.8135031000001618,hxy,f,22,2024_Apr_09_1518,mian,2021.2.3,59.99401259756743,
,,,,,,0,0,pic/flanker6.png,pic/flanker2.png,a,l,pic/AffRest2.png,,,,,,,,,,,,,,,,,,,,,,,,,0,1,1,1,0,32,32,57,,,,857.4176379,None,856.2340758,857.4342773999997,a,1,0.5482029999993756,消沉,l,1,0.5524121999997078,hxy,f,22,2024_Apr_09_1518,mian,2021.2.3,59.99401259756743,
,,,,,,1,1,pic/flanker6.png,pic/flanker4.png,s,k,pic/AffRest2.png,,,,,,,,,,,,,,,,,,,,,,,,,0,1,1,1,0,33,33,14,,,,860.3841889999994,None,859.2008074999994,860.4007606999994,s,1,0.42138539999996283,热切,k,1,0.8247237000005043,hxy,f,22,2024_Apr_09_1518,mian,2021.2.3,59.99401259756743,
,,,,,,0,0,pic/flanker5.png,pic/flanker1.png,s,l,pic/AffRest2.png,,,,,,,,,,,,,,,,,,,,,,,,,0,1,1,1,0,34,34,11,,,,863.4843972999997,None,862.3010457999999,863.5010426999997,s,1,0.5640013000002,烦恼,l,1,0.5995886999999129,hxy,f,22,2024_Apr_09_1518,mian,2021.2.3,59.99401259756743,
,,,,,,1,1,pic/flanker5.png,pic/flanker3.png,a,k,pic/AffRest2.png,,,,,,,,,,,,,,,,,,,,,,,,,0,1,1,1,0,35,35,28,,,,866.5677428999998,None,865.3842174000001,866.5843917000002,a,1,0.63329049999993,雄厚,k,1,0.6626975000008315,hxy,f,22,2024_Apr_09_1518,mian,2021.2.3,59.99401259756743,
,,,,,,0,1,pic/flanker6.png,pic/flanker2.png,a,k,pic/AffRest2.png,,,,,,,,,,,,,,,,,,,,,,,,,0,1,1,1,0,36,36,58,,,,869.8508900999996,None,868.6675815999997,869.8675439999997,a,1,0.40187909999986005,舒畅,k,1,0.5768219000001409,hxy,f,22,2024_Apr_09_1518,mian,2021.2.3,59.99401259756743,
,,,,,,1,1,pic/flanker5.png,pic/flanker3.png,a,k,pic/AffRest2.png,,,,,,,,,,,,,,,,,,,,,,,,,0,1,1,1,0,37,37,44,,,,872.7510967999997,None,871.5677249999999,872.7677072999995,a,1,0.6223817000000054,吉祥,l,0,0.7439162999999098,hxy,f,22,2024_Apr_09_1518,mian,2021.2.3,59.99401259756743,
,,,,,,1,1,pic/flanker5.png,pic/flanker3.png,a,k,pic/AffRest2.png,,,,,,,,,,,,,,,,,,,,,,,,,0,1,1,1,0,38,38,76,,,,876.0844006999996,None,874.9010609999996,876.1011355999999,a,1,0.5415834000004907,圣洁,k,1,0.4308031000000483,hxy,f,22,2024_Apr_09_1518,mian,2021.2.3,59.99401259756743,
,,,,,,0,1,pic/flanker5.png,pic/flanker1.png,s,k,pic/AffRest2.png,,,,,,,,,,,,,,,,,,,,,,,,,0,1,1,1,0,39,39,16,,,,879.1171334999999,None,877.9343268000002,879.1344456999996,s,1,0.3805222999999387,有利,k,1,0.6835221999999703,hxy,f,22,2024_Apr_09_1518,mian,2021.2.3,59.99401259756743,
,,,,,,1,1,pic/flanker5.png,pic/flanker3.png,a,k,pic/AffRest2.png,,,,,,,,,,,,,,,,,,,,,,,,,0,1,1,1,0,40,40,68,,,,882.1008524999997,None,880.9176418999996,882.1168805999996,a,1,0.49216749999959575,生动,k,1,0.47244940000018687,hxy,f,22,2024_Apr_09_1518,mian,2021.2.3,59.99401259756743,
,,,,,,1,1,pic/flanker5.png,pic/flanker3.png,a,k,pic/AffRest2.png,,,,,,,,,,,,,,,,,,,,,,,,,0,1,1,1,0,41,41,12,,,,885.0509172000002,None,883.8669407999996,885.0676409999996,a,1,0.44898749999993015,留恋,k,1,0.5541823000003205,hxy,f,22,2024_Apr_09_1518,mian,2021.2.3,59.99401259756743,
,,,,,,0,0,pic/flanker5.png,pic/flanker1.png,s,l,pic/AffRest2.png,,,,,,,,,,,,,,,,,,,,,,,,,0,1,1,1,0,42,42,51,,,,888.0508776999995,None,886.8677023999999,888.0669397000001,s,1,0.495457200000601,郁闷,l,1,0.530197600000065,hxy,f,22,2024_Apr_09_1518,mian,2021.2.3,59.99401259756743,
,,,,,,1,1,pic/flanker6.png,pic/flanker4.png,s,k,pic/AffRest2.png,,,,,,,,,,,,,,,,,,,,,,,,,0,1,1,1,0,43,43,70,,,,890.9677008999997,None,889.7841916999996,890.9843701999998,s,1,0.4855327000004763,富足,l,0,0.5882398000003377,hxy,f,22,2024_Apr_09_1518,mian,2021.2.3,59.99401259756743,
,,,,,,0,0,pic/flanker6.png,pic/flanker2.png,a,l,pic/AffRest2.png,,,,,,,,,,,,,,,,,,,,,,,,,0,1,1,1,0,44,44,41,,,,893.9175282999995,None,892.7342479999998,893.9344289999999,a,1,0.9390974000007191,自卑,l,1,0.9783348999999362,hxy,f,22,2024_Apr_09_1518,mian,2021.2.3,59.99401259756743,
,,,,,,1,0,pic/flanker5.png,pic/flanker3.png,a,l,pic/AffRest2.png,,,,,,,,,,,,,,,,,,,,,,,,,0,1,1,1,0,45,45,71,,,,897.7676053999994,None,896.5842814999996,897.7842406,a,1,0.39847659999941243,损害,l,1,0.7407273999997415,hxy,f,22,2024_Apr_09_1518,mian,2021.2.3,59.99401259756743,
,,,,,,0,1,pic/flanker5.png,pic/flanker1.png,s,k,pic/AffRest2.png,,,,,,,,,,,,,,,,,,,,,,,,,0,1,1,1,0,46,46,64,,,,900.9503537,None,899.7672223999998,900.9670046000001,s,1,0.4240081999996619,正直,k,1,0.43664409999928466,hxy,f,22,2024_Apr_09_1518,mian,2021.2.3,59.99401259756743,
,,,,,,0,0,pic/flanker5.png,pic/flanker1.png,s,l,pic/AffRest2.png,,,,,,,,,,,,,,,,,,,,,,,,,0,1,1,1,0,47,47,3,,,,903.6509269999997,None,902.4675396000002,903.6669775,s,1,0.4897178000001077,排斥,l,1,0.5168781000002127,hxy,f,22,2024_Apr_09_1518,mian,2021.2.3,59.99401259756743,
,,,,,,0,0,pic/flanker6.png,pic/flanker2.png,a,l,pic/AffRest2.png,,,,,,,,,,,,,,,,,,,,,,,,,0,1,1,1,0,48,48,73,,,,906.5176363999999,None,905.3342748999994,906.5341896,a,1,0.4021835000003193,浪费,l,1,0.5391945999999734,hxy,f,22,2024_Apr_09_1518,mian,2021.2.3,59.99401259756743,
,,,,,,0,1,pic/flanker5.png,pic/flanker1.png,s,k,pic/AffRest2.png,,,,,,,,,,,,,,,,,,,,,,,,,0,1,1,1,0,49,49,32,,,,909.3509425000002,None,908.1674548999999,909.3676520999998,s,1,0.37465900000006513,奉献,k,1,0.544804799999838,hxy,f,22,2024_Apr_09_1518,mian,2021.2.3,59.99401259756743,
,,,,,,1,0,pic/flanker5.png,pic/flanker3.png,a,l,pic/AffRest2.png,,,,,,,,,,,,,,,,,,,,,,,,,0,1,1,1,0,50,50,7,,,,912.1843693000001,None,911.0007435999996,912.2008890999996,a,1,1.1910857999992004,心慌,l,1,0.7650111000002653,hxy,f,22,2024_Apr_09_1518,mian,2021.2.3,59.99401259756743,
,,,,,,0,0,pic/flanker6.png,pic/flanker2.png,a,l,pic/AffRest2.png,,,,,,,,,,,,,,,,,,,,,,,,,0,1,1,1,0,51,51,49,,,,916.0344350999994,None,914.8509280999997,916.0511305,a,1,0.355490899999495,落后,l,1,0.6321624000001975,hxy,f,22,2024_Apr_09_1518,mian,2021.2.3,59.99401259756743,
,,,,,,0,0,pic/flanker6.png,pic/flanker2.png,a,l,pic/AffRest2.png,,,,,,,,,,,,,,,,,,,,,,,,,0,1,1,1,0,52,52,25,,,,919.0844332999995,None,917.9008605999998,919.1010139,a,1,0.33995229999982257,逃避,l,1,0.5701614999998128,hxy,f,22,2024_Apr_09_1518,mian,2021.2.3,59.99401259756743,
,,,,,,0,1,pic/flanker6.png,pic/flanker2.png,a,k,pic/AffRest2.png,,,,,,,,,,,,,,,,,,,,,,,,,0,1,1,1,0,53,53,74,,,,921.9174283000002,None,920.7337815999999,921.9344580999996,a,1,0.3039201999999932,旺盛,k,1,0.6326900000003661,hxy,f,22,2024_Apr_09_1518,mian,2021.2.3,59.99401259756743,
,,,,,,1,0,pic/flanker5.png,pic/flanker3.png,a,l,pic/AffRest2.png,,,,,,,,,,,,,,,,,,,,,,,,,0,1,1,1,0,54,54,23,,,,924.7678088000002,None,923.5842174999998,924.7843321,a,1,0.7385166000003665,焦躁,l,1,0.6762106999995012,hxy,f,22,2024_Apr_09_1518,mian,2021.2.3,59.99401259756743,
,,,,,,1,0,pic/flanker5.png,pic/flanker3.png,a,l,pic/AffRest2.png,,,,,,,,,,,,,,,,,,,,,,,,,0,1,1,1,0,55,55,47,,,,928.1342239999994,None,926.9510691999994,928.1508537,a,1,0.4281371000006402,沮丧,l,1,0.6828988999996,hxy,f,22,2024_Apr_09_1518,mian,2021.2.3,59.99401259756743,
,,,,,,1,0,pic/flanker5.png,pic/flanker3.png,a,l,pic/AffRest2.png,,,,,,,,,,,,,,,,,,,,,,,,,0,1,1,1,0,56,56,55,,,,931.1836520999996,None,930.0009807999995,931.2002745,a,1,0.34218869999949675,伤心,l,1,0.5657511000008526,hxy,f,22,2024_Apr_09_1518,mian,2021.2.3,59.99401259756743,
,,,,,,0,0,pic/flanker5.png,pic/flanker1.png,s,l,pic/AffRest2.png,,,,,,,,,,,,,,,,,,,,,,,,,0,1,1,1,0,57,57,19,,,,934.1341885000002,None,932.9506878000002,934.1508452999997,s,1,0.5423339999997552,缺乏,l,1,0.521166099999391,hxy,f,22,2024_Apr_09_1518,mian,2021.2.3,59.99401259756743,
,,,,,,0,1,pic/flanker6.png,pic/flanker2.png,a,k,pic/AffRest2.png,,,,,,,,,,,,,,,,,,,,,,,,,0,1,1,1,0,58,58,50,,,,937.0677808,None,935.8840031,937.0843384999998,a,1,0.4615507999997135,享受,k,1,0.5864952000001722,hxy,f,22,2024_Apr_09_1518,mian,2021.2.3,59.99401259756743,
,,,,,,1,0,pic/flanker6.png,pic/flanker4.png,s,l,pic/AffRest2.png,,,,,,,,,,,,,,,,,,,,,,,,,0,1,1,1,0,59,59,77,,,,940.0346731999998,None,938.8509673999997,940.0512947999996,s,1,0.5982128999994529,厌恶,l,1,0.9710208999995302,hxy,f,22,2024_Apr_09_1518,mian,2021.2.3,59.99401259756743,
,,,,,,1,0,pic/flanker6.png,pic/flanker4.png,s,l,pic/AffRest2.png,,,,,,,,,,,,,,,,,,,,,,,,,0,1,1,1,0,60,60,37,,,,943.6175216000001,None,942.4343904999996,943.6342551999996,s,1,0.4713733000007778,慌忙,l,1,0.48453220000010333,hxy,f,22,2024_Apr_09_1518,mian,2021.2.3,59.99401259756743,
,,,,,,0,0,pic/flanker6.png,pic/flanker2.png,a,l,pic/AffRest2.png,,,,,,,,,,,,,,,,,,,,,,,,,0,1,1,1,0,61,61,9,,,,946.5176916,None,945.3341591999997,946.5344545999997,a,1,0.39560640000036074,嘲笑,l,1,0.7287987999998222,hxy,f,22,2024_Apr_09_1518,mian,2021.2.3,59.99401259756743,
,,,,,,0,1,pic/flanker6.png,pic/flanker2.png,a,k,pic/AffRest2.png,,,,,,,,,,,,,,,,,,,,,,,,,0,1,1,1,0,62,62,42,,,,949.5177431000002,None,948.3341947999998,949.5341000999997,a,1,0.35451130000001285,振作,k,1,0.6703778999999486,hxy,f,22,2024_Apr_09_1518,mian,2021.2.3,59.99401259756743,
,,,,,,0,0,pic/flanker5.png,pic/flanker1.png,s,l,pic/AffRest2.png,,,,,,,,,,,,,,,,,,,,,,,,,0,1,1,1,0,63,63,27,,,,952.5344224999999,None,951.3510342999998,952.5511220999997,s,1,0.4597631000006004,堵塞,l,1,0.48493000000053144,hxy,f,22,2024_Apr_09_1518,mian,2021.2.3,59.99401259756743,
,,,,,,0,1,pic/flanker6.png,pic/flanker2.png,a,k,pic/AffRest2.png,,,,,,,,,,,,,,,,,,,,,,,,,0,1,1,1,0,64,64,2,,,,955.5010775000001,None,954.3178104999997,955.5177739000001,a,1,0.3896887999999308,豪放,l,0,0.9743655000002036,hxy,f,22,2024_Apr_09_1518,mian,2021.2.3,59.99401259756743,
,,,,,,0,0,pic/flanker6.png,pic/flanker2.png,a,l,pic/AffRest2.png,,,,,,,,,,,,,,,,,,,,,,,,,0,1,1,1,0,65,65,17,,,,958.9344249999995,None,957.7507636,958.9510281000003,a,1,0.507285800000318,怀疑,l,1,1.121393999999782,hxy,f,22,2024_Apr_09_1518,mian,2021.2.3,59.99401259756743,
,,,,,,1,1,pic/flanker5.png,pic/flanker3.png,a,k,pic/AffRest2.png,,,,,,,,,,,,,,,,,,,,,,,,,0,1,1,1,0,66,66,4,,,,962.4342445000002,None,961.2511353,962.4509532000002,a,1,0.5273307000006753,充裕,l,0,0.4547067000003153,hxy,f,22,2024_Apr_09_1518,mian,2021.2.3,59.99401259756743,
,,,,,,1,0,pic/flanker6.png,pic/flanker4.png,s,l,pic/AffRest2.png,,,,,,,,,,,,,,,,,,,,,,,,,0,1,1,1,0,67,67,29,,,,965.3679127999994,None,964.1842998000002,965.3843654000002,s,1,0.7064915000000838,闷热,l,1,1.104969500000152,hxy,f,22,2024_Apr_09_1518,mian,2021.2.3,59.99401259756743,
,,,,,,1,1,pic/flanker5.png,pic/flanker3.png,a,k,pic/AffRest2.png,,,,,,,,,,,,,,,,,,,,,,,,,0,1,1,1,0,68,68,36,,,,969.0677520999998,None,967.8843405999996,969.0843794000002,a,1,0.6163056999994296,优雅,k,1,0.5420276999993803,hxy,f,22,2024_Apr_09_1518,mian,2021.2.3,59.99401259756743,
,,,,,,1,0,pic/flanker5.png,pic/flanker3.png,a,l,pic/AffRest2.png,,,,,,,,,,,,,,,,,,,,,,,,,0,1,1,1,0,69,69,63,,,,972.1677823,None,970.9843602999999,972.1839807999995,a,1,0.5125002000004315,轻率,l,1,0.5745753000001059,hxy,f,22,2024_Apr_09_1518,mian,2021.2.3,59.99401259756743,
,,,,,,0,1,pic/flanker6.png,pic/flanker2.png,a,k,pic/AffRest2.png,,,,,,,,,,,,,,,,,,,,,,,,,0,1,1,1,0,70,70,66,,,,975.1677583000001,None,973.9842999000002,975.1843956000002,a,1,0.39120719999937137,瑰丽,k,1,0.6355505000001358,hxy,f,22,2024_Apr_09_1518,mian,2021.2.3,59.99401259756743,
,,,,,,0,1,pic/flanker6.png,pic/flanker2.png,a,k,pic/AffRest2.png,,,,,,,,,,,,,,,,,,,,,,,,,0,1,1,1,0,71,71,34,,,,978.1674820999997,None,976.9843169999995,978.1842435999997,a,1,0.35517020000042976,羡慕,k,1,0.45004880000033154,hxy,f,22,2024_Apr_09_1518,mian,2021.2.3,59.99401259756743,
,,,,,,0,1,pic/flanker6.png,pic/flanker2.png,a,k,pic/AffRest2.png,,,,,,,,,,,,,,,,,,,,,,,,,0,1,1,1,0,72,72,18,,,,980.8010653000001,None,979.6176239999995,980.8178152999999,a,1,0.3071962000003623,典雅,k,1,0.46977090000018507,hxy,f,22,2024_Apr_09_1518,mian,2021.2.3,59.99401259756743,
,,,,,,0,1,pic/flanker5.png,pic/flanker1.png,s,k,pic/AffRest2.png,,,,,,,,,,,,,,,,,,,,,,,,,0,1,1,1,0,73,73,0,,,,983.4342595999997,None,982.2506766999995,983.4509851000003,s,1,0.46744350000062695,敬佩,k,1,0.6329598000002079,hxy,f,22,2024_Apr_09_1518,mian,2021.2.3,59.99401259756743,
,,,,,,1,1,pic/flanker5.png,pic/flanker3.png,a,k,pic/AffRest2.png,,,,,,,,,,,,,,,,,,,,,,,,,0,1,1,1,0,74,74,20,,,,986.5009635999995,None,985.3173894000001,986.5175718999999,a,1,0.5485004000001936,爽朗,k,1,0.500164300000506,hxy,f,22,2024_Apr_09_1518,mian,2021.2.3,59.99401259756743,
,,,,,,0,1,pic/flanker5.png,pic/flanker1.png,s,k,pic/AffRest2.png,,,,,,,,,,,,,,,,,,,,,,,,,0,1,1,1,0,75,75,40,,,,989.5510490999995,None,988.3678178999999,989.5677335999999,s,1,0.5181747000005998,珍藏,k,1,0.4566322000000582,hxy,f,22,2024_Apr_09_1518,mian,2021.2.3,59.99401259756743,
,,,,,,1,0,pic/flanker6.png,pic/flanker4.png,s,l,pic/AffRest2.png,,,,,,,,,,,,,,,,,,,,,,,,,0,1,1,1,0,76,76,5,,,,992.6009851999997,None,991.4171116999996,992.6176250999997,a,0,0.23017329999947833,禁止,l,1,0.8196043999996618,hxy,f,22,2024_Apr_09_1518,mian,2021.2.3,59.99401259756743,
,,,,,,1,1,pic/flanker6.png,pic/flanker4.png,s,k,pic/AffRest2.png,,,,,,,,,,,,,,,,,,,,,,,,,0,1,1,1,0,77,77,78,,,,995.5511048999997,None,994.3676624999998,995.5677211000002,s,1,0.644981700000244,畅销,k,1,0.5567298000005394,hxy,f,22,2024_Apr_09_1518,mian,2021.2.3,59.99401259756743,
,,,,,,0,1,pic/flanker5.png,pic/flanker1.png,s,k,pic/AffRest2.png,,,,,,,,,,,,,,,,,,,,,,,,,0,1,1,1,0,78,78,72,,,,998.6843781999996,None,997.5009271999998,998.7010707999998,s,1,0.39565119999952003,前进,k,1,0.5536310999996203,hxy,f,22,2024_Apr_09_1518,mian,2021.2.3,59.99401259756743,
,,,,,,0,1,pic/flanker6.png,pic/flanker2.png,a,k,pic/AffRest2.png,,,,,,,,,,,,,,,,,,,,,,,,,0,1,1,1,0,79,79,26,,,,1001.5510617999998,None,1000.3676245999995,1001.5678631999999,a,1,0.44903379999959725,诚恳,k,1,0.5509834999993473,hxy,f,22,2024_Apr_09_1518,mian,2021.2.3,59.99401259756743,
,,,,,,,,,,,,pic/AffRest2.png,,,,,,,,,,,,,,,,,,,,,,,,,0,1,1,1,,,,,,,,,,,,,,,,,,,hxy,f,22,2024_Apr_09_1518,mian,2021.2.3,59.99401259756743,
,,,,,,0,0,pic/flanker6.png,pic/flanker2.png,a,l,pic/AffRest3.png,,,,,,,,,,,,,,,,,,,,,,,,,0,2,2,2,0,0,0,17,,,,1021.1008301000002,None,1019.9010582000001,1021.1008301000002,a,1,0.44664300000022195,沮丧,l,1,0.5374373000004198,hxy,f,22,2024_Apr_09_1518,mian,2021.2.3,59.99401259756743,
,,,,,,1,0,pic/flanker5.png,pic/flanker3.png,a,l,pic/AffRest3.png,,,,,,,,,,,,,,,,,,,,,,,,,0,2,2,2,0,1,1,79,,,,1024.0010426,None,1022.8177094000002,1024.0176651000002,a,1,0.4492763999996896,别扭,l,1,0.4561732000001939,hxy,f,22,2024_Apr_09_1518,mian,2021.2.3,59.99401259756743,
,,,,,,0,1,pic/flanker5.png,pic/flanker1.png,s,k,pic/AffRest3.png,,,,,,,,,,,,,,,,,,,,,,,,,0,2,2,2,0,2,2,8,,,,1026.9178362000002,None,1025.7343424,1026.9344001999998,s,1,0.4060341000003973,廉洁,k,1,0.5586298000007446,hxy,f,22,2024_Apr_09_1518,mian,2021.2.3,59.99401259756743,
,,,,,,1,1,pic/flanker5.png,pic/flanker3.png,a,k,pic/AffRest3.png,,,,,,,,,,,,,,,,,,,,,,,,,0,2,2,2,0,3,3,68,,,,1029.9176914,None,1028.7342481999995,1029.9343136999996,a,1,0.4780831999996735,享受,k,1,0.48257079999984853,hxy,f,22,2024_Apr_09_1518,mian,2021.2.3,59.99401259756743,
,,,,,,1,0,pic/flanker6.png,pic/flanker4.png,s,l,pic/AffRest3.png,,,,,,,,,,,,,,,,,,,,,,,,,0,2,2,2,0,4,4,77,,,,1032.9344346999997,None,1031.7510879000001,1032.9510926000003,s,1,0.6084571999999753,冷笑,l,1,0.5760273000005327,hxy,f,22,2024_Apr_09_1518,mian,2021.2.3,59.99401259756743,
,,,,,,0,1,pic/flanker5.png,pic/flanker1.png,s,k,pic/AffRest3.png,,,,,,,,,,,,,,,,,,,,,,,,,0,2,2,2,0,5,5,32,,,,1036.0843164999997,None,1034.9010298000003,1036.1009802999997,s,1,0.43135739999979705,圣洁,k,1,0.4986821000002237,hxy,f,22,2024_Apr_09_1518,mian,2021.2.3,59.99401259756743,
,,,,,,0,1,pic/flanker5.png,pic/flanker1.png,s,k,pic/AffRest3.png,,,,,,,,,,,,,,,,,,,,,,,,,0,2,2,2,0,6,6,16,,,,1039.0011173000003,None,1037.8173568000002,1039.0177753999997,s,1,0.3904565000002549,典雅,k,1,0.5139612000002671,hxy,f,22,2024_Apr_09_1518,mian,2021.2.3,59.99401259756743,
,,,,,,1,0,pic/flanker6.png,pic/flanker4.png,s,l,pic/AffRest3.png,,,,,,,,,,,,,,,,,,,,,,,,,0,2,2,2,0,7,7,29,,,,1041.8675827999996,None,1040.6842568000002,1041.8843275999998,s,1,0.43251320000035776,悲观,k,0,0.3618444999992789,hxy,f,22,2024_Apr_09_1518,mian,2021.2.3,59.99401259756743,
,,,,,,1,0,pic/flanker5.png,pic/flanker3.png,a,l,pic/AffRest3.png,,,,,,,,,,,,,,,,,,,,,,,,,0,2,2,2,0,8,8,23,,,,1044.6011264999997,None,1043.4177176000003,1044.6177281999999,a,1,0.488996799999768,轻率,l,1,0.6528305000001637,hxy,f,22,2024_Apr_09_1518,mian,2021.2.3,59.99401259756743,
,,,,,,1,0,pic/flanker6.png,pic/flanker4.png,s,l,pic/AffRest3.png,,,,,,,,,,,,,,,,,,,,,,,,,0,2,2,2,0,9,9,21,,,,1047.5840209999997,None,1046.4005425999994,1047.6007743,s,1,0.4407776999996713,浪费,l,1,0.6384782999994059,hxy,f,22,2024_Apr_09_1518,mian,2021.2.3,59.99401259756743,
,,,,,,1,0,pic/flanker5.png,pic/flanker3.png,a,l,pic/AffRest3.png,,,,,,,,,,,,,,,,,,,,,,,,,0,2,2,2,0,10,10,15,,,,1050.5676775000002,None,1049.3842241000002,1050.5842369000002,a,1,0.500315899999805,心慌,l,1,0.7981190999998944,hxy,f,22,2024_Apr_09_1518,mian,2021.2.3,59.99401259756743,
,,,,,,1,1,pic/flanker6.png,pic/flanker4.png,s,k,pic/AffRest3.png,,,,,,,,,,,,,,,,,,,,,,,,,0,2,2,2,0,11,11,78,,,,1053.8676869,None,1052.6844203,1053.8843324999998,s,1,0.47939880000012636,俊秀,k,1,0.6548621000001731,hxy,f,22,2024_Apr_09_1518,mian,2021.2.3,59.99401259756743,
,,,,,,1,0,pic/flanker6.png,pic/flanker4.png,s,l,pic/AffRest3.png,,,,,,,,,,,,,,,,,,,,,,,,,0,2,2,2,0,12,12,5,,,,1057.0009760000003,None,1055.8177324999997,1057.0176567999997,s,1,0.41719020000073215,忧虑,l,1,0.5474810000005164,hxy,f,22,2024_Apr_09_1518,mian,2021.2.3,59.99401259756743,
,,,,,,0,0,pic/flanker5.png,pic/flanker1.png,s,l,pic/AffRest3.png,,,,,,,,,,,,,,,,,,,,,,,,,0,2,2,2,0,13,13,51,,,,1059.9677260999997,None,1058.7843972,1059.9836685999999,s,1,0.4219454999993104,胡涂,l,1,0.5950766999994812,hxy,f,22,2024_Apr_09_1518,mian,2021.2.3,59.99401259756743,
,,,,,,1,1,pic/flanker5.png,pic/flanker3.png,a,k,pic/AffRest3.png,,,,,,,,,,,,,,,,,,,,,,,,,0,2,2,2,0,14,14,52,,,,1062.8336794999996,None,1061.6502466000002,1062.8504849,a,1,0.4400626000006014,生动,k,1,0.7746827000000849,hxy,f,22,2024_Apr_09_1518,mian,2021.2.3,59.99401259756743,
,,,,,,0,0,pic/flanker6.png,pic/flanker2.png,a,l,pic/AffRest3.png,,,,,,,,,,,,,,,,,,,,,,,,,0,2,2,2,0,15,15,49,,,,1066.0843049999994,None,1064.9010626999998,1066.1009838999998,a,1,0.48867299999983516,撒谎,l,1,0.5495469999996203,hxy,f,22,2024_Apr_09_1518,mian,2021.2.3,59.99401259756743,
,,,,,,0,0,pic/flanker6.png,pic/flanker2.png,a,l,pic/AffRest3.png,,,,,,,,,,,,,,,,,,,,,,,,,0,2,2,2,0,16,16,41,,,,1069.1177944,None,1067.9343854999997,1069.1344072000002,a,1,0.36598919999960344,怀疑,l,1,0.5773707999996986,hxy,f,22,2024_Apr_09_1518,mian,2021.2.3,59.99401259756743,
,,,,,,1,1,pic/flanker5.png,pic/flanker3.png,a,k,pic/AffRest3.png,,,,,,,,,,,,,,,,,,,,,,,,,0,2,2,2,0,17,17,36,,,,1072.0509688000002,None,1070.8677360000001,1072.0676281999995,a,1,0.7005493000006027,奉献,k,1,0.7166182000000845,hxy,f,22,2024_Apr_09_1518,mian,2021.2.3,59.99401259756743,
,,,,,,1,1,pic/flanker5.png,pic/flanker3.png,a,k,pic/AffRest3.png,,,,,,,,,,,,,,,,,,,,,,,,,0,2,2,2,0,18,18,12,,,,1075.3510987,None,1074.1677602,1075.3677576999999,a,1,0.5153476999994382,瑰丽,k,1,0.6252144000000044,hxy,f,22,2024_Apr_09_1518,mian,2021.2.3,59.99401259756743,
,,,,,,0,1,pic/flanker6.png,pic/flanker2.png,a,k,pic/AffRest3.png,,,,,,,,,,,,,,,,,,,,,,,,,0,2,2,2,0,19,19,42,,,,1078.4344142999998,None,1077.2510867,1078.4511038,a,1,0.3886004000005414,充裕,k,1,0.8578114000001733,hxy,f,22,2024_Apr_09_1518,mian,2021.2.3,59.99401259756743,
,,,,,,1,1,pic/flanker5.png,pic/flanker3.png,a,k,pic/AffRest3.png,,,,,,,,,,,,,,,,,,,,,,,,,0,2,2,2,0,20,20,4,,,,1081.7172629999995,None,1080.5335761999995,1081.7339013,a,1,0.42703200000050856,鲜艳,k,1,0.579928000000109,hxy,f,22,2024_Apr_09_1518,mian,2021.2.3,59.99401259756743,
,,,,,,0,0,pic/flanker6.png,pic/flanker2.png,a,l,pic/AffRest3.png,,,,,,,,,,,,,,,,,,,,,,,,,0,2,2,2,0,21,21,25,,,,1084.6509379,None,1083.4671951999999,1084.6675655,a,1,0.41639690000010887,损害,l,1,0.5542228999993313,hxy,f,22,2024_Apr_09_1518,mian,2021.2.3,59.99401259756743,
,,,,,,1,0,pic/flanker5.png,pic/flanker3.png,a,l,pic/AffRest3.png,,,,,,,,,,,,,,,,,,,,,,,,,0,2,2,2,0,22,22,71,,,,1087.6510775999996,None,1086.4675359000003,1087.6677702999996,a,1,0.7019888999993782,嘲笑,l,1,0.5659873999993579,hxy,f,22,2024_Apr_09_1518,mian,2021.2.3,59.99401259756743,
,,,,,,1,0,pic/flanker6.png,pic/flanker4.png,s,l,pic/AffRest3.png,,,,,,,,,,,,,,,,,,,,,,,,,0,2,2,2,0,23,23,61,,,,1090.7842138999995,None,1089.6009036999994,1090.8009937999996,s,1,0.7561800000003132,烦恼,l,1,0.5493452000000616,hxy,f,22,2024_Apr_09_1518,mian,2021.2.3,59.99401259756743,
,,,,,,0,0,pic/flanker5.png,pic/flanker1.png,s,l,pic/AffRest3.png,,,,,,,,,,,,,,,,,,,,,,,,,0,2,2,2,0,24,24,3,,,,1093.9677378999995,None,1092.7842764999996,1093.9844168999998,s,1,0.44548289999966073,懒惰,l,1,0.5811052999997628,hxy,f,22,2024_Apr_09_1518,mian,2021.2.3,59.99401259756743,
,,,,,,0,0,pic/flanker5.png,pic/flanker1.png,s,l,pic/AffRest3.png,,,,,,,,,,,,,,,,,,,,,,,,,0,2,2,2,0,25,25,59,,,,1097.0677643,None,1095.8843919,1097.084409,s,1,0.42229979999956413,黑暗,l,1,0.5118931000006341,hxy,f,22,2024_Apr_09_1518,mian,2021.2.3,59.99401259756743,
,,,,,,1,1,pic/flanker5.png,pic/flanker3.png,a,k,pic/AffRest3.png,,,,,,,,,,,,,,,,,,,,,,,,,0,2,2,2,0,26,26,44,,,,1099.9674440999997,None,1098.7836038999994,1099.9840904000002,a,1,0.4294773999999961,爽朗,k,1,0.6180510000003778,hxy,f,22,2024_Apr_09_1518,mian,2021.2.3,59.99401259756743,
,,,,,,1,1,pic/flanker6.png,pic/flanker4.png,s,k,pic/AffRest3.png,,,,,,,,,,,,,,,,,,,,,,,,,0,2,2,2,0,27,27,70,,,,1102.8844529999997,None,1101.7008645999995,1102.9011064999995,s,1,0.43091370000001916,富丽,k,1,0.637090199999875,hxy,f,22,2024_Apr_09_1518,mian,2021.2.3,59.99401259756743,
,,,,,,0,0,pic/flanker5.png,pic/flanker1.png,s,l,pic/AffRest3.png,,,,,,,,,,,,,,,,,,,,,,,,,0,2,2,2,0,28,28,11,,,,1105.9176267000003,None,1104.7342265999996,1105.9343059000003,s,1,0.7107874000002994,罚款,l,1,0.5359293999999863,hxy,f,22,2024_Apr_09_1518,mian,2021.2.3,59.99401259756743,
,,,,,,1,1,pic/flanker6.png,pic/flanker4.png,s,k,pic/AffRest3.png,,,,,,,,,,,,,,,,,,,,,,,,,0,2,2,2,0,29,29,46,,,,1109.0508386000001,None,1107.8672566999994,1109.0677188999998,s,1,0.7814416999999594,优雅,k,1,0.5447541999992609,hxy,f,22,2024_Apr_09_1518,mian,2021.2.3,59.99401259756743,
,,,,,,0,0,pic/flanker6.png,pic/flanker2.png,a,l,pic/AffRest3.png,,,,,,,,,,,,,,,,,,,,,,,,,0,2,2,2,0,30,30,73,,,,1112.4340739,None,1111.2503159999997,1112.4507692999996,a,1,0.3744011999997383,假冒,l,1,0.6527955000001384,hxy,f,22,2024_Apr_09_1518,mian,2021.2.3,59.99401259756743,
,,,,,,1,0,pic/flanker5.png,pic/flanker3.png,a,l,pic/AffRest3.png,,,,,,,,,,,,,,,,,,,,,,,,,0,2,2,2,0,31,31,31,,,,1115.3844479,None,1114.2010444999996,1115.4010890999998,a,1,0.6607069000001502,落后,l,1,1.0696605999992244,hxy,f,22,2024_Apr_09_1518,mian,2021.2.3,59.99401259756743,
,,,,,,1,0,pic/flanker5.png,pic/flanker3.png,a,l,pic/AffRest3.png,,,,,,,,,,,,,,,,,,,,,,,,,0,2,2,2,0,32,32,47,,,,1119.1844398000003,None,1118.0009246,1119.2010515000002,a,1,0.4651990000002115,孤单,l,1,0.5361158999994586,hxy,f,22,2024_Apr_09_1518,mian,2021.2.3,59.99401259756743,
,,,,,,0,0,pic/flanker6.png,pic/flanker2.png,a,l,pic/AffRest3.png,,,,,,,,,,,,,,,,,,,,,,,,,0,2,2,2,0,33,33,65,,,,1122.1007978999996,None,1120.9176222999995,1122.1178908000002,a,1,0.4466149999998379,逃避,l,1,0.6993169999996098,hxy,f,22,2024_Apr_09_1518,mian,2021.2.3,59.99401259756743,
,,,,,,0,1,pic/flanker5.png,pic/flanker1.png,s,k,pic/AffRest3.png,,,,,,,,,,,,,,,,,,,,,,,,,0,2,2,2,0,34,34,48,,,,1125.2836271999995,None,1124.1009718999994,1125.3011465999998,s,1,0.4904249000001073,卓越,k,1,0.6612879000003886,hxy,f,22,2024_Apr_09_1518,mian,2021.2.3,59.99401259756743,
,,,,,,0,1,pic/flanker5.png,pic/flanker1.png,s,k,pic/AffRest3.png,,,,,,,,,,,,,,,,,,,,,,,,,0,2,2,2,0,35,35,72,,,,1128.3175105,None,1127.1344180999995,1128.3342474,s,1,0.4317578999998659,畅销,k,1,0.7726129000002402,hxy,f,22,2024_Apr_09_1518,mian,2021.2.3,59.99401259756743,
,,,,,,0,0,pic/flanker6.png,pic/flanker2.png,a,l,pic/AffRest3.png,,,,,,,,,,,,,,,,,,,,,,,,,0,2,2,2,0,36,36,9,,,,1131.4343362999998,None,1130.2510713000001,1131.4509579999994,a,1,0.43225019999954384,闷热,l,1,0.6899619999994684,hxy,f,22,2024_Apr_09_1518,mian,2021.2.3,59.99401259756743,
,,,,,,0,1,pic/flanker6.png,pic/flanker2.png,a,k,pic/AffRest3.png,,,,,,,,,,,,,,,,,,,,,,,,,0,2,2,2,0,37,37,10,,,,1134.4676827000003,None,1133.2842384999994,1134.4844358999999,a,1,0.3259995999997045,公平,k,1,0.6676786999996693,hxy,f,22,2024_Apr_09_1518,mian,2021.2.3,59.99401259756743,
,,,,,,0,0,pic/flanker5.png,pic/flanker1.png,s,l,pic/AffRest3.png,,,,,,,,,,,,,,,,,,,,,,,,,0,2,2,2,0,38,38,27,,,,1137.5343653,None,1136.3509232999995,1137.5510515999995,s,1,0.5050973999996131,厌恶,l,1,0.6549547999993592,hxy,f,22,2024_Apr_09_1518,mian,2021.2.3,59.99401259756743,
,,,,,,1,0,pic/flanker5.png,pic/flanker3.png,a,l,pic/AffRest3.png,,,,,,,,,,,,,,,,,,,,,,,,,0,2,2,2,0,39,39,55,,,,1140.5676695000002,None,1139.3844325,1140.5844286000001,a,1,0.7109998000005362,争吵,l,1,0.5824399999992238,hxy,f,22,2024_Apr_09_1518,mian,2021.2.3,59.99401259756743,
,,,,,,1,1,pic/flanker6.png,pic/flanker4.png,s,k,pic/AffRest3.png,,,,,,,,,,,,,,,,,,,,,,,,,0,2,2,2,0,40,40,6,,,,1143.7844409999998,None,1142.6008814999996,1143.8011213999998,s,1,0.5441614000001209,富足,k,1,0.5868594000003213,hxy,f,22,2024_Apr_09_1518,mian,2021.2.3,59.99401259756743,
,,,,,,0,1,pic/flanker6.png,pic/flanker2.png,a,k,pic/AffRest3.png,,,,,,,,,,,,,,,,,,,,,,,,,0,2,2,2,0,41,41,50,,,,1146.7842812,None,1145.6010733000003,1146.8009661999995,a,1,0.3647471999993286,如愿,k,1,0.6908941000001505,hxy,f,22,2024_Apr_09_1518,mian,2021.2.3,59.99401259756743,
,,,,,,1,0,pic/flanker6.png,pic/flanker4.png,s,l,pic/AffRest3.png,,,,,,,,,,,,,,,,,,,,,,,,,0,2,2,2,0,42,42,13,,,,1149.9177843999996,None,1148.7342188000002,1149.9344603999998,s,1,0.5194604999996955,焦躁,l,1,0.5695161999992706,hxy,f,22,2024_Apr_09_1518,mian,2021.2.3,59.99401259756743,
,,,,,,1,0,pic/flanker6.png,pic/flanker4.png,s,l,pic/AffRest3.png,,,,,,,,,,,,,,,,,,,,,,,,,0,2,2,2,0,43,43,53,,,,1152.9844131999998,None,1151.8009002999997,1153.0011157,s,1,0.5149153000002116,鲁莽,l,1,0.6397029999998267,hxy,f,22,2024_Apr_09_1518,mian,2021.2.3,59.99401259756743,
,,,,,,1,1,pic/flanker5.png,pic/flanker3.png,a,k,pic/AffRest3.png,,,,,,,,,,,,,,,,,,,,,,,,,0,2,2,2,0,44,44,20,,,,1156.0509169999996,None,1154.8675885000002,1156.0676603000002,a,1,0.8954736999994566,旺盛,k,1,0.6684575999997833,hxy,f,22,2024_Apr_09_1518,mian,2021.2.3,59.99401259756743,
,,,,,,0,1,pic/flanker6.png,pic/flanker2.png,a,k,pic/AffRest3.png,,,,,,,,,,,,,,,,,,,,,,,,,0,2,2,2,0,45,45,2,,,,1159.4843693000003,None,1158.3010121999996,1159.5009020999996,a,1,0.4582998999994743,热切,k,1,0.7844367999996393,hxy,f,22,2024_Apr_09_1518,mian,2021.2.3,59.99401259756743,
,,,,,,1,0,pic/flanker5.png,pic/flanker3.png,a,l,pic/AffRest3.png,,,,,,,,,,,,,,,,,,,,,,,,,0,2,2,2,0,46,46,7,,,,1162.5510941000002,None,1161.3677670999996,1162.5677872999995,a,1,0.5294465000006312,处罚,l,1,0.5104585999997653,hxy,f,22,2024_Apr_09_1518,mian,2021.2.3,59.99401259756743,
,,,,,,0,1,pic/flanker6.png,pic/flanker2.png,a,k,pic/AffRest3.png,,,,,,,,,,,,,,,,,,,,,,,,,0,2,2,2,0,47,47,66,,,,1165.5510408,None,1164.3676451000001,1165.5676789,a,1,0.4282199999997829,精致,k,1,0.4892136999997092,hxy,f,22,2024_Apr_09_1518,mian,2021.2.3,59.99401259756743,
,,,,,,1,0,pic/flanker6.png,pic/flanker4.png,s,l,pic/AffRest3.png,,,,,,,,,,,,,,,,,,,,,,,,,0,2,2,2,0,48,48,45,,,,1168.3177192000003,None,1167.1343889999998,1168.3344437999995,s,1,0.7348656000003757,缺乏,l,1,0.5643469000006007,hxy,f,22,2024_Apr_09_1518,mian,2021.2.3,59.99401259756743,
,,,,,,0,1,pic/flanker5.png,pic/flanker1.png,s,k,pic/AffRest3.png,,,,,,,,,,,,,,,,,,,,,,,,,0,2,2,2,0,49,49,0,,,,1171.6844897,None,1170.5011202999995,1171.7010247999997,s,1,0.520414499999788,赞成,k,1,0.4285055000000284,hxy,f,22,2024_Apr_09_1518,mian,2021.2.3,59.99401259756743,
,,,,,,0,1,pic/flanker6.png,pic/flanker2.png,a,k,pic/AffRest3.png,,,,,,,,,,,,,,,,,,,,,,,,,0,2,2,2,0,50,50,34,,,,1174.5010887999997,None,1173.3177518000002,1174.5177756000003,a,1,0.5214398999996774,雄厚,k,1,0.6645192000005409,hxy,f,22,2024_Apr_09_1518,mian,2021.2.3,59.99401259756743,
,,,,,,1,1,pic/flanker6.png,pic/flanker4.png,s,k,pic/AffRest3.png,,,,,,,,,,,,,,,,,,,,,,,,,0,2,2,2,0,51,51,30,,,,1177.7677315,None,1176.5842229999998,1177.7844385999997,s,1,0.4631107000004704,永恒,k,1,0.4817003999996814,hxy,f,22,2024_Apr_09_1518,mian,2021.2.3,59.99401259756743,
,,,,,,1,1,pic/flanker5.png,pic/flanker3.png,a,k,pic/AffRest3.png,,,,,,,,,,,,,,,,,,,,,,,,,0,2,2,2,0,52,52,28,,,,1180.6342969999996,None,1179.4508971999994,1180.6509323,a,1,0.6935549999998329,敬佩,k,1,0.4047651999999289,hxy,f,22,2024_Apr_09_1518,mian,2021.2.3,59.99401259756743,
,,,,,,1,1,pic/flanker5.png,pic/flanker3.png,a,k,pic/AffRest3.png,,,,,,,,,,,,,,,,,,,,,,,,,0,2,2,2,0,53,53,76,,,,1183.5842969999994,None,1182.4009335,1183.6008823000002,a,1,0.4645845000004556,珍藏,k,1,0.525973800000429,hxy,f,22,2024_Apr_09_1518,mian,2021.2.3,59.99401259756743,
,,,,,,0,1,pic/flanker6.png,pic/flanker2.png,a,k,pic/AffRest3.png,,,,,,,,,,,,,,,,,,,,,,,,,0,2,2,2,0,54,54,74,,,,1186.5505682000003,None,1185.3675946000003,1186.5678331,a,1,0.47655720000057045,留恋,k,1,0.46143360000041866,hxy,f,22,2024_Apr_09_1518,mian,2021.2.3,59.99401259756743,
,,,,,,0,1,pic/flanker6.png,pic/flanker2.png,a,k,pic/AffRest3.png,,,,,,,,,,,,,,,,,,,,,,,,,0,2,2,2,0,55,55,26,,,,1189.3676669999995,None,1188.1842750999995,1189.3843052000002,a,1,0.40872120000040013,豪放,k,1,0.47193569999944884,hxy,f,22,2024_Apr_09_1518,mian,2021.2.3,59.99401259756743,
,,,,,,0,0,pic/flanker5.png,pic/flanker1.png,s,l,pic/AffRest3.png,,,,,,,,,,,,,,,,,,,,,,,,,0,2,2,2,0,56,56,43,,,,1192.3005025000002,None,1191.1170634999999,1192.3170934999998,s,1,0.36797369999931107,慌忙,l,1,0.6066998999995121,hxy,f,22,2024_Apr_09_1518,mian,2021.2.3,59.99401259756743,
,,,,,,1,0,pic/flanker5.png,pic/flanker3.png,a,l,pic/AffRest3.png,,,,,,,,,,,,,,,,,,,,,,,,,0,2,2,2,0,57,57,63,,,,1195.1177865999998,None,1193.9344018000002,1195.1344291999994,a,1,0.6150854999996227,杂乱,k,0,0.45059740000033344,hxy,f,22,2024_Apr_09_1518,mian,2021.2.3,59.99401259756743,
,,,,,,1,1,pic/flanker6.png,pic/flanker4.png,s,k,pic/AffRest3.png,,,,,,,,,,,,,,,,,,,,,,,,,0,2,2,2,0,58,58,22,,,,1198.0344785999996,None,1196.8509248999999,1198.0510407000002,s,1,0.5120028000001184,顽强,k,1,0.7325203000000329,hxy,f,22,2024_Apr_09_1518,mian,2021.2.3,59.99401259756743,
,,,,,,0,1,pic/flanker5.png,pic/flanker1.png,s,k,pic/AffRest3.png,,,,,,,,,,,,,,,,,,,,,,,,,0,2,2,2,0,59,59,56,,,,1201.2676143999997,None,1200.0843287999996,1201.2840735999998,s,1,0.41395940000074916,振作,l,0,0.7099071000002368,hxy,f,22,2024_Apr_09_1518,mian,2021.2.3,59.99401259756743,
,,,,,,0,1,pic/flanker5.png,pic/flanker1.png,s,k,pic/AffRest3.png,,,,,,,,,,,,,,,,,,,,,,,,,0,2,2,2,0,60,60,64,,,,1204.2677627000003,None,1203.0844275,1204.2844451,s,1,0.43427789999987,羡慕,k,1,0.46333079999931215,hxy,f,22,2024_Apr_09_1518,mian,2021.2.3,59.99401259756743,
,,,,,,1,1,pic/flanker6.png,pic/flanker4.png,s,k,pic/AffRest3.png,,,,,,,,,,,,,,,,,,,,,,,,,0,2,2,2,0,61,61,54,,,,1207.1678101999996,None,1205.9844114999996,1207.1845173000002,s,1,0.6956013999997595,前进,k,1,0.4419828000000052,hxy,f,22,2024_Apr_09_1518,mian,2021.2.3,59.99401259756743,
,,,,,,1,1,pic/flanker6.png,pic/flanker4.png,s,k,pic/AffRest3.png,,,,,,,,,,,,,,,,,,,,,,,,,0,2,2,2,0,62,62,62,,,,1210.2177747999995,None,1209.0344132999999,1210.2344289000002,s,1,0.46905320000041684,舒畅,k,1,0.4081458000000566,hxy,f,22,2024_Apr_09_1518,mian,2021.2.3,59.99401259756743,
,,,,,,0,1,pic/flanker5.png,pic/flanker1.png,s,k,pic/AffRest3.png,,,,,,,,,,,,,,,,,,,,,,,,,0,2,2,2,0,63,63,40,,,,1213.0677735,None,1211.8844351999996,1213.0844247999994,s,1,0.5589888000004066,清秀,k,1,0.4223215000001801,hxy,f,22,2024_Apr_09_1518,mian,2021.2.3,59.99401259756743,
,,,,,,0,0,pic/flanker6.png,pic/flanker2.png,a,l,pic/AffRest3.png,,,,,,,,,,,,,,,,,,,,,,,,,0,2,2,2,0,64,64,57,,,,1216.0678097999998,None,1214.8843225,1216.0844472999997,a,1,0.5040652999996382,穷苦,k,0,0.35926370000015595,hxy,f,22,2024_Apr_09_1518,mian,2021.2.3,59.99401259756743,
,,,,,,0,1,pic/flanker6.png,pic/flanker2.png,a,k,pic/AffRest3.png,,,,,,,,,,,,,,,,,,,,,,,,,0,2,2,2,0,65,65,58,,,,1218.7843023999994,None,1217.6011223999994,1218.8008820999994,a,1,0.3966584999998304,正直,k,1,0.5286896999996316,hxy,f,22,2024_Apr_09_1518,mian,2021.2.3,59.99401259756743,
,,,,,,1,0,pic/flanker5.png,pic/flanker3.png,a,l,pic/AffRest3.png,,,,,,,,,,,,,,,,,,,,,,,,,0,2,2,2,0,66,66,39,,,,1221.6677639999998,None,1220.4843472000002,1221.6843970999998,a,1,0.5034184000005553,禁止,l,1,0.7686617000008482,hxy,f,22,2024_Apr_09_1518,mian,2021.2.3,59.99401259756743,
,,,,,,1,1,pic/flanker5.png,pic/flanker3.png,a,k,pic/AffRest3.png,,,,,,,,,,,,,,,,,,,,,,,,,0,2,2,2,0,67,67,60,,,,1224.9678197000003,None,1223.7844327000003,1224.9845632999995,a,1,0.6609079999998357,诚恳,k,1,0.5042199999998047,hxy,f,22,2024_Apr_09_1518,mian,2021.2.3,59.99401259756743,
,,,,,,0,0,pic/flanker5.png,pic/flanker1.png,s,l,pic/AffRest3.png,,,,,,,,,,,,,,,,,,,,,,,,,0,2,2,2,0,68,68,75,,,,1228.1843749,None,1227.0007543000002,1228.2005526000003,s,1,0.6799241999997321,丢失,l,1,0.4462107000008473,hxy,f,22,2024_Apr_09_1518,mian,2021.2.3,59.99401259756743,
,,,,,,1,0,pic/flanker6.png,pic/flanker4.png,s,l,pic/AffRest3.png,,,,,,,,,,,,,,,,,,,,,,,,,0,2,2,2,0,69,69,37,,,,1231.2676007999999,None,1230.0845087999996,1231.2842776999996,s,1,0.5295060999997077,堵塞,l,1,0.62100350000037,hxy,f,22,2024_Apr_09_1518,mian,2021.2.3,59.99401259756743,
,,,,,,1,1,pic/flanker6.png,pic/flanker4.png,s,k,pic/AffRest3.png,,,,,,,,,,,,,,,,,,,,,,,,,0,2,2,2,0,70,70,14,,,,1234.3176531999998,None,1233.1344276,1234.3343777,s,1,0.5140542999997706,丰满,k,1,0.6568768999995882,hxy,f,22,2024_Apr_09_1518,mian,2021.2.3,59.99401259756743,
,,,,,,0,0,pic/flanker6.png,pic/flanker2.png,a,l,pic/AffRest3.png,,,,,,,,,,,,,,,,,,,,,,,,,0,2,2,2,0,71,71,1,,,,1237.3508794999998,None,1236.167426,1237.3676930000001,a,1,0.41630179999992833,排斥,l,1,0.5620607999999265,hxy,f,22,2024_Apr_09_1518,mian,2021.2.3,59.99401259756743,
,,,,,,0,1,pic/flanker5.png,pic/flanker1.png,s,k,pic/AffRest3.png,,,,,,,,,,,,,,,,,,,,,,,,,0,2,2,2,0,72,72,24,,,,1240.2510084999994,None,1239.0675542999998,1240.2675338999998,s,1,0.41160429999945336,吉祥,k,1,0.6293458000000101,hxy,f,22,2024_Apr_09_1518,mian,2021.2.3,59.99401259756743,
,,,,,,0,0,pic/flanker5.png,pic/flanker1.png,s,l,pic/AffRest3.png,,,,,,,,,,,,,,,,,,,,,,,,,0,2,2,2,0,73,73,19,,,,1243.2177792000002,None,1242.0343952000003,1243.2345298999999,s,1,0.4934874000000491,伤心,l,1,0.5482623000007152,hxy,f,22,2024_Apr_09_1518,mian,2021.2.3,59.99401259756743,
,,,,,,0,0,pic/flanker5.png,pic/flanker1.png,s,l,pic/AffRest3.png,,,,,,,,,,,,,,,,,,,,,,,,,0,2,2,2,0,74,74,67,,,,1246.1344483000003,None,1244.9510528,1246.1511676999999,s,1,0.36813940000047296,自卑,l,1,0.669951900000342,hxy,f,22,2024_Apr_09_1518,mian,2021.2.3,59.99401259756743,
,,,,,,0,0,pic/flanker5.png,pic/flanker1.png,s,l,pic/AffRest3.png,,,,,,,,,,,,,,,,,,,,,,,,,0,2,2,2,0,75,75,35,,,,1249.2339997999998,None,1248.0502758000002,1249.2506661999996,s,1,0.4038684999995894,消沉,l,1,0.5534215999996377,hxy,f,22,2024_Apr_09_1518,mian,2021.2.3,59.99401259756743,
,,,,,,1,1,pic/flanker6.png,pic/flanker4.png,s,k,pic/AffRest3.png,,,,,,,,,,,,,,,,,,,,,,,,,0,2,2,2,0,76,76,38,,,,1252.2011154000002,None,1251.0176924999996,1252.2177677999998,s,1,0.5051732000001721,有利,k,1,0.519924400000491,hxy,f,22,2024_Apr_09_1518,mian,2021.2.3,59.99401259756743,
,,,,,,1,0,pic/flanker6.png,pic/flanker4.png,s,l,pic/AffRest3.png,,,,,,,,,,,,,,,,,,,,,,,,,0,2,2,2,0,77,77,69,,,,1255.1844419999998,None,1254.0010815999995,1255.2011058999997,s,1,0.5737583000000086,郁闷,l,1,0.4867089000008491,hxy,f,22,2024_Apr_09_1518,mian,2021.2.3,59.99401259756743,
,,,,,,0,0,pic/flanker6.png,pic/flanker2.png,a,l,pic/AffRest3.png,,,,,,,,,,,,,,,,,,,,,,,,,0,2,2,2,0,78,78,33,,,,1258.1175797999995,None,1256.9342387999995,1258.1342828999996,a,1,0.5840055999997276,失意,l,1,0.5597225999999864,hxy,f,22,2024_Apr_09_1518,mian,2021.2.3,59.99401259756743,
,,,,,,0,1,pic/flanker6.png,pic/flanker2.png,a,k,pic/AffRest3.png,,,,,,,,,,,,,,,,,,,,,,,,,0,2,2,2,0,79,79,18,,,,1261.3011042999997,None,1260.1177461999996,1261.3177841999996,a,1,0.41754500000024564,秀丽,k,1,0.6558930000001055,hxy,f,22,2024_Apr_09_1518,mian,2021.2.3,59.99401259756743,
,,,,,,,,,,,,pic/AffRest3.png,,,,,,,,,,,,,,,,,,,,,,,,,0,2,2,2,,,,,,,,,,,,,,,,,,,hxy,f,22,2024_Apr_09_1518,mian,2021.2.3,59.99401259756743,
,,,,,,1,0,pic/flanker6.png,pic/flanker4.png,s,l,pic/EndExp.PNG,,,,,,,,,,,,,,,,,,,,,,,,,0,3,3,3,0,0,0,61,,,,1273.4677893999997,None,1272.2800062999995,1273.4844211999998,s,1,0.41020790000038687,丢失,l,1,0.5348903999993126,hxy,f,22,2024_Apr_09_1518,mian,2021.2.3,59.99401259756743,
