target,反应类型,条件,truetarget,CorAns,Position,congruency,AffValue,flankerPic,targetPic,corAnsF,corAnsA,RestPic,returnPractice.thisRepN,returnPractice.thisTrialN,returnPractice.thisN,returnPractice.thisIndex,pracNum.thisRepN,pracNum.thisTrialN,pracNum.thisN,pracNum.thisIndex,NumBlock1.thisRepN,NumBlock1.thisTrialN,NumBlock1.thisN,NumBlock1.thisIndex,NumBlock2.thisRepN,NumBlock2.thisTrialN,NumBlock2.thisN,NumBlock2.thisIndex,returnPrac.thisRepN,returnPrac.thisTrialN,returnPrac.thisN,returnPrac.thisIndex,PracAff.thisRepN,PracAff.thisTrialN,PracAff.thisN,PracAff.thisIndex,AffBlocks.thisRepN,AffBlocks.thisTrialN,AffBlocks.thisN,AffBlocks.thisIndex,AffBlock1.thisRepN,AffBlock1.thisTrialN,AffBlock1.thisN,AffBlock1.thisIndex,respNum2word.keys,respNum2word.corr,respNum2word.rt,text.started,text.stopped,blank.started,blank.stopped,respFlanker.keys,respFlanker.corr,thisWord,respAffWord.keys,respAffWord.corr,respFlanker.rt,respAffWord.rt,姓名,性别,年龄（周岁）,date,expName,psychopyVersion,frameRate,
2A,1,1,A,a,"[0.2, 0.2]",,,,,,,,0,0,0,0,0,0,0,0,,,,,,,,,,,,,,,,,,,,,,,,,a,1,2.1340042000010726,,,,,,,,,,,,jzh,m,19,2024_Apr_19_1711,mian,2021.2.3,59.89942885911095,
A9,1,2,A,a,"[-0.2, 0.2]",,,,,,,,0,0,0,0,0,1,1,1,,,,,,,,,,,,,,,,,,,,,,,,,l,0,1.3114518000002136,,,,,,,,,,,,jzh,m,19,2024_Apr_19_1711,mian,2021.2.3,59.89942885911095,
7e,2,1,7.0,a,"[-0.2, -0.2]",,,,,,,,0,0,0,0,0,2,2,2,,,,,,,,,,,,,,,,,,,,,,,,,None,0,,,,,,,,,,,,,jzh,m,19,2024_Apr_19_1711,mian,2021.2.3,59.89942885911095,
9H,2,2,9.0,a,"[0.2, -0.2]",,,,,,,,0,0,0,0,0,3,3,3,,,,,,,,,,,,,,,,,,,,,,,,,l,0,1.9176863000011508,,,,,,,,,,,,jzh,m,19,2024_Apr_19_1711,mian,2021.2.3,59.89942885911095,
h4,1,1,h,l,"[0.2, 0.2]",,,,,,,,0,0,0,0,0,4,4,4,,,,,,,,,,,,,,,,,,,,,,,,,l,1,1.1722095000004629,,,,,,,,,,,,jzh,m,19,2024_Apr_19_1711,mian,2021.2.3,59.89942885911095,
4H,1,2,H,a,"[-0.2, 0.2]",,,,,,,,0,0,0,0,0,5,5,5,,,,,,,,,,,,,,,,,,,,,,,,,a,1,1.7591178999991826,,,,,,,,,,,,jzh,m,19,2024_Apr_19_1711,mian,2021.2.3,59.89942885911095,
F8,2,1,8.0,l,"[-0.2, -0.2]",,,,,,,,0,0,0,0,0,6,6,6,,,,,,,,,,,,,,,,,,,,,,,,,l,1,1.9184891000004427,,,,,,,,,,,,jzh,m,19,2024_Apr_19_1711,mian,2021.2.3,59.89942885911095,
h7,2,2,7.0,a,"[0.2, -0.2]",,,,,,,,0,0,0,0,0,7,7,7,,,,,,,,,,,,,,,,,,,,,,,,,a,1,0.6044549000016559,,,,,,,,,,,,jzh,m,19,2024_Apr_19_1711,mian,2021.2.3,59.89942885911095,
5e,1,1,e,l,"[0.2, 0.2]",,,,,,,,0,0,0,0,0,8,8,8,,,,,,,,,,,,,,,,,,,,,,,,,None,0,,,,,,,,,,,,,jzh,m,19,2024_Apr_19_1711,mian,2021.2.3,59.89942885911095,
e8,1,2,e,l,"[-0.2, 0.2]",,,,,,,,0,0,0,0,0,9,9,9,,,,,,,,,,,,,,,,,,,,,,,,,l,1,1.0647657000008621,,,,,,,,,,,,jzh,m,19,2024_Apr_19_1711,mian,2021.2.3,59.89942885911095,
4E,2,1,4.0,l,"[-0.2, -0.2]",,,,,,,,0,0,0,0,0,10,10,10,,,,,,,,,,,,,,,,,,,,,,,,,l,1,3.6250604999986535,,,,,,,,,,,,jzh,m,19,2024_Apr_19_1711,mian,2021.2.3,59.89942885911095,
5H,2,2,5.0,a,"[0.2, -0.2]",,,,,,,,0,0,0,0,0,11,11,11,,,,,,,,,,,,,,,,,,,,,,,,,l,0,0.8394707000006747,,,,,,,,,,,,jzh,m,19,2024_Apr_19_1711,mian,2021.2.3,59.89942885911095,
9E,1,1,E,a,"[0.2, 0.2]",,,,,,,,0,0,0,0,0,12,12,12,,,,,,,,,,,,,,,,,,,,,,,,,l,0,0.8317232999997941,,,,,,,,,,,,jzh,m,19,2024_Apr_19_1711,mian,2021.2.3,59.89942885911095,
h9,1,2,h,l,"[-0.2, 0.2]",,,,,,,,0,0,0,0,0,13,13,13,,,,,,,,,,,,,,,,,,,,,,,,,l,1,0.7439919000007649,,,,,,,,,,,,jzh,m,19,2024_Apr_19_1711,mian,2021.2.3,59.89942885911095,
2a,2,1,2.0,l,"[-0.2, -0.2]",,,,,,,,0,0,0,0,0,14,14,14,,,,,,,,,,,,,,,,,,,,,,,,,a,0,0.613262400000167,,,,,,,,,,,,jzh,m,19,2024_Apr_19_1711,mian,2021.2.3,59.89942885911095,
e5,2,2,5.0,a,"[0.2, -0.2]",,,,,,,,0,0,0,0,0,15,15,15,,,,,,,,,,,,,,,,,,,,,,,,,a,1,0.5749805000014021,,,,,,,,,,,,jzh,m,19,2024_Apr_19_1711,mian,2021.2.3,59.89942885911095,
A5,1,1,A,a,"[0.2, 0.2]",,,,,,,,0,0,0,0,0,16,16,16,,,,,,,,,,,,,,,,,,,,,,,,,l,0,1.0070254000002024,,,,,,,,,,,,jzh,m,19,2024_Apr_19_1711,mian,2021.2.3,59.89942885911095,
a6,1,2,a,l,"[-0.2, 0.2]",,,,,,,,0,0,0,0,0,17,17,17,,,,,,,,,,,,,,,,,,,,,,,,,l,1,1.255452499999592,,,,,,,,,,,,jzh,m,19,2024_Apr_19_1711,mian,2021.2.3,59.89942885911095,
2F,2,1,2.0,l,"[-0.2, -0.2]",,,,,,,,0,0,0,0,0,18,18,18,,,,,,,,,,,,,,,,,,,,,,,,,a,0,0.49278469999990193,,,,,,,,,,,,jzh,m,19,2024_Apr_19_1711,mian,2021.2.3,59.89942885911095,
e4,2,2,4.0,l,"[0.2, -0.2]",,,,,,,,0,0,0,0,0,19,19,19,,,,,,,,,,,,,,,,,,,,,,,,,l,1,0.2941516999999294,,,,,,,,,,,,jzh,m,19,2024_Apr_19_1711,mian,2021.2.3,59.89942885911095,
,,,,,,,,,,,,,0,0,0,0,,,,,,,,,,,,,,,,,,,,,,,,,,,,,,,,,,,,,,,,,,,jzh,m,19,2024_Apr_19_1711,mian,2021.2.3,59.89942885911095,
2A,1,1,A,a,"[0.2, 0.2]",,,,,,,,1,0,1,0,0,0,0,0,,,,,,,,,,,,,,,,,,,,,,,,,a,1,0.9625492000013764,,,,,,,,,,,,jzh,m,19,2024_Apr_19_1711,mian,2021.2.3,59.89942885911095,
A9,1,2,A,a,"[-0.2, 0.2]",,,,,,,,1,0,1,0,0,1,1,1,,,,,,,,,,,,,,,,,,,,,,,,,a,1,0.5715807999986282,,,,,,,,,,,,jzh,m,19,2024_Apr_19_1711,mian,2021.2.3,59.89942885911095,
7e,2,1,7.0,a,"[-0.2, -0.2]",,,,,,,,1,0,1,0,0,2,2,2,,,,,,,,,,,,,,,,,,,,,,,,,a,1,1.8398997000003874,,,,,,,,,,,,jzh,m,19,2024_Apr_19_1711,mian,2021.2.3,59.89942885911095,
9H,2,2,9.0,a,"[0.2, -0.2]",,,,,,,,1,0,1,0,0,3,3,3,,,,,,,,,,,,,,,,,,,,,,,,,a,1,0.6711710999989009,,,,,,,,,,,,jzh,m,19,2024_Apr_19_1711,mian,2021.2.3,59.89942885911095,
h4,1,1,h,l,"[0.2, 0.2]",,,,,,,,1,0,1,0,0,4,4,4,,,,,,,,,,,,,,,,,,,,,,,,,l,1,0.9108393999995315,,,,,,,,,,,,jzh,m,19,2024_Apr_19_1711,mian,2021.2.3,59.89942885911095,
4H,1,2,H,a,"[-0.2, 0.2]",,,,,,,,1,0,1,0,0,5,5,5,,,,,,,,,,,,,,,,,,,,,,,,,a,1,0.8141135999994731,,,,,,,,,,,,jzh,m,19,2024_Apr_19_1711,mian,2021.2.3,59.89942885911095,
F8,2,1,8.0,l,"[-0.2, -0.2]",,,,,,,,1,0,1,0,0,6,6,6,,,,,,,,,,,,,,,,,,,,,,,,,l,1,1.588379700000587,,,,,,,,,,,,jzh,m,19,2024_Apr_19_1711,mian,2021.2.3,59.89942885911095,
h7,2,2,7.0,a,"[0.2, -0.2]",,,,,,,,1,0,1,0,0,7,7,7,,,,,,,,,,,,,,,,,,,,,,,,,a,1,0.5721836000011535,,,,,,,,,,,,jzh,m,19,2024_Apr_19_1711,mian,2021.2.3,59.89942885911095,
5e,1,1,e,l,"[0.2, 0.2]",,,,,,,,1,0,1,0,0,8,8,8,,,,,,,,,,,,,,,,,,,,,,,,,l,1,1.4042802999993,,,,,,,,,,,,jzh,m,19,2024_Apr_19_1711,mian,2021.2.3,59.89942885911095,
e8,1,2,e,l,"[-0.2, 0.2]",,,,,,,,1,0,1,0,0,9,9,9,,,,,,,,,,,,,,,,,,,,,,,,,l,1,0.7899574999992183,,,,,,,,,,,,jzh,m,19,2024_Apr_19_1711,mian,2021.2.3,59.89942885911095,
4E,2,1,4.0,l,"[-0.2, -0.2]",,,,,,,,1,0,1,0,0,10,10,10,,,,,,,,,,,,,,,,,,,,,,,,,a,0,0.7108286999991833,,,,,,,,,,,,jzh,m,19,2024_Apr_19_1711,mian,2021.2.3,59.89942885911095,
5H,2,2,5.0,a,"[0.2, -0.2]",,,,,,,,1,0,1,0,0,11,11,11,,,,,,,,,,,,,,,,,,,,,,,,,a,1,0.9711676000006264,,,,,,,,,,,,jzh,m,19,2024_Apr_19_1711,mian,2021.2.3,59.89942885911095,
9E,1,1,E,a,"[0.2, 0.2]",,,,,,,,1,0,1,0,0,12,12,12,,,,,,,,,,,,,,,,,,,,,,,,,a,1,1.288862400000653,,,,,,,,,,,,jzh,m,19,2024_Apr_19_1711,mian,2021.2.3,59.89942885911095,
h9,1,2,h,l,"[-0.2, 0.2]",,,,,,,,1,0,1,0,0,13,13,13,,,,,,,,,,,,,,,,,,,,,,,,,l,1,0.542888199999652,,,,,,,,,,,,jzh,m,19,2024_Apr_19_1711,mian,2021.2.3,59.89942885911095,
2a,2,1,2.0,l,"[-0.2, -0.2]",,,,,,,,1,0,1,0,0,14,14,14,,,,,,,,,,,,,,,,,,,,,,,,,l,1,2.75563449999936,,,,,,,,,,,,jzh,m,19,2024_Apr_19_1711,mian,2021.2.3,59.89942885911095,
e5,2,2,5.0,a,"[0.2, -0.2]",,,,,,,,1,0,1,0,0,15,15,15,,,,,,,,,,,,,,,,,,,,,,,,,a,1,2.0685788999999204,,,,,,,,,,,,jzh,m,19,2024_Apr_19_1711,mian,2021.2.3,59.89942885911095,
A5,1,1,A,a,"[0.2, 0.2]",,,,,,,,1,0,1,0,0,16,16,16,,,,,,,,,,,,,,,,,,,,,,,,,a,1,1.1177277999995567,,,,,,,,,,,,jzh,m,19,2024_Apr_19_1711,mian,2021.2.3,59.89942885911095,
a6,1,2,a,l,"[-0.2, 0.2]",,,,,,,,1,0,1,0,0,17,17,17,,,,,,,,,,,,,,,,,,,,,,,,,a,0,0.6029859999998735,,,,,,,,,,,,jzh,m,19,2024_Apr_19_1711,mian,2021.2.3,59.89942885911095,
2F,2,1,2.0,l,"[-0.2, -0.2]",,,,,,,,1,0,1,0,0,18,18,18,,,,,,,,,,,,,,,,,,,,,,,,,l,1,1.3421723999999813,,,,,,,,,,,,jzh,m,19,2024_Apr_19_1711,mian,2021.2.3,59.89942885911095,
e4,2,2,4.0,l,"[0.2, -0.2]",,,,,,,,1,0,1,0,0,19,19,19,,,,,,,,,,,,,,,,,,,,,,,,,l,1,0.7537123999991309,,,,,,,,,,,,jzh,m,19,2024_Apr_19_1711,mian,2021.2.3,59.89942885911095,
,,,,,,,,,,,,,1,0,1,0,,,,,,,,,,,,,,,,,,,,,,,,,,,,,,,,,,,,,,,,,,,jzh,m,19,2024_Apr_19_1711,mian,2021.2.3,59.89942885911095,
7h,1,1,h,l,"[0.2, 0.2]",,,,,,,,,,,,,,,,0,0,0,0,,,,,,,,,,,,,,,,,,,,,l,1,0.780432200001087,,,,,,,,,,,,jzh,m,19,2024_Apr_19_1711,mian,2021.2.3,59.89942885911095,
8F,1,2,F,a,"[-0.2, 0.2]",,,,,,,,,,,,,,,,0,1,1,1,,,,,,,,,,,,,,,,,,,,,a,1,0.7091082999995706,,,,,,,,,,,,jzh,m,19,2024_Apr_19_1711,mian,2021.2.3,59.89942885911095,
8h,2,1,8.0,l,"[-0.2, -0.2]",,,,,,,,,,,,,,,,0,2,2,2,,,,,,,,,,,,,,,,,,,,,l,1,1.2022602999986702,,,,,,,,,,,,jzh,m,19,2024_Apr_19_1711,mian,2021.2.3,59.89942885911095,
a2,2,2,2.0,l,"[0.2, -0.2]",,,,,,,,,,,,,,,,0,3,3,3,,,,,,,,,,,,,,,,,,,,,l,1,1.2133563999996113,,,,,,,,,,,,jzh,m,19,2024_Apr_19_1711,mian,2021.2.3,59.89942885911095,
8f,1,1,f,l,"[0.2, 0.2]",,,,,,,,,,,,,,,,0,4,4,4,,,,,,,,,,,,,,,,,,,,,l,1,0.8150740999990376,,,,,,,,,,,,jzh,m,19,2024_Apr_19_1711,mian,2021.2.3,59.89942885911095,
6a,1,2,a,l,"[-0.2, 0.2]",,,,,,,,,,,,,,,,0,5,5,5,,,,,,,,,,,,,,,,,,,,,l,1,0.7057222000003094,,,,,,,,,,,,jzh,m,19,2024_Apr_19_1711,mian,2021.2.3,59.89942885911095,
h6,2,1,6.0,l,"[-0.2, -0.2]",,,,,,,,,,,,,,,,0,6,6,6,,,,,,,,,,,,,,,,,,,,,a,0,0.9213108999992983,,,,,,,,,,,,jzh,m,19,2024_Apr_19_1711,mian,2021.2.3,59.89942885911095,
f9,2,2,9.0,a,"[0.2, -0.2]",,,,,,,,,,,,,,,,0,7,7,7,,,,,,,,,,,,,,,,,,,,,a,1,0.6082375000005413,,,,,,,,,,,,jzh,m,19,2024_Apr_19_1711,mian,2021.2.3,59.89942885911095,
E4,1,1,E,a,"[0.2, 0.2]",,,,,,,,,,,,,,,,0,8,8,8,,,,,,,,,,,,,,,,,,,,,a,1,1.1170844000007492,,,,,,,,,,,,jzh,m,19,2024_Apr_19_1711,mian,2021.2.3,59.89942885911095,
6e,1,2,e,l,"[-0.2, 0.2]",,,,,,,,,,,,,,,,0,9,9,9,,,,,,,,,,,,,,,,,,,,,l,1,0.5838075000010576,,,,,,,,,,,,jzh,m,19,2024_Apr_19_1711,mian,2021.2.3,59.89942885911095,
5G,2,1,5.0,a,"[-0.2, -0.2]",,,,,,,,,,,,,,,,0,10,10,10,,,,,,,,,,,,,,,,,,,,,a,1,1.5010115999994014,,,,,,,,,,,,jzh,m,19,2024_Apr_19_1711,mian,2021.2.3,59.89942885911095,
h3,2,2,3.0,a,"[0.2, -0.2]",,,,,,,,,,,,,,,,0,11,11,11,,,,,,,,,,,,,,,,,,,,,a,1,0.617334500000652,,,,,,,,,,,,jzh,m,19,2024_Apr_19_1711,mian,2021.2.3,59.89942885911095,
9e,1,1,e,l,"[0.2, 0.2]",,,,,,,,,,,,,,,,0,12,12,12,,,,,,,,,,,,,,,,,,,,,l,1,3.03594510000039,,,,,,,,,,,,jzh,m,19,2024_Apr_19_1711,mian,2021.2.3,59.89942885911095,
a8,1,2,a,l,"[-0.2, 0.2]",,,,,,,,,,,,,,,,0,13,13,13,,,,,,,,,,,,,,,,,,,,,l,1,0.6586286000001564,,,,,,,,,,,,jzh,m,19,2024_Apr_19_1711,mian,2021.2.3,59.89942885911095,
e8,2,1,8.0,l,"[-0.2, -0.2]",,,,,,,,,,,,,,,,0,14,14,14,,,,,,,,,,,,,,,,,,,,,l,1,0.8528903000005812,,,,,,,,,,,,jzh,m,19,2024_Apr_19_1711,mian,2021.2.3,59.89942885911095,
3f,2,2,3.0,a,"[0.2, -0.2]",,,,,,,,,,,,,,,,0,15,15,15,,,,,,,,,,,,,,,,,,,,,a,1,1.7595481999996991,,,,,,,,,,,,jzh,m,19,2024_Apr_19_1711,mian,2021.2.3,59.89942885911095,
7f,1,1,f,l,"[0.2, 0.2]",,,,,,,,,,,,,,,,0,16,16,16,,,,,,,,,,,,,,,,,,,,,l,1,1.5970865000017511,,,,,,,,,,,,jzh,m,19,2024_Apr_19_1711,mian,2021.2.3,59.89942885911095,
a7,1,2,a,l,"[-0.2, 0.2]",,,,,,,,,,,,,,,,0,17,17,17,,,,,,,,,,,,,,,,,,,,,l,1,0.7923209000000497,,,,,,,,,,,,jzh,m,19,2024_Apr_19_1711,mian,2021.2.3,59.89942885911095,
5A,2,1,5.0,a,"[-0.2, -0.2]",,,,,,,,,,,,,,,,0,18,18,18,,,,,,,,,,,,,,,,,,,,,a,1,1.3065630000000965,,,,,,,,,,,,jzh,m,19,2024_Apr_19_1711,mian,2021.2.3,59.89942885911095,
8g,2,2,8.0,l,"[0.2, -0.2]",,,,,,,,,,,,,,,,0,19,19,19,,,,,,,,,,,,,,,,,,,,,l,1,0.6065371999993658,,,,,,,,,,,,jzh,m,19,2024_Apr_19_1711,mian,2021.2.3,59.89942885911095,
9a,1,1,a,l,"[0.2, 0.2]",,,,,,,,,,,,,,,,0,20,20,20,,,,,,,,,,,,,,,,,,,,,l,1,1.5462504999995872,,,,,,,,,,,,jzh,m,19,2024_Apr_19_1711,mian,2021.2.3,59.89942885911095,
f7,1,2,f,l,"[-0.2, 0.2]",,,,,,,,,,,,,,,,0,21,21,21,,,,,,,,,,,,,,,,,,,,,l,1,1.1020153999998001,,,,,,,,,,,,jzh,m,19,2024_Apr_19_1711,mian,2021.2.3,59.89942885911095,
g9,2,1,9.0,a,"[-0.2, -0.2]",,,,,,,,,,,,,,,,0,22,22,22,,,,,,,,,,,,,,,,,,,,,a,1,1.0034788000011758,,,,,,,,,,,,jzh,m,19,2024_Apr_19_1711,mian,2021.2.3,59.89942885911095,
3h,2,2,3.0,a,"[0.2, -0.2]",,,,,,,,,,,,,,,,0,23,23,23,,,,,,,,,,,,,,,,,,,,,a,1,0.7715788999994402,,,,,,,,,,,,jzh,m,19,2024_Apr_19_1711,mian,2021.2.3,59.89942885911095,
E6,1,1,E,a,"[0.2, 0.2]",,,,,,,,,,,,,,,,0,24,24,24,,,,,,,,,,,,,,,,,,,,,a,1,2.705379699998957,,,,,,,,,,,,jzh,m,19,2024_Apr_19_1711,mian,2021.2.3,59.89942885911095,
F6,1,2,F,a,"[-0.2, 0.2]",,,,,,,,,,,,,,,,0,25,25,25,,,,,,,,,,,,,,,,,,,,,a,1,0.8272043999986636,,,,,,,,,,,,jzh,m,19,2024_Apr_19_1711,mian,2021.2.3,59.89942885911095,
3A,2,1,3.0,a,"[-0.2, -0.2]",,,,,,,,,,,,,,,,0,26,26,26,,,,,,,,,,,,,,,,,,,,,a,1,1.505215399998633,,,,,,,,,,,,jzh,m,19,2024_Apr_19_1711,mian,2021.2.3,59.89942885911095,
8H,2,2,8.0,l,"[0.2, -0.2]",,,,,,,,,,,,,,,,0,27,27,27,,,,,,,,,,,,,,,,,,,,,l,1,1.836091100001795,,,,,,,,,,,,jzh,m,19,2024_Apr_19_1711,mian,2021.2.3,59.89942885911095,
5a,1,1,a,l,"[0.2, 0.2]",,,,,,,,,,,,,,,,0,28,28,28,,,,,,,,,,,,,,,,,,,,,l,1,1.566928000000189,,,,,,,,,,,,jzh,m,19,2024_Apr_19_1711,mian,2021.2.3,59.89942885911095,
2h,1,2,h,l,"[-0.2, 0.2]",,,,,,,,,,,,,,,,0,29,29,29,,,,,,,,,,,,,,,,,,,,,l,1,0.6318071000005148,,,,,,,,,,,,jzh,m,19,2024_Apr_19_1711,mian,2021.2.3,59.89942885911095,
e5,2,1,5.0,a,"[-0.2, -0.2]",,,,,,,,,,,,,,,,0,30,30,30,,,,,,,,,,,,,,,,,,,,,a,1,0.9012228999999934,,,,,,,,,,,,jzh,m,19,2024_Apr_19_1711,mian,2021.2.3,59.89942885911095,
a3,2,2,3.0,a,"[0.2, -0.2]",,,,,,,,,,,,,,,,0,31,31,31,,,,,,,,,,,,,,,,,,,,,a,1,0.5488521000006585,,,,,,,,,,,,jzh,m,19,2024_Apr_19_1711,mian,2021.2.3,59.89942885911095,
f3,1,1,f,l,"[0.2, 0.2]",,,,,,,,,,,,,,,,0,32,32,32,,,,,,,,,,,,,,,,,,,,,l,1,1.1531474999992497,,,,,,,,,,,,jzh,m,19,2024_Apr_19_1711,mian,2021.2.3,59.89942885911095,
2E,1,2,E,a,"[-0.2, 0.2]",,,,,,,,,,,,,,,,0,33,33,33,,,,,,,,,,,,,,,,,,,,,a,1,0.8406039000001329,,,,,,,,,,,,jzh,m,19,2024_Apr_19_1711,mian,2021.2.3,59.89942885911095,
2H,2,1,2.0,l,"[-0.2, -0.2]",,,,,,,,,,,,,,,,0,34,34,34,,,,,,,,,,,,,,,,,,,,,l,1,1.5019757999998546,,,,,,,,,,,,jzh,m,19,2024_Apr_19_1711,mian,2021.2.3,59.89942885911095,
H8,2,2,8.0,l,"[0.2, -0.2]",,,,,,,,,,,,,,,,0,35,35,35,,,,,,,,,,,,,,,,,,,,,a,0,0.74914759999956,,,,,,,,,,,,jzh,m,19,2024_Apr_19_1711,mian,2021.2.3,59.89942885911095,
9g,1,1,g,l,"[0.2, 0.2]",,,,,,,,,,,,,,,,0,36,36,36,,,,,,,,,,,,,,,,,,,,,l,1,1.9684402000002592,,,,,,,,,,,,jzh,m,19,2024_Apr_19_1711,mian,2021.2.3,59.89942885911095,
5h,1,2,h,l,"[-0.2, 0.2]",,,,,,,,,,,,,,,,0,37,37,37,,,,,,,,,,,,,,,,,,,,,l,1,0.45916959999885876,,,,,,,,,,,,jzh,m,19,2024_Apr_19_1711,mian,2021.2.3,59.89942885911095,
e4,2,1,4.0,l,"[-0.2, -0.2]",,,,,,,,,,,,,,,,0,38,38,38,,,,,,,,,,,,,,,,,,,,,a,0,1.1632454999999027,,,,,,,,,,,,jzh,m,19,2024_Apr_19_1711,mian,2021.2.3,59.89942885911095,
9h,2,2,9.0,a,"[0.2, -0.2]",,,,,,,,,,,,,,,,0,39,39,39,,,,,,,,,,,,,,,,,,,,,a,1,0.7015883000003669,,,,,,,,,,,,jzh,m,19,2024_Apr_19_1711,mian,2021.2.3,59.89942885911095,
G3,1,1,G,a,"[0.2, 0.2]",,,,,,,,,,,,,,,,0,40,40,40,,,,,,,,,,,,,,,,,,,,,a,1,1.2608293000012054,,,,,,,,,,,,jzh,m,19,2024_Apr_19_1711,mian,2021.2.3,59.89942885911095,
9A,1,2,A,a,"[-0.2, 0.2]",,,,,,,,,,,,,,,,0,41,41,41,,,,,,,,,,,,,,,,,,,,,a,1,1.2893043000003672,,,,,,,,,,,,jzh,m,19,2024_Apr_19_1711,mian,2021.2.3,59.89942885911095,
H5,2,1,5.0,a,"[-0.2, -0.2]",,,,,,,,,,,,,,,,0,42,42,42,,,,,,,,,,,,,,,,,,,,,a,1,1.2233497999986866,,,,,,,,,,,,jzh,m,19,2024_Apr_19_1711,mian,2021.2.3,59.89942885911095,
4e,2,2,4.0,l,"[0.2, -0.2]",,,,,,,,,,,,,,,,0,43,43,43,,,,,,,,,,,,,,,,,,,,,l,1,1.2273671999992075,,,,,,,,,,,,jzh,m,19,2024_Apr_19_1711,mian,2021.2.3,59.89942885911095,
E2,1,1,E,a,"[0.2, 0.2]",,,,,,,,,,,,,,,,0,44,44,44,,,,,,,,,,,,,,,,,,,,,a,1,1.1984926999994059,,,,,,,,,,,,jzh,m,19,2024_Apr_19_1711,mian,2021.2.3,59.89942885911095,
A5,1,2,A,a,"[-0.2, 0.2]",,,,,,,,,,,,,,,,0,45,45,45,,,,,,,,,,,,,,,,,,,,,a,1,0.45424090000051365,,,,,,,,,,,,jzh,m,19,2024_Apr_19_1711,mian,2021.2.3,59.89942885911095,
2A,2,1,2.0,l,"[-0.2, -0.2]",,,,,,,,,,,,,,,,0,46,46,46,,,,,,,,,,,,,,,,,,,,,l,1,1.356834500000332,,,,,,,,,,,,jzh,m,19,2024_Apr_19_1711,mian,2021.2.3,59.89942885911095,
6G,2,2,6.0,l,"[0.2, -0.2]",,,,,,,,,,,,,,,,0,47,47,47,,,,,,,,,,,,,,,,,,,,,l,1,1.2110422999994626,,,,,,,,,,,,jzh,m,19,2024_Apr_19_1711,mian,2021.2.3,59.89942885911095,
H3,1,1,H,a,"[0.2, 0.2]",,,,,,,,,,,,,,,,0,48,48,48,,,,,,,,,,,,,,,,,,,,,a,1,2.1944218999997247,,,,,,,,,,,,jzh,m,19,2024_Apr_19_1711,mian,2021.2.3,59.89942885911095,
H2,1,2,H,a,"[-0.2, 0.2]",,,,,,,,,,,,,,,,0,49,49,49,,,,,,,,,,,,,,,,,,,,,a,1,0.3876063999996404,,,,,,,,,,,,jzh,m,19,2024_Apr_19_1711,mian,2021.2.3,59.89942885911095,
e9,2,1,9.0,a,"[-0.2, -0.2]",,,,,,,,,,,,,,,,0,50,50,50,,,,,,,,,,,,,,,,,,,,,a,1,1.512172400000054,,,,,,,,,,,,jzh,m,19,2024_Apr_19_1711,mian,2021.2.3,59.89942885911095,
2G,2,2,2.0,l,"[0.2, -0.2]",,,,,,,,,,,,,,,,0,51,51,51,,,,,,,,,,,,,,,,,,,,,a,0,0.7055397999993147,,,,,,,,,,,,jzh,m,19,2024_Apr_19_1711,mian,2021.2.3,59.89942885911095,
4f,1,1,f,l,"[0.2, 0.2]",,,,,,,,,,,,,,,,0,52,52,52,,,,,,,,,,,,,,,,,,,,,l,1,2.880984699999317,,,,,,,,,,,,jzh,m,19,2024_Apr_19_1711,mian,2021.2.3,59.89942885911095,
H6,1,2,H,a,"[-0.2, 0.2]",,,,,,,,,,,,,,,,0,53,53,53,,,,,,,,,,,,,,,,,,,,,a,1,1.3524948000012955,,,,,,,,,,,,jzh,m,19,2024_Apr_19_1711,mian,2021.2.3,59.89942885911095,
A4,2,1,4.0,l,"[-0.2, -0.2]",,,,,,,,,,,,,,,,0,54,54,54,,,,,,,,,,,,,,,,,,,,,l,1,1.224540100000013,,,,,,,,,,,,jzh,m,19,2024_Apr_19_1711,mian,2021.2.3,59.89942885911095,
3F,2,2,3.0,a,"[0.2, -0.2]",,,,,,,,,,,,,,,,0,55,55,55,,,,,,,,,,,,,,,,,,,,,l,0,2.0312157000007574,,,,,,,,,,,,jzh,m,19,2024_Apr_19_1711,mian,2021.2.3,59.89942885911095,
7e,1,1,e,l,"[0.2, 0.2]",,,,,,,,,,,,,,,,0,56,56,56,,,,,,,,,,,,,,,,,,,,,l,1,2.2982574999987264,,,,,,,,,,,,jzh,m,19,2024_Apr_19_1711,mian,2021.2.3,59.89942885911095,
F9,1,2,F,a,"[-0.2, 0.2]",,,,,,,,,,,,,,,,0,57,57,57,,,,,,,,,,,,,,,,,,,,,a,1,0.6966570999993564,,,,,,,,,,,,jzh,m,19,2024_Apr_19_1711,mian,2021.2.3,59.89942885911095,
e2,2,1,2.0,l,"[-0.2, -0.2]",,,,,,,,,,,,,,,,0,58,58,58,,,,,,,,,,,,,,,,,,,,,l,1,1.5718861000004836,,,,,,,,,,,,jzh,m,19,2024_Apr_19_1711,mian,2021.2.3,59.89942885911095,
5F,2,2,5.0,a,"[0.2, -0.2]",,,,,,,,,,,,,,,,0,59,59,59,,,,,,,,,,,,,,,,,,,,,a,1,3.485606199999893,,,,,,,,,,,,jzh,m,19,2024_Apr_19_1711,mian,2021.2.3,59.89942885911095,
f6,1,1,f,l,"[0.2, 0.2]",,,,,,,,,,,,,,,,0,60,60,60,,,,,,,,,,,,,,,,,,,,,l,1,1.1765371000001323,,,,,,,,,,,,jzh,m,19,2024_Apr_19_1711,mian,2021.2.3,59.89942885911095,
7G,1,2,G,a,"[-0.2, 0.2]",,,,,,,,,,,,,,,,0,61,61,61,,,,,,,,,,,,,,,,,,,,,a,1,0.7756703999984893,,,,,,,,,,,,jzh,m,19,2024_Apr_19_1711,mian,2021.2.3,59.89942885911095,
e6,2,1,6.0,l,"[-0.2, -0.2]",,,,,,,,,,,,,,,,0,62,62,62,,,,,,,,,,,,,,,,,,,,,l,1,1.5110155000002123,,,,,,,,,,,,jzh,m,19,2024_Apr_19_1711,mian,2021.2.3,59.89942885911095,
3G,2,2,3.0,a,"[0.2, -0.2]",,,,,,,,,,,,,,,,0,63,63,63,,,,,,,,,,,,,,,,,,,,,a,1,0.7192731000013737,,,,,,,,,,,,jzh,m,19,2024_Apr_19_1711,mian,2021.2.3,59.89942885911095,
5E,1,1,E,a,"[0.2, 0.2]",,,,,,,,,,,,,,,,0,64,64,64,,,,,,,,,,,,,,,,,,,,,a,1,1.105270299998665,,,,,,,,,,,,jzh,m,19,2024_Apr_19_1711,mian,2021.2.3,59.89942885911095,
A6,1,2,A,a,"[-0.2, 0.2]",,,,,,,,,,,,,,,,0,65,65,65,,,,,,,,,,,,,,,,,,,,,l,0,0.5521336000001611,,,,,,,,,,,,jzh,m,19,2024_Apr_19_1711,mian,2021.2.3,59.89942885911095,
E3,2,1,3.0,a,"[-0.2, -0.2]",,,,,,,,,,,,,,,,0,66,66,66,,,,,,,,,,,,,,,,,,,,,a,1,1.0629883000001428,,,,,,,,,,,,jzh,m,19,2024_Apr_19_1711,mian,2021.2.3,59.89942885911095,
2f,2,2,2.0,l,"[0.2, -0.2]",,,,,,,,,,,,,,,,0,67,67,67,,,,,,,,,,,,,,,,,,,,,l,1,0.7890614999996615,,,,,,,,,,,,jzh,m,19,2024_Apr_19_1711,mian,2021.2.3,59.89942885911095,
g3,1,1,g,l,"[0.2, 0.2]",,,,,,,,,,,,,,,,0,68,68,68,,,,,,,,,,,,,,,,,,,,,l,1,1.225811000000249,,,,,,,,,,,,jzh,m,19,2024_Apr_19_1711,mian,2021.2.3,59.89942885911095,
E8,1,2,E,a,"[-0.2, 0.2]",,,,,,,,,,,,,,,,0,69,69,69,,,,,,,,,,,,,,,,,,,,,a,1,0.6804879999999685,,,,,,,,,,,,jzh,m,19,2024_Apr_19_1711,mian,2021.2.3,59.89942885911095,
6g,2,1,6.0,l,"[-0.2, -0.2]",,,,,,,,,,,,,,,,0,70,70,70,,,,,,,,,,,,,,,,,,,,,l,1,0.8974925999991683,,,,,,,,,,,,jzh,m,19,2024_Apr_19_1711,mian,2021.2.3,59.89942885911095,
5H,2,2,5.0,a,"[0.2, -0.2]",,,,,,,,,,,,,,,,0,71,71,71,,,,,,,,,,,,,,,,,,,,,a,1,0.5381087999994634,,,,,,,,,,,,jzh,m,19,2024_Apr_19_1711,mian,2021.2.3,59.89942885911095,
4A,1,1,A,a,"[0.2, 0.2]",,,,,,,,,,,,,,,,0,72,72,72,,,,,,,,,,,,,,,,,,,,,a,1,0.6188600000004953,,,,,,,,,,,,jzh,m,19,2024_Apr_19_1711,mian,2021.2.3,59.89942885911095,
7F,1,2,F,a,"[-0.2, 0.2]",,,,,,,,,,,,,,,,0,73,73,73,,,,,,,,,,,,,,,,,,,,,a,1,1.3457104000008258,,,,,,,,,,,,jzh,m,19,2024_Apr_19_1711,mian,2021.2.3,59.89942885911095,
6H,2,1,6.0,l,"[-0.2, -0.2]",,,,,,,,,,,,,,,,0,74,74,74,,,,,,,,,,,,,,,,,,,,,l,1,1.1310774000012316,,,,,,,,,,,,jzh,m,19,2024_Apr_19_1711,mian,2021.2.3,59.89942885911095,
3a,2,2,3.0,a,"[0.2, -0.2]",,,,,,,,,,,,,,,,0,75,75,75,,,,,,,,,,,,,,,,,,,,,a,1,0.7176299000002473,,,,,,,,,,,,jzh,m,19,2024_Apr_19_1711,mian,2021.2.3,59.89942885911095,
9F,1,1,F,a,"[0.2, 0.2]",,,,,,,,,,,,,,,,0,76,76,76,,,,,,,,,,,,,,,,,,,,,a,1,2.01531470000009,,,,,,,,,,,,jzh,m,19,2024_Apr_19_1711,mian,2021.2.3,59.89942885911095,
G7,1,2,G,a,"[-0.2, 0.2]",,,,,,,,,,,,,,,,0,77,77,77,,,,,,,,,,,,,,,,,,,,,a,1,0.5078732999991189,,,,,,,,,,,,jzh,m,19,2024_Apr_19_1711,mian,2021.2.3,59.89942885911095,
a6,2,1,6.0,l,"[-0.2, -0.2]",,,,,,,,,,,,,,,,0,78,78,78,,,,,,,,,,,,,,,,,,,,,l,1,0.8321655999989162,,,,,,,,,,,,jzh,m,19,2024_Apr_19_1711,mian,2021.2.3,59.89942885911095,
4h,2,2,4.0,l,"[0.2, -0.2]",,,,,,,,,,,,,,,,0,79,79,79,,,,,,,,,,,,,,,,,,,,,l,1,0.5245909999994183,,,,,,,,,,,,jzh,m,19,2024_Apr_19_1711,mian,2021.2.3,59.89942885911095,
6A,1,1,A,a,"[0.2, 0.2]",,,,,,,,,,,,,,,,,,,,0,0,0,0,,,,,,,,,,,,,,,,,a,1,1.167355800000223,,,,,,,,,,,,jzh,m,19,2024_Apr_19_1711,mian,2021.2.3,59.89942885911095,
4H,1,2,H,a,"[-0.2, 0.2]",,,,,,,,,,,,,,,,,,,,0,1,1,1,,,,,,,,,,,,,,,,,a,1,0.7575149000003876,,,,,,,,,,,,jzh,m,19,2024_Apr_19_1711,mian,2021.2.3,59.89942885911095,
3H,2,1,3.0,a,"[-0.2, -0.2]",,,,,,,,,,,,,,,,,,,,0,2,2,2,,,,,,,,,,,,,,,,,a,1,0.6570154000000912,,,,,,,,,,,,jzh,m,19,2024_Apr_19_1711,mian,2021.2.3,59.89942885911095,
a9,2,2,9.0,a,"[0.2, -0.2]",,,,,,,,,,,,,,,,,,,,0,3,3,3,,,,,,,,,,,,,,,,,a,1,0.9010249000002659,,,,,,,,,,,,jzh,m,19,2024_Apr_19_1711,mian,2021.2.3,59.89942885911095,
E7,1,1,E,a,"[0.2, 0.2]",,,,,,,,,,,,,,,,,,,,0,4,4,4,,,,,,,,,,,,,,,,,a,1,1.1247143000000506,,,,,,,,,,,,jzh,m,19,2024_Apr_19_1711,mian,2021.2.3,59.89942885911095,
6h,1,2,h,l,"[-0.2, 0.2]",,,,,,,,,,,,,,,,,,,,0,5,5,5,,,,,,,,,,,,,,,,,l,1,0.5687034000002313,,,,,,,,,,,,jzh,m,19,2024_Apr_19_1711,mian,2021.2.3,59.89942885911095,
8A,2,1,8.0,l,"[-0.2, -0.2]",,,,,,,,,,,,,,,,,,,,0,6,6,6,,,,,,,,,,,,,,,,,l,1,0.6753367000001163,,,,,,,,,,,,jzh,m,19,2024_Apr_19_1711,mian,2021.2.3,59.89942885911095,
f5,2,2,5.0,a,"[0.2, -0.2]",,,,,,,,,,,,,,,,,,,,0,7,7,7,,,,,,,,,,,,,,,,,a,1,1.4346881999990728,,,,,,,,,,,,jzh,m,19,2024_Apr_19_1711,mian,2021.2.3,59.89942885911095,
2a,1,1,a,l,"[0.2, 0.2]",,,,,,,,,,,,,,,,,,,,0,8,8,8,,,,,,,,,,,,,,,,,a,0,1.4588518000000477,,,,,,,,,,,,jzh,m,19,2024_Apr_19_1711,mian,2021.2.3,59.89942885911095,
F7,1,2,F,a,"[-0.2, 0.2]",,,,,,,,,,,,,,,,,,,,0,9,9,9,,,,,,,,,,,,,,,,,a,1,0.6799252999990131,,,,,,,,,,,,jzh,m,19,2024_Apr_19_1711,mian,2021.2.3,59.89942885911095,
h2,2,1,2.0,l,"[-0.2, -0.2]",,,,,,,,,,,,,,,,,,,,0,10,10,10,,,,,,,,,,,,,,,,,l,1,1.3812825000004523,,,,,,,,,,,,jzh,m,19,2024_Apr_19_1711,mian,2021.2.3,59.89942885911095,
F5,2,2,5.0,a,"[0.2, -0.2]",,,,,,,,,,,,,,,,,,,,0,11,11,11,,,,,,,,,,,,,,,,,a,1,0.8851646000002802,,,,,,,,,,,,jzh,m,19,2024_Apr_19_1711,mian,2021.2.3,59.89942885911095,
A9,1,1,A,a,"[0.2, 0.2]",,,,,,,,,,,,,,,,,,,,0,12,12,12,,,,,,,,,,,,,,,,,a,1,1.0674510999997437,,,,,,,,,,,,jzh,m,19,2024_Apr_19_1711,mian,2021.2.3,59.89942885911095,
3e,1,2,e,l,"[-0.2, 0.2]",,,,,,,,,,,,,,,,,,,,0,13,13,13,,,,,,,,,,,,,,,,,l,1,2.0366124999982276,,,,,,,,,,,,jzh,m,19,2024_Apr_19_1711,mian,2021.2.3,59.89942885911095,
f8,2,1,8.0,l,"[-0.2, -0.2]",,,,,,,,,,,,,,,,,,,,0,14,14,14,,,,,,,,,,,,,,,,,l,1,1.1014675999995234,,,,,,,,,,,,jzh,m,19,2024_Apr_19_1711,mian,2021.2.3,59.89942885911095,
G2,2,2,2.0,l,"[0.2, -0.2]",,,,,,,,,,,,,,,,,,,,0,15,15,15,,,,,,,,,,,,,,,,,l,1,0.8198115000013786,,,,,,,,,,,,jzh,m,19,2024_Apr_19_1711,mian,2021.2.3,59.89942885911095,
F2,1,1,F,a,"[0.2, 0.2]",,,,,,,,,,,,,,,,,,,,0,16,16,16,,,,,,,,,,,,,,,,,a,1,0.7209125000008498,,,,,,,,,,,,jzh,m,19,2024_Apr_19_1711,mian,2021.2.3,59.89942885911095,
5e,1,2,e,l,"[-0.2, 0.2]",,,,,,,,,,,,,,,,,,,,0,17,17,17,,,,,,,,,,,,,,,,,l,1,0.7360296000006201,,,,,,,,,,,,jzh,m,19,2024_Apr_19_1711,mian,2021.2.3,59.89942885911095,
A3,2,1,3.0,a,"[-0.2, -0.2]",,,,,,,,,,,,,,,,,,,,0,18,18,18,,,,,,,,,,,,,,,,,a,1,2.196360600000844,,,,,,,,,,,,jzh,m,19,2024_Apr_19_1711,mian,2021.2.3,59.89942885911095,
4g,2,2,4.0,l,"[0.2, -0.2]",,,,,,,,,,,,,,,,,,,,0,19,19,19,,,,,,,,,,,,,,,,,l,1,2.654394899998806,,,,,,,,,,,,jzh,m,19,2024_Apr_19_1711,mian,2021.2.3,59.89942885911095,
h7,1,1,h,l,"[0.2, 0.2]",,,,,,,,,,,,,,,,,,,,0,20,20,20,,,,,,,,,,,,,,,,,l,1,1.8938441000009334,,,,,,,,,,,,jzh,m,19,2024_Apr_19_1711,mian,2021.2.3,59.89942885911095,
3g,1,2,g,l,"[-0.2, 0.2]",,,,,,,,,,,,,,,,,,,,0,21,21,21,,,,,,,,,,,,,,,,,l,1,0.5387463000006392,,,,,,,,,,,,jzh,m,19,2024_Apr_19_1711,mian,2021.2.3,59.89942885911095,
8a,2,1,8.0,l,"[-0.2, -0.2]",,,,,,,,,,,,,,,,,,,,0,22,22,22,,,,,,,,,,,,,,,,,l,1,0.769467899999654,,,,,,,,,,,,jzh,m,19,2024_Apr_19_1711,mian,2021.2.3,59.89942885911095,
4E,2,2,4.0,l,"[0.2, -0.2]",,,,,,,,,,,,,,,,,,,,0,23,23,23,,,,,,,,,,,,,,,,,l,1,0.5630590000000666,,,,,,,,,,,,jzh,m,19,2024_Apr_19_1711,mian,2021.2.3,59.89942885911095,
E5,1,1,E,a,"[0.2, 0.2]",,,,,,,,,,,,,,,,,,,,0,24,24,24,,,,,,,,,,,,,,,,,a,1,0.767465999999331,,,,,,,,,,,,jzh,m,19,2024_Apr_19_1711,mian,2021.2.3,59.89942885911095,
g6,1,2,g,l,"[-0.2, 0.2]",,,,,,,,,,,,,,,,,,,,0,25,25,25,,,,,,,,,,,,,,,,,l,1,0.4647229999991396,,,,,,,,,,,,jzh,m,19,2024_Apr_19_1711,mian,2021.2.3,59.89942885911095,
2e,2,1,2.0,l,"[-0.2, -0.2]",,,,,,,,,,,,,,,,,,,,0,26,26,26,,,,,,,,,,,,,,,,,l,1,0.7964281999993545,,,,,,,,,,,,jzh,m,19,2024_Apr_19_1711,mian,2021.2.3,59.89942885911095,
h8,2,2,8.0,l,"[0.2, -0.2]",,,,,,,,,,,,,,,,,,,,0,27,27,27,,,,,,,,,,,,,,,,,l,1,0.788208100000702,,,,,,,,,,,,jzh,m,19,2024_Apr_19_1711,mian,2021.2.3,59.89942885911095,
G6,1,1,G,a,"[0.2, 0.2]",,,,,,,,,,,,,,,,,,,,0,28,28,28,,,,,,,,,,,,,,,,,a,1,1.3297431000009965,,,,,,,,,,,,jzh,m,19,2024_Apr_19_1711,mian,2021.2.3,59.89942885911095,
a4,1,2,a,l,"[-0.2, 0.2]",,,,,,,,,,,,,,,,,,,,0,29,29,29,,,,,,,,,,,,,,,,,l,1,0.5517970999990212,,,,,,,,,,,,jzh,m,19,2024_Apr_19_1711,mian,2021.2.3,59.89942885911095,
9H,2,1,9.0,a,"[-0.2, -0.2]",,,,,,,,,,,,,,,,,,,,0,30,30,30,,,,,,,,,,,,,,,,,a,1,1.7014835000009043,,,,,,,,,,,,jzh,m,19,2024_Apr_19_1711,mian,2021.2.3,59.89942885911095,
7H,2,2,7.0,a,"[0.2, -0.2]",,,,,,,,,,,,,,,,,,,,0,31,31,31,,,,,,,,,,,,,,,,,a,1,0.4416160000000673,,,,,,,,,,,,jzh,m,19,2024_Apr_19_1711,mian,2021.2.3,59.89942885911095,
9f,1,1,f,l,"[0.2, 0.2]",,,,,,,,,,,,,,,,,,,,0,32,32,32,,,,,,,,,,,,,,,,,l,1,0.9531896999997116,,,,,,,,,,,,jzh,m,19,2024_Apr_19_1711,mian,2021.2.3,59.89942885911095,
8E,1,2,E,a,"[-0.2, 0.2]",,,,,,,,,,,,,,,,,,,,0,33,33,33,,,,,,,,,,,,,,,,,a,1,0.41483530000004976,,,,,,,,,,,,jzh,m,19,2024_Apr_19_1711,mian,2021.2.3,59.89942885911095,
A2,2,1,2.0,l,"[-0.2, -0.2]",,,,,,,,,,,,,,,,,,,,0,34,34,34,,,,,,,,,,,,,,,,,l,1,3.2361845000014,,,,,,,,,,,,jzh,m,19,2024_Apr_19_1711,mian,2021.2.3,59.89942885911095,
H7,2,2,7.0,a,"[0.2, -0.2]",,,,,,,,,,,,,,,,,,,,0,35,35,35,,,,,,,,,,,,,,,,,a,1,1.0274109999991197,,,,,,,,,,,,jzh,m,19,2024_Apr_19_1711,mian,2021.2.3,59.89942885911095,
h9,1,1,h,l,"[0.2, 0.2]",,,,,,,,,,,,,,,,,,,,0,36,36,36,,,,,,,,,,,,,,,,,l,1,1.189403400001538,,,,,,,,,,,,jzh,m,19,2024_Apr_19_1711,mian,2021.2.3,59.89942885911095,
8G,1,2,G,a,"[-0.2, 0.2]",,,,,,,,,,,,,,,,,,,,0,37,37,37,,,,,,,,,,,,,,,,,a,1,0.546445699999822,,,,,,,,,,,,jzh,m,19,2024_Apr_19_1711,mian,2021.2.3,59.89942885911095,
H4,2,1,4.0,l,"[-0.2, -0.2]",,,,,,,,,,,,,,,,,,,,0,38,38,38,,,,,,,,,,,,,,,,,l,1,3.0010561999988568,,,,,,,,,,,,jzh,m,19,2024_Apr_19_1711,mian,2021.2.3,59.89942885911095,
A8,2,2,8.0,l,"[0.2, -0.2]",,,,,,,,,,,,,,,,,,,,0,39,39,39,,,,,,,,,,,,,,,,,l,1,0.6038571999997657,,,,,,,,,,,,jzh,m,19,2024_Apr_19_1711,mian,2021.2.3,59.89942885911095,
g7,1,1,g,l,"[0.2, 0.2]",,,,,,,,,,,,,,,,,,,,0,40,40,40,,,,,,,,,,,,,,,,,a,0,0.8623041999999259,,,,,,,,,,,,jzh,m,19,2024_Apr_19_1711,mian,2021.2.3,59.89942885911095,
H9,1,2,H,a,"[-0.2, 0.2]",,,,,,,,,,,,,,,,,,,,0,41,41,41,,,,,,,,,,,,,,,,,a,1,2.250444299999799,,,,,,,,,,,,jzh,m,19,2024_Apr_19_1711,mian,2021.2.3,59.89942885911095,
9E,2,1,9.0,a,"[-0.2, -0.2]",,,,,,,,,,,,,,,,,,,,0,42,42,42,,,,,,,,,,,,,,,,,l,0,1.508929600000556,,,,,,,,,,,,jzh,m,19,2024_Apr_19_1711,mian,2021.2.3,59.89942885911095,
a5,2,2,5.0,a,"[0.2, -0.2]",,,,,,,,,,,,,,,,,,,,0,43,43,43,,,,,,,,,,,,,,,,,a,1,1.159507999998823,,,,,,,,,,,,jzh,m,19,2024_Apr_19_1711,mian,2021.2.3,59.89942885911095,
3E,1,1,E,a,"[0.2, 0.2]",,,,,,,,,,,,,,,,,,,,0,44,44,44,,,,,,,,,,,,,,,,,a,1,1.717757000000347,,,,,,,,,,,,jzh,m,19,2024_Apr_19_1711,mian,2021.2.3,59.89942885911095,
6f,1,2,f,l,"[-0.2, 0.2]",,,,,,,,,,,,,,,,,,,,0,45,45,45,,,,,,,,,,,,,,,,,l,1,0.5935145000003104,,,,,,,,,,,,jzh,m,19,2024_Apr_19_1711,mian,2021.2.3,59.89942885911095,
g8,2,1,8.0,l,"[-0.2, -0.2]",,,,,,,,,,,,,,,,,,,,0,46,46,46,,,,,,,,,,,,,,,,,l,1,1.018411399998513,,,,,,,,,,,,jzh,m,19,2024_Apr_19_1711,mian,2021.2.3,59.89942885911095,
4F,2,2,4.0,l,"[0.2, -0.2]",,,,,,,,,,,,,,,,,,,,0,47,47,47,,,,,,,,,,,,,,,,,l,1,1.3113023000005342,,,,,,,,,,,,jzh,m,19,2024_Apr_19_1711,mian,2021.2.3,59.89942885911095,
4a,1,1,a,l,"[0.2, 0.2]",,,,,,,,,,,,,,,,,,,,0,48,48,48,,,,,,,,,,,,,,,,,l,1,1.0184050000007119,,,,,,,,,,,,jzh,m,19,2024_Apr_19_1711,mian,2021.2.3,59.89942885911095,
e3,1,2,e,l,"[-0.2, 0.2]",,,,,,,,,,,,,,,,,,,,0,49,49,49,,,,,,,,,,,,,,,,,l,1,0.6275421000009374,,,,,,,,,,,,jzh,m,19,2024_Apr_19_1711,mian,2021.2.3,59.89942885911095,
5g,2,1,5.0,a,"[-0.2, -0.2]",,,,,,,,,,,,,,,,,,,,0,50,50,50,,,,,,,,,,,,,,,,,a,1,2.472856899999897,,,,,,,,,,,,jzh,m,19,2024_Apr_19_1711,mian,2021.2.3,59.89942885911095,
f4,2,2,4.0,l,"[0.2, -0.2]",,,,,,,,,,,,,,,,,,,,0,51,51,51,,,,,,,,,,,,,,,,,l,1,0.6624726999998529,,,,,,,,,,,,jzh,m,19,2024_Apr_19_1711,mian,2021.2.3,59.89942885911095,
6E,1,1,E,a,"[0.2, 0.2]",,,,,,,,,,,,,,,,,,,,0,52,52,52,,,,,,,,,,,,,,,,,a,1,0.8130583000001934,,,,,,,,,,,,jzh,m,19,2024_Apr_19_1711,mian,2021.2.3,59.89942885911095,
7A,1,2,A,a,"[-0.2, 0.2]",,,,,,,,,,,,,,,,,,,,0,53,53,53,,,,,,,,,,,,,,,,,a,1,0.9813226999995095,,,,,,,,,,,,jzh,m,19,2024_Apr_19_1711,mian,2021.2.3,59.89942885911095,
F4,2,1,4.0,l,"[-0.2, -0.2]",,,,,,,,,,,,,,,,,,,,0,54,54,54,,,,,,,,,,,,,,,,,l,1,0.8022851000005176,,,,,,,,,,,,jzh,m,19,2024_Apr_19_1711,mian,2021.2.3,59.89942885911095,
2g,2,2,2.0,l,"[0.2, -0.2]",,,,,,,,,,,,,,,,,,,,0,55,55,55,,,,,,,,,,,,,,,,,l,1,0.8433349999995698,,,,,,,,,,,,jzh,m,19,2024_Apr_19_1711,mian,2021.2.3,59.89942885911095,
7E,1,1,E,a,"[0.2, 0.2]",,,,,,,,,,,,,,,,,,,,0,56,56,56,,,,,,,,,,,,,,,,,a,1,0.8284801999998308,,,,,,,,,,,,jzh,m,19,2024_Apr_19_1711,mian,2021.2.3,59.89942885911095,
G4,1,2,G,a,"[-0.2, 0.2]",,,,,,,,,,,,,,,,,,,,0,57,57,57,,,,,,,,,,,,,,,,,a,1,0.5367729999998119,,,,,,,,,,,,jzh,m,19,2024_Apr_19_1711,mian,2021.2.3,59.89942885911095,
2F,2,1,2.0,l,"[-0.2, -0.2]",,,,,,,,,,,,,,,,,,,,0,58,58,58,,,,,,,,,,,,,,,,,l,1,1.0101591000002372,,,,,,,,,,,,jzh,m,19,2024_Apr_19_1711,mian,2021.2.3,59.89942885911095,
E9,2,2,9.0,a,"[0.2, -0.2]",,,,,,,,,,,,,,,,,,,,0,59,59,59,,,,,,,,,,,,,,,,,a,1,0.6203859999986889,,,,,,,,,,,,jzh,m,19,2024_Apr_19_1711,mian,2021.2.3,59.89942885911095,
5f,1,1,f,l,"[0.2, 0.2]",,,,,,,,,,,,,,,,,,,,0,60,60,60,,,,,,,,,,,,,,,,,l,1,1.0382065999983752,,,,,,,,,,,,jzh,m,19,2024_Apr_19_1711,mian,2021.2.3,59.89942885911095,
e7,1,2,e,l,"[-0.2, 0.2]",,,,,,,,,,,,,,,,,,,,0,61,61,61,,,,,,,,,,,,,,,,,l,1,0.5600668999995833,,,,,,,,,,,,jzh,m,19,2024_Apr_19_1711,mian,2021.2.3,59.89942885911095,
f2,2,1,2.0,l,"[-0.2, -0.2]",,,,,,,,,,,,,,,,,,,,0,62,62,62,,,,,,,,,,,,,,,,,l,1,0.8682811999988189,,,,,,,,,,,,jzh,m,19,2024_Apr_19_1711,mian,2021.2.3,59.89942885911095,
G9,2,2,9.0,a,"[0.2, -0.2]",,,,,,,,,,,,,,,,,,,,0,63,63,63,,,,,,,,,,,,,,,,,a,1,0.47008479999931296,,,,,,,,,,,,jzh,m,19,2024_Apr_19_1711,mian,2021.2.3,59.89942885911095,
7g,1,1,g,l,"[0.2, 0.2]",,,,,,,,,,,,,,,,,,,,0,64,64,64,,,,,,,,,,,,,,,,,l,1,3.1390269999992597,,,,,,,,,,,,jzh,m,19,2024_Apr_19_1711,mian,2021.2.3,59.89942885911095,
F8,1,2,F,a,"[-0.2, 0.2]",,,,,,,,,,,,,,,,,,,,0,65,65,65,,,,,,,,,,,,,,,,,a,1,0.6322374999999738,,,,,,,,,,,,jzh,m,19,2024_Apr_19_1711,mian,2021.2.3,59.89942885911095,
A7,2,1,7.0,a,"[-0.2, -0.2]",,,,,,,,,,,,,,,,,,,,0,66,66,66,,,,,,,,,,,,,,,,,a,1,1.0096737000003486,,,,,,,,,,,,jzh,m,19,2024_Apr_19_1711,mian,2021.2.3,59.89942885911095,
4G,2,2,4.0,l,"[0.2, -0.2]",,,,,,,,,,,,,,,,,,,,0,67,67,67,,,,,,,,,,,,,,,,,a,0,0.6340613000011217,,,,,,,,,,,,jzh,m,19,2024_Apr_19_1711,mian,2021.2.3,59.89942885911095,
g2,1,1,g,l,"[0.2, 0.2]",,,,,,,,,,,,,,,,,,,,0,68,68,68,,,,,,,,,,,,,,,,,l,1,1.2765533000001597,,,,,,,,,,,,jzh,m,19,2024_Apr_19_1711,mian,2021.2.3,59.89942885911095,
g4,1,2,g,l,"[-0.2, 0.2]",,,,,,,,,,,,,,,,,,,,0,69,69,69,,,,,,,,,,,,,,,,,l,1,0.36967729999923904,,,,,,,,,,,,jzh,m,19,2024_Apr_19_1711,mian,2021.2.3,59.89942885911095,
7a,2,1,7.0,a,"[-0.2, -0.2]",,,,,,,,,,,,,,,,,,,,0,70,70,70,,,,,,,,,,,,,,,,,a,1,1.3368649000003643,,,,,,,,,,,,jzh,m,19,2024_Apr_19_1711,mian,2021.2.3,59.89942885911095,
8e,2,2,8.0,l,"[0.2, -0.2]",,,,,,,,,,,,,,,,,,,,0,71,71,71,,,,,,,,,,,,,,,,,a,0,0.46489199999996345,,,,,,,,,,,,jzh,m,19,2024_Apr_19_1711,mian,2021.2.3,59.89942885911095,
h4,1,1,h,l,"[0.2, 0.2]",,,,,,,,,,,,,,,,,,,,0,72,72,72,,,,,,,,,,,,,,,,,l,1,2.316371999999319,,,,,,,,,,,,jzh,m,19,2024_Apr_19_1711,mian,2021.2.3,59.89942885911095,
G8,1,2,G,a,"[-0.2, 0.2]",,,,,,,,,,,,,,,,,,,,0,73,73,73,,,,,,,,,,,,,,,,,a,1,0.5788701999990735,,,,,,,,,,,,jzh,m,19,2024_Apr_19_1711,mian,2021.2.3,59.89942885911095,
6F,2,1,6.0,l,"[-0.2, -0.2]",,,,,,,,,,,,,,,,,,,,0,74,74,74,,,,,,,,,,,,,,,,,l,1,1.1311505000012403,,,,,,,,,,,,jzh,m,19,2024_Apr_19_1711,mian,2021.2.3,59.89942885911095,
g5,2,2,5.0,a,"[0.2, -0.2]",,,,,,,,,,,,,,,,,,,,0,75,75,75,,,,,,,,,,,,,,,,,a,1,0.6255858000004082,,,,,,,,,,,,jzh,m,19,2024_Apr_19_1711,mian,2021.2.3,59.89942885911095,
G5,1,1,G,a,"[0.2, 0.2]",,,,,,,,,,,,,,,,,,,,0,76,76,76,,,,,,,,,,,,,,,,,a,1,1.2990920000011101,,,,,,,,,,,,jzh,m,19,2024_Apr_19_1711,mian,2021.2.3,59.89942885911095,
h5,1,2,h,l,"[-0.2, 0.2]",,,,,,,,,,,,,,,,,,,,0,77,77,77,,,,,,,,,,,,,,,,,l,1,0.5070587000009255,,,,,,,,,,,,jzh,m,19,2024_Apr_19_1711,mian,2021.2.3,59.89942885911095,
9G,2,1,9.0,a,"[-0.2, -0.2]",,,,,,,,,,,,,,,,,,,,0,78,78,78,,,,,,,,,,,,,,,,,a,1,1.1518957999996928,,,,,,,,,,,,jzh,m,19,2024_Apr_19_1711,mian,2021.2.3,59.89942885911095,
F3,2,2,3.0,a,"[0.2, -0.2]",,,,,,,,,,,,,,,,,,,,0,79,79,79,,,,,,,,,,,,,,,,,a,1,0.6893652999988262,,,,,,,,,,,,jzh,m,19,2024_Apr_19_1711,mian,2021.2.3,59.89942885911095,
,,,,,,1,1,pic/flanker6.png,pic/flanker4.png,s,k,,,,,,,,,,,,,,,,,,0,0,0,0,0,0,0,6,,,,,,,,,,,,610.7941842,None,609.6059382999993,610.8110455999995,None,0,秀丽,None,0,,,jzh,m,19,2024_Apr_19_1711,mian,2021.2.3,59.89942885911095,
,,,,,,0,1,pic/flanker5.png,pic/flanker1.png,s,k,,,,,,,,,,,,,,,,,,0,0,0,0,0,1,1,0,,,,,,,,,,,,616.4940518000003,None,615.3108624999986,616.5106978000003,None,0,生动,None,0,,,jzh,m,19,2024_Apr_19_1711,mian,2021.2.3,59.89942885911095,
,,,,,,1,0,pic/flanker6.png,pic/flanker4.png,s,l,,,,,,,,,,,,,,,,,,0,0,0,0,0,2,2,5,,,,,,,,,,,,622.3939685999994,None,621.2108879999996,622.410858199999,None,0,心慌,None,0,,,jzh,m,19,2024_Apr_19_1711,mian,2021.2.3,59.89942885911095,
,,,,,,0,1,pic/flanker6.png,pic/flanker2.png,a,k,,,,,,,,,,,,,,,,,,0,0,0,0,0,3,3,2,,,,,,,,,,,,628.1441930000001,None,626.9607613999997,628.1611990000001,None,0,舒畅,None,0,,,jzh,m,19,2024_Apr_19_1711,mian,2021.2.3,59.89942885911095,
,,,,,,0,0,pic/flanker6.png,pic/flanker2.png,a,l,,,,,,,,,,,,,,,,,,0,0,0,0,0,4,4,1,,,,,,,,,,,,633.9938192999998,None,632.8103752999996,634.0104737999991,None,0,浪费,None,0,,,jzh,m,19,2024_Apr_19_1711,mian,2021.2.3,59.89942885911095,
,,,,,,0,0,pic/flanker5.png,pic/flanker1.png,s,l,,,,,,,,,,,,,,,,,,0,0,0,0,0,5,5,3,,,,,,,,,,,,639.7941241999997,None,638.6107333,639.8107447000002,s,1,怀疑,k,0,0.5889318000008643,0.9505145999992237,jzh,m,19,2024_Apr_19_1711,mian,2021.2.3,59.89942885911095,
,,,,,,1,1,pic/flanker5.png,pic/flanker3.png,a,k,,,,,,,,,,,,,,,,,,0,0,0,0,0,6,6,4,,,,,,,,,,,,643.3272564999988,None,642.1434797999991,643.3440914000003,a,1,前进,None,0,0.6771771000003355,,jzh,m,19,2024_Apr_19_1711,mian,2021.2.3,59.89942885911095,
,,,,,,1,0,pic/flanker5.png,pic/flanker3.png,a,l,,,,,,,,,,,,,,,,,,0,0,0,0,0,7,7,7,,,,,,,,,,,,648.4279577999987,None,647.2443356999993,648.4442012,a,1,损害,l,1,0.7754359999998996,0.7571914000000106,jzh,m,19,2024_Apr_19_1711,mian,2021.2.3,59.89942885911095,
,,,,,,,,,,,,,,,,,,,,,,,,,,,,,0,0,0,0,,,,,,,,,,,,,,,,,,,,,,,,,,,jzh,m,19,2024_Apr_19_1711,mian,2021.2.3,59.89942885911095,
,,,,,,1,1,pic/flanker5.png,pic/flanker3.png,a,k,,,,,,,,,,,,,,,,,,1,0,1,0,0,0,0,4,,,,,,,,,,,,662.0935508000002,None,660.8990954000001,662.1101815999991,a,1,雄厚,k,1,0.5138920000008511,0.7610701000012341,jzh,m,19,2024_Apr_19_1711,mian,2021.2.3,59.89942885911095,
,,,,,,0,0,pic/flanker6.png,pic/flanker2.png,a,l,,,,,,,,,,,,,,,,,,1,0,1,0,0,1,1,1,,,,,,,,,,,,665.4274193000001,None,664.2440253999994,665.4440760999987,a,1,悲观,l,1,0.4173236000006,1.144078499999523,jzh,m,19,2024_Apr_19_1711,mian,2021.2.3,59.89942885911095,
,,,,,,1,0,pic/flanker5.png,pic/flanker3.png,a,l,,,,,,,,,,,,,,,,,,1,0,1,0,0,2,2,7,,,,,,,,,,,,668.9940119999992,None,667.8105574000001,669.0109111000002,a,1,争吵,l,1,0.49117979999937234,0.7684073000000353,jzh,m,19,2024_Apr_19_1711,mian,2021.2.3,59.89942885911095,
,,,,,,0,1,pic/flanker5.png,pic/flanker1.png,s,k,,,,,,,,,,,,,,,,,,1,0,1,0,0,3,3,0,,,,,,,,,,,,672.2108177999999,None,671.027737299999,672.2273998000001,s,1,生动,k,1,0.3821978999985731,0.711774699999296,jzh,m,19,2024_Apr_19_1711,mian,2021.2.3,59.89942885911095,
,,,,,,0,1,pic/flanker6.png,pic/flanker2.png,a,k,,,,,,,,,,,,,,,,,,1,0,1,0,0,4,4,2,,,,,,,,,,,,675.1608281999997,None,673.9774265999986,675.1774730999987,a,1,诚恳,k,1,0.39005489999908605,0.6902133999992657,jzh,m,19,2024_Apr_19_1711,mian,2021.2.3,59.89942885911095,
,,,,,,1,0,pic/flanker6.png,pic/flanker4.png,s,l,,,,,,,,,,,,,,,,,,1,0,1,0,0,5,5,5,,,,,,,,,,,,678.2939434,None,677.1100798999996,678.3107314999997,s,1,堵塞,l,1,0.41425619999972696,0.6958572999992612,jzh,m,19,2024_Apr_19_1711,mian,2021.2.3,59.89942885911095,
,,,,,,1,1,pic/flanker6.png,pic/flanker4.png,s,k,,,,,,,,,,,,,,,,,,1,0,1,0,0,6,6,6,,,,,,,,,,,,681.3435565,None,680.1604293,681.3602042999992,s,1,吉祥,k,1,0.6550977999995666,0.6030437999997957,jzh,m,19,2024_Apr_19_1711,mian,2021.2.3,59.89942885911095,
,,,,,,0,0,pic/flanker5.png,pic/flanker1.png,s,l,,,,,,,,,,,,,,,,,,1,0,1,0,0,7,7,3,,,,,,,,,,,,684.6108781000003,None,683.4273359999988,684.6275495999998,s,1,嘲笑,l,1,0.49046239999915997,0.8524187000002712,jzh,m,19,2024_Apr_19_1711,mian,2021.2.3,59.89942885911095,
,,,,,,,,,,,,,,,,,,,,,,,,,,,,,1,0,1,0,,,,,,,,,,,,,,,,,,,,,,,,,,,jzh,m,19,2024_Apr_19_1711,mian,2021.2.3,59.89942885911095,
,,,,,,0,1,pic/flanker6.png,pic/flanker2.png,a,k,pic/AffRest1.png,,,,,,,,,,,,,,,,,,,,,,,,,0,0,0,0,0,0,0,10,,,,696.3609994999988,None,695.172785499999,696.3775366999998,a,1,秀丽,k,1,0.45480270000007295,0.6610486000008677,jzh,m,19,2024_Apr_19_1711,mian,2021.2.3,59.89942885911095,
,,,,,,1,0,pic/flanker5.png,pic/flanker3.png,a,l,pic/AffRest1.png,,,,,,,,,,,,,,,,,,,,,,,,,0,0,0,0,0,1,1,63,,,,699.4273770999989,None,698.2440035,699.444113399999,a,1,别扭,l,1,0.41623060000165424,1.3734411999994336,jzh,m,19,2024_Apr_19_1711,mian,2021.2.3,59.89942885911095,
,,,,,,1,0,pic/flanker6.png,pic/flanker4.png,s,l,pic/AffRest1.png,,,,,,,,,,,,,,,,,,,,,,,,,0,0,0,0,0,2,2,61,,,,703.2607351999995,None,702.0774877999993,703.2773438999993,s,1,缺乏,l,1,0.43751849999898695,0.7204536000008375,jzh,m,19,2024_Apr_19_1711,mian,2021.2.3,59.89942885911095,
,,,,,,1,1,pic/flanker6.png,pic/flanker4.png,s,k,pic/AffRest1.png,,,,,,,,,,,,,,,,,,,,,,,,,0,0,0,0,0,3,3,22,,,,706.4773449999993,None,705.2942055000003,706.4940707999995,s,1,如愿,k,1,0.38559989999885147,0.5801964999991469,jzh,m,19,2024_Apr_19_1711,mian,2021.2.3,59.89942885911095,
,,,,,,0,0,pic/flanker5.png,pic/flanker1.png,s,l,pic/AffRest1.png,,,,,,,,,,,,,,,,,,,,,,,,,0,0,0,0,0,4,4,35,,,,709.3607651000002,None,708.1774327999992,709.3773646999998,s,1,冷笑,l,1,0.44444130000010773,0.5827558999990288,jzh,m,19,2024_Apr_19_1711,mian,2021.2.3,59.89942885911095,
,,,,,,1,0,pic/flanker5.png,pic/flanker3.png,a,l,pic/AffRest1.png,,,,,,,,,,,,,,,,,,,,,,,,,0,0,0,0,0,5,5,15,,,,712.4275204999994,None,711.2440614999996,712.4441945999988,a,1,杂乱,l,1,0.3481480999998894,0.6724228000002768,jzh,m,19,2024_Apr_19_1711,mian,2021.2.3,59.89942885911095,
,,,,,,0,1,pic/flanker5.png,pic/flanker1.png,s,k,pic/AffRest1.png,,,,,,,,,,,,,,,,,,,,,,,,,0,0,0,0,0,6,6,32,,,,715.3273993999992,None,714.1441056000003,715.3440431999989,s,1,顽强,l,0,0.3978301000006468,0.7399535000004107,jzh,m,19,2024_Apr_19_1711,mian,2021.2.3,59.89942885911095,
,,,,,,1,0,pic/flanker6.png,pic/flanker4.png,s,l,pic/AffRest1.png,,,,,,,,,,,,,,,,,,,,,,,,,0,0,0,0,0,7,7,45,,,,718.5273416,None,717.3442773999996,718.544087799999,s,1,忧虑,l,1,0.47306530000059865,0.6228016000004573,jzh,m,19,2024_Apr_19_1711,mian,2021.2.3,59.89942885911095,
,,,,,,0,0,pic/flanker6.png,pic/flanker2.png,a,l,pic/AffRest1.png,,,,,,,,,,,,,,,,,,,,,,,,,0,0,0,0,0,8,8,73,,,,721.5104499999998,None,720.3275087000002,721.5275671999989,a,1,胡涂,l,1,0.47830620000058843,0.5958929999997054,jzh,m,19,2024_Apr_19_1711,mian,2021.2.3,59.89942885911095,
,,,,,,0,0,pic/flanker5.png,pic/flanker1.png,s,l,pic/AffRest1.png,,,,,,,,,,,,,,,,,,,,,,,,,0,0,0,0,0,9,9,67,,,,724.4440949,None,723.2607329000002,724.4606366999997,s,1,伤心,l,1,0.36323710000033316,0.6820516999996471,jzh,m,19,2024_Apr_19_1711,mian,2021.2.3,59.89942885911095,
,,,,,,1,0,pic/flanker5.png,pic/flanker3.png,a,l,pic/AffRest1.png,,,,,,,,,,,,,,,,,,,,,,,,,0,0,0,0,0,10,10,31,,,,727.5437029999994,None,726.3600354999999,727.5605328999991,a,1,黑暗,l,1,0.39404969999850437,0.7018181000003096,jzh,m,19,2024_Apr_19_1711,mian,2021.2.3,59.89942885911095,
,,,,,,0,1,pic/flanker5.png,pic/flanker1.png,s,k,pic/AffRest1.png,,,,,,,,,,,,,,,,,,,,,,,,,0,0,0,0,0,11,11,16,,,,730.494106099999,None,729.3107253999988,730.5107408999993,s,1,公平,k,1,0.40009640000062063,0.7791858000000502,jzh,m,19,2024_Apr_19_1711,mian,2021.2.3,59.89942885911095,
,,,,,,1,0,pic/flanker5.png,pic/flanker3.png,a,l,pic/AffRest1.png,,,,,,,,,,,,,,,,,,,,,,,,,0,0,0,0,0,12,12,7,,,,733.5771588999996,None,732.3932318999996,733.5939268000002,a,1,鲁莽,k,0,0.534886399998868,0.6846810000006371,jzh,m,19,2024_Apr_19_1711,mian,2021.2.3,59.89942885911095,
,,,,,,0,0,pic/flanker6.png,pic/flanker2.png,a,l,pic/AffRest1.png,,,,,,,,,,,,,,,,,,,,,,,,,0,0,0,0,0,13,13,49,,,,736.7441030999998,None,735.560774399999,736.7608019999989,a,1,孤单,l,1,0.442548999999417,0.8745573999985936,jzh,m,19,2024_Apr_19_1711,mian,2021.2.3,59.89942885911095,
,,,,,,1,1,pic/flanker5.png,pic/flanker3.png,a,k,pic/AffRest1.png,,,,,,,,,,,,,,,,,,,,,,,,,0,0,0,0,0,14,14,76,,,,740.0106839,None,738.8271036999995,740.0274610999986,a,1,富足,k,1,0.4387355999988358,0.6011531999993167,jzh,m,19,2024_Apr_19_1711,mian,2021.2.3,59.89942885911095,
,,,,,,0,0,pic/flanker5.png,pic/flanker1.png,s,l,pic/AffRest1.png,,,,,,,,,,,,,,,,,,,,,,,,,0,0,0,0,0,15,15,51,,,,743.0438933999994,None,741.8606977999989,743.0605181999999,s,1,厌恶,l,1,0.39292330000171205,0.8615524999986519,jzh,m,19,2024_Apr_19_1711,mian,2021.2.3,59.89942885911095,
,,,,,,1,1,pic/flanker6.png,pic/flanker4.png,s,k,pic/AffRest1.png,,,,,,,,,,,,,,,,,,,,,,,,,0,0,0,0,0,16,16,62,,,,746.1935963999986,None,745.0108351999988,746.2102383999991,s,1,振作,k,1,0.5643763999996736,0.6992038000007597,jzh,m,19,2024_Apr_19_1711,mian,2021.2.3,59.89942885911095,
,,,,,,0,1,pic/flanker6.png,pic/flanker2.png,a,k,pic/AffRest1.png,,,,,,,,,,,,,,,,,,,,,,,,,0,0,0,0,0,17,17,18,,,,749.3441055000003,None,748.1606580999996,749.3607510000002,a,1,爽朗,k,1,0.4673765999996249,0.6840074000010645,jzh,m,19,2024_Apr_19_1711,mian,2021.2.3,59.89942885911095,
,,,,,,0,1,pic/flanker6.png,pic/flanker2.png,a,k,pic/AffRest1.png,,,,,,,,,,,,,,,,,,,,,,,,,0,0,0,0,0,18,18,42,,,,752.3439688999988,None,751.1606510999991,752.3606377999986,a,1,豪放,k,1,0.43287430000054883,0.5593356000008498,jzh,m,19,2024_Apr_19_1711,mian,2021.2.3,59.89942885911095,
,,,,,,1,0,pic/flanker5.png,pic/flanker3.png,a,l,pic/AffRest1.png,,,,,,,,,,,,,,,,,,,,,,,,,0,0,0,0,0,19,19,39,,,,755.3773799999999,None,754.1941496999989,755.3941169999998,a,1,懒惰,l,1,0.5604507000007288,0.5902494999991177,jzh,m,19,2024_Apr_19_1711,mian,2021.2.3,59.89942885911095,
,,,,,,1,1,pic/flanker5.png,pic/flanker3.png,a,k,pic/AffRest1.png,,,,,,,,,,,,,,,,,,,,,,,,,0,0,0,0,0,20,20,28,,,,758.4106119999997,None,757.2273748999996,758.4274176999988,a,1,俊秀,k,1,0.43854040000042005,0.5512877999990451,jzh,m,19,2024_Apr_19_1711,mian,2021.2.3,59.89942885911095,
,,,,,,1,0,pic/flanker5.png,pic/flanker3.png,a,l,pic/AffRest1.png,,,,,,,,,,,,,,,,,,,,,,,,,0,0,0,0,0,21,21,79,,,,761.4607961000002,None,760.277087299999,761.4774834999989,a,1,假冒,l,1,0.4213173000007373,0.666322000000946,jzh,m,19,2024_Apr_19_1711,mian,2021.2.3,59.89942885911095,
,,,,,,0,0,pic/flanker6.png,pic/flanker2.png,a,l,pic/AffRest1.png,,,,,,,,,,,,,,,,,,,,,,,,,0,0,0,0,0,22,22,17,,,,764.6106977,None,763.4272884000002,764.6272895999991,a,1,穷苦,l,1,0.4477207999989332,0.8008117999997921,jzh,m,19,2024_Apr_19_1711,mian,2021.2.3,59.89942885911095,
,,,,,,0,1,pic/flanker6.png,pic/flanker2.png,a,k,pic/AffRest1.png,,,,,,,,,,,,,,,,,,,,,,,,,0,0,0,0,0,23,23,34,,,,767.7105398999993,None,766.5273894000002,767.7274758999993,a,1,圣洁,k,1,0.45628339999893797,0.5518764999997074,jzh,m,19,2024_Apr_19_1711,mian,2021.2.3,59.89942885911095,
,,,,,,1,1,pic/flanker6.png,pic/flanker4.png,s,k,pic/AffRest1.png,,,,,,,,,,,,,,,,,,,,,,,,,0,0,0,0,0,24,24,78,,,,770.6773873999991,None,769.4941663999998,770.693911299999,s,1,廉洁,k,1,0.42054189999907976,0.9394042000003537,jzh,m,19,2024_Apr_19_1711,mian,2021.2.3,59.89942885911095,
,,,,,,1,1,pic/flanker5.png,pic/flanker3.png,a,k,pic/AffRest1.png,,,,,,,,,,,,,,,,,,,,,,,,,0,0,0,0,0,25,25,36,,,,774.0270659999987,None,772.8440386000002,774.0441166,a,1,典雅,k,1,0.3862157000003208,0.49870480000026873,jzh,m,19,2024_Apr_19_1711,mian,2021.2.3,59.89942885911095,
,,,,,,0,0,pic/flanker5.png,pic/flanker1.png,s,l,pic/AffRest1.png,,,,,,,,,,,,,,,,,,,,,,,,,0,0,0,0,0,26,26,11,,,,776.760782899999,None,775.5771342999997,776.777170899999,s,1,撒谎,l,1,0.6301093000001856,0.6385884000010265,jzh,m,19,2024_Apr_19_1711,mian,2021.2.3,59.89942885911095,
,,,,,,1,1,pic/flanker6.png,pic/flanker4.png,s,k,pic/AffRest1.png,,,,,,,,,,,,,,,,,,,,,,,,,0,0,0,0,0,27,27,6,,,,779.8774324999995,None,778.6940808999989,779.8939725,s,1,羡慕,k,1,0.4621890999987954,0.5168441999994684,jzh,m,19,2024_Apr_19_1711,mian,2021.2.3,59.89942885911095,
,,,,,,0,1,pic/flanker6.png,pic/flanker2.png,a,k,pic/AffRest1.png,,,,,,,,,,,,,,,,,,,,,,,,,0,0,0,0,0,28,28,26,,,,782.8270739999989,None,781.6441650999986,782.8437452999988,a,1,丰满,k,1,0.4106573999997636,0.7222338000010495,jzh,m,19,2024_Apr_19_1711,mian,2021.2.3,59.89942885911095,
,,,,,,1,0,pic/flanker5.png,pic/flanker3.png,a,l,pic/AffRest1.png,,,,,,,,,,,,,,,,,,,,,,,,,0,0,0,0,0,29,29,23,,,,785.8942248000003,None,784.7106297999999,785.9108928999995,a,1,轻率,l,1,0.3766981000007945,0.6636886000014783,jzh,m,19,2024_Apr_19_1711,mian,2021.2.3,59.89942885911095,
,,,,,,0,1,pic/flanker6.png,pic/flanker2.png,a,k,pic/AffRest1.png,,,,,,,,,,,,,,,,,,,,,,,,,0,0,0,0,0,30,30,2,,,,788.9608085999989,None,787.7773557,788.9773439,a,1,前进,k,1,0.44611409999924945,0.4816850000006525,jzh,m,19,2024_Apr_19_1711,mian,2021.2.3,59.89942885911095,
,,,,,,0,1,pic/flanker6.png,pic/flanker2.png,a,k,pic/AffRest1.png,,,,,,,,,,,,,,,,,,,,,,,,,0,0,0,0,0,31,31,50,,,,791.7267661999995,None,790.5440867999987,791.7441309999995,a,1,精致,k,1,0.3789392999988195,0.4548186000010901,jzh,m,19,2024_Apr_19_1711,mian,2021.2.3,59.89942885911095,
,,,,,,0,1,pic/flanker5.png,pic/flanker1.png,s,k,pic/AffRest1.png,,,,,,,,,,,,,,,,,,,,,,,,,0,0,0,0,0,32,32,8,,,,794.6107175999987,None,793.4274176999988,794.6272951999999,s,1,诚恳,k,1,0.3577877999996417,0.4780687000002217,jzh,m,19,2024_Apr_19_1711,mian,2021.2.3,59.89942885911095,
,,,,,,1,0,pic/flanker6.png,pic/flanker4.png,s,l,pic/AffRest1.png,,,,,,,,,,,,,,,,,,,,,,,,,0,0,0,0,0,33,33,37,,,,797.3107258,None,796.1273485999991,797.3273241999996,s,1,怀疑,k,0,0.5007812000003469,0.4285307999998622,jzh,m,19,2024_Apr_19_1711,mian,2021.2.3,59.89942885911095,
,,,,,,1,1,pic/flanker6.png,pic/flanker4.png,s,k,pic/AffRest1.png,,,,,,,,,,,,,,,,,,,,,,,,,0,0,0,0,0,34,34,46,,,,800.1939382,None,799.0113058999996,800.2108475999994,s,1,鲜艳,k,1,0.43321130000003905,0.7547993000007409,jzh,m,19,2024_Apr_19_1711,mian,2021.2.3,59.89942885911095,
,,,,,,0,0,pic/flanker6.png,pic/flanker2.png,a,l,pic/AffRest1.png,,,,,,,,,,,,,,,,,,,,,,,,,0,0,0,0,0,35,35,41,,,,803.3273561999995,None,802.143989799999,803.3440438999987,a,1,失意,l,1,0.4236107999986416,0.5747780000001512,jzh,m,19,2024_Apr_19_1711,mian,2021.2.3,59.89942885911095,
,,,,,,0,0,pic/flanker5.png,pic/flanker1.png,s,l,pic/AffRest1.png,,,,,,,,,,,,,,,,,,,,,,,,,0,0,0,0,0,36,36,27,,,,806.3608341999989,None,805.1770782000003,806.3774992999988,s,1,损害,l,1,0.5513166000000638,0.7784308000009332,jzh,m,19,2024_Apr_19_1711,mian,2021.2.3,59.89942885911095,
,,,,,,0,1,pic/flanker5.png,pic/flanker1.png,s,k,pic/AffRest1.png,,,,,,,,,,,,,,,,,,,,,,,,,0,0,0,0,0,37,37,72,,,,809.6273932999993,None,808.4439666999988,809.6441013000003,s,1,有利,k,1,0.36401500000101805,0.6280943000001571,jzh,m,19,2024_Apr_19_1711,mian,2021.2.3,59.89942885911095,
,,,,,,1,1,pic/flanker5.png,pic/flanker3.png,a,k,pic/AffRest1.png,,,,,,,,,,,,,,,,,,,,,,,,,0,0,0,0,0,38,38,20,,,,812.6270803999996,None,811.4436014000003,812.643741599999,a,1,正直,k,1,0.4454263000006904,0.51424279999992,jzh,m,19,2024_Apr_19_1711,mian,2021.2.3,59.89942885911095,
,,,,,,1,1,pic/flanker5.png,pic/flanker3.png,a,k,pic/AffRest1.png,,,,,,,,,,,,,,,,,,,,,,,,,0,0,0,0,0,39,39,4,,,,815.4438071999994,None,814.2606309999992,815.4605725999991,s,0,享受,k,1,0.2965315000001283,0.6853740999995352,jzh,m,19,2024_Apr_19_1711,mian,2021.2.3,59.89942885911095,
,,,,,,1,0,pic/flanker6.png,pic/flanker4.png,s,l,pic/AffRest1.png,,,,,,,,,,,,,,,,,,,,,,,,,0,0,0,0,0,40,40,5,,,,818.3939957999992,None,817.2105374000002,818.4106303999997,s,1,心慌,k,0,0.49979940000048373,1.073711099999855,jzh,m,19,2024_Apr_19_1711,mian,2021.2.3,59.89942885911095,
,,,,,,0,0,pic/flanker5.png,pic/flanker1.png,s,l,pic/AffRest1.png,,,,,,,,,,,,,,,,,,,,,,,,,0,0,0,0,0,41,41,59,,,,821.9938547999991,None,820.8109157999988,822.0103698000003,s,1,处罚,l,1,0.4058592999990651,0.570214000001215,jzh,m,19,2024_Apr_19_1711,mian,2021.2.3,59.89942885911095,
,,,,,,1,1,pic/flanker6.png,pic/flanker4.png,s,k,pic/AffRest1.png,,,,,,,,,,,,,,,,,,,,,,,,,0,0,0,0,0,42,42,14,,,,825.0272802999989,None,823.8439988999999,825.0439526999999,s,1,优雅,k,1,0.44898560000001453,0.4262021000013192,jzh,m,19,2024_Apr_19_1711,mian,2021.2.3,59.89942885911095,
,,,,,,1,0,pic/flanker5.png,pic/flanker3.png,a,l,pic/AffRest1.png,,,,,,,,,,,,,,,,,,,,,,,,,0,0,0,0,0,43,43,55,,,,827.8437512,None,826.6605158999992,827.8605898999995,a,1,慌忙,l,1,0.4711391000000731,0.7057487999991281,jzh,m,19,2024_Apr_19_1711,mian,2021.2.3,59.89942885911095,
,,,,,,1,0,pic/flanker6.png,pic/flanker4.png,s,l,pic/AffRest1.png,,,,,,,,,,,,,,,,,,,,,,,,,0,0,0,0,0,44,44,53,,,,830.9939596999993,None,829.8102192999995,831.0105782999999,s,1,排斥,l,1,0.41532350000125007,1.2850416000001132,jzh,m,19,2024_Apr_19_1711,mian,2021.2.3,59.89942885911095,
,,,,,,0,1,pic/flanker5.png,pic/flanker1.png,s,k,pic/AffRest1.png,,,,,,,,,,,,,,,,,,,,,,,,,0,0,0,0,0,45,45,64,,,,834.5773804,None,833.3939890999991,834.5939472999999,s,1,充裕,k,1,0.4596591999998054,0.5767965000013646,jzh,m,19,2024_Apr_19_1711,mian,2021.2.3,59.89942885911095,
,,,,,,1,0,pic/flanker5.png,pic/flanker3.png,a,l,pic/AffRest1.png,,,,,,,,,,,,,,,,,,,,,,,,,0,0,0,0,0,46,46,47,,,,837.4773625999987,None,836.294154199999,837.4939448999994,a,1,罚款,l,1,0.48232049999933224,0.6702312999987043,jzh,m,19,2024_Apr_19_1711,mian,2021.2.3,59.89942885911095,
,,,,,,1,1,pic/flanker5.png,pic/flanker3.png,a,k,pic/AffRest1.png,,,,,,,,,,,,,,,,,,,,,,,,,0,0,0,0,0,47,47,68,,,,840.5772792999996,None,839.393966399999,840.5939097999999,a,1,富丽,k,1,0.37658899999951245,0.521460300000399,jzh,m,19,2024_Apr_19_1711,mian,2021.2.3,59.89942885911095,
,,,,,,1,0,pic/flanker6.png,pic/flanker4.png,s,l,pic/AffRest1.png,,,,,,,,,,,,,,,,,,,,,,,,,0,0,0,0,0,48,48,69,,,,843.3771270999987,None,842.1939468,843.3940048999993,s,1,烦恼,k,0,0.4155623000006017,0.5881699999990815,jzh,m,19,2024_Apr_19_1711,mian,2021.2.3,59.89942885911095,
,,,,,,0,0,pic/flanker6.png,pic/flanker2.png,a,l,pic/AffRest1.png,,,,,,,,,,,,,,,,,,,,,,,,,0,0,0,0,0,49,49,9,,,,846.2774412999988,None,845.0938549000002,846.2941319999991,a,1,郁闷,l,1,0.4293698999990738,0.8406940999993822,jzh,m,19,2024_Apr_19_1711,mian,2021.2.3,59.89942885911095,
,,,,,,0,1,pic/flanker6.png,pic/flanker2.png,a,k,pic/AffRest1.png,,,,,,,,,,,,,,,,,,,,,,,,,0,0,0,0,0,50,50,74,,,,849.5272147999985,None,848.3436695,849.5441534000001,a,1,清秀,k,1,0.402521699999852,0.5898928000005981,jzh,m,19,2024_Apr_19_1711,mian,2021.2.3,59.89942885911095,
,,,,,,1,1,pic/flanker5.png,pic/flanker3.png,a,k,pic/AffRest1.png,,,,,,,,,,,,,,,,,,,,,,,,,0,0,0,0,0,51,51,60,,,,852.4270574999991,None,851.2440138000002,852.4437054999999,a,1,畅销,k,1,0.43987840000045253,0.9543071999996755,jzh,m,19,2024_Apr_19_1711,mian,2021.2.3,59.89942885911095,
,,,,,,0,1,pic/flanker5.png,pic/flanker1.png,s,k,pic/AffRest1.png,,,,,,,,,,,,,,,,,,,,,,,,,0,0,0,0,0,52,52,48,,,,855.8104210999991,None,854.6270681999995,855.8265452999985,s,1,奉献,k,1,0.4162808999990375,0.5475960999992822,jzh,m,19,2024_Apr_19_1711,mian,2021.2.3,59.89942885911095,
,,,,,,1,0,pic/flanker5.png,pic/flanker3.png,a,l,pic/AffRest1.png,,,,,,,,,,,,,,,,,,,,,,,,,0,0,0,0,0,53,53,71,,,,858.8440319999991,None,857.6605506999986,858.8606316999994,a,1,落后,l,1,0.4271938999991107,0.6276691000002756,jzh,m,19,2024_Apr_19_1711,mian,2021.2.3,59.89942885911095,
,,,,,,0,1,pic/flanker6.png,pic/flanker2.png,a,k,pic/AffRest1.png,,,,,,,,,,,,,,,,,,,,,,,,,0,0,0,0,0,54,54,58,,,,861.9439702,None,860.7620700999996,861.9766315999987,a,1,瑰丽,k,1,0.3729973000008613,0.5608084999985294,jzh,m,19,2024_Apr_19_1711,mian,2021.2.3,59.89942885911095,
,,,,,,1,1,pic/flanker6.png,pic/flanker4.png,s,k,pic/AffRest1.png,,,,,,,,,,,,,,,,,,,,,,,,,0,0,0,0,0,55,55,70,,,,864.7939332999995,None,863.6106094999996,864.8105742999996,s,1,舒畅,k,1,0.39256679999925836,0.5047453000006499,jzh,m,19,2024_Apr_19_1711,mian,2021.2.3,59.89942885911095,
,,,,,,0,0,pic/flanker6.png,pic/flanker2.png,a,l,pic/AffRest1.png,,,,,,,,,,,,,,,,,,,,,,,,,0,0,0,0,0,56,56,65,,,,867.6264426999987,None,866.4437966999994,867.6435151999995,a,1,自卑,l,1,0.3573596999995061,0.9680601999989449,jzh,m,19,2024_Apr_19_1711,mian,2021.2.3,59.89942885911095,
,,,,,,0,1,pic/flanker5.png,pic/flanker1.png,s,k,pic/AffRest1.png,,,,,,,,,,,,,,,,,,,,,,,,,0,0,0,0,0,57,57,24,,,,870.9938162999988,None,869.8101649,871.0105575999987,s,1,生动,k,1,1.1762801999993826,0.5796166999989509,jzh,m,19,2024_Apr_19_1711,mian,2021.2.3,59.89942885911095,
,,,,,,1,1,pic/flanker6.png,pic/flanker4.png,s,k,pic/AffRest1.png,,,,,,,,,,,,,,,,,,,,,,,,,0,0,0,0,0,58,58,54,,,,874.7106144999998,None,873.5273020999994,874.7272316999988,s,1,敬佩,k,1,0.4059644999997545,0.4778057000003173,jzh,m,19,2024_Apr_19_1711,mian,2021.2.3,59.89942885911095,
,,,,,,1,1,pic/flanker5.png,pic/flanker3.png,a,k,pic/AffRest1.png,,,,,,,,,,,,,,,,,,,,,,,,,0,0,0,0,0,59,59,44,,,,877.6772017999992,None,876.4941553999997,877.6937483000002,a,1,旺盛,k,1,0.4114735000002838,0.5008446000010736,jzh,m,19,2024_Apr_19_1711,mian,2021.2.3,59.89942885911095,
,,,,,,0,1,pic/flanker5.png,pic/flanker1.png,s,k,pic/AffRest1.png,,,,,,,,,,,,,,,,,,,,,,,,,0,0,0,0,0,60,60,56,,,,880.4440046999989,None,879.2598340999994,880.4605630999995,s,1,留恋,k,1,1.0233201999999437,0.897454399999333,jzh,m,19,2024_Apr_19_1711,mian,2021.2.3,59.89942885911095,
,,,,,,0,0,pic/flanker6.png,pic/flanker2.png,a,l,pic/AffRest1.png,,,,,,,,,,,,,,,,,,,,,,,,,0,0,0,0,0,61,61,33,,,,884.3938254999994,None,883.2104674000002,884.4104443999986,a,1,沮丧,k,0,0.39320910000060394,0.988169199999902,jzh,m,19,2024_Apr_19_1711,mian,2021.2.3,59.89942885911095,
,,,,,,0,1,pic/flanker5.png,pic/flanker1.png,s,k,pic/AffRest1.png,,,,,,,,,,,,,,,,,,,,,,,,,0,0,0,0,0,62,62,40,,,,887.8274113999996,None,886.6438691999992,887.8441451999988,s,1,永恒,l,0,0.41566860000057204,0.5651146000000153,jzh,m,19,2024_Apr_19_1711,mian,2021.2.3,59.89942885911095,
,,,,,,0,0,pic/flanker5.png,pic/flanker1.png,s,l,pic/AffRest1.png,,,,,,,,,,,,,,,,,,,,,,,,,0,0,0,0,0,63,63,19,,,,890.7938997000001,None,889.6104386999996,890.8103702999997,s,1,逃避,l,1,0.45713679999971646,0.8881665999997495,jzh,m,19,2024_Apr_19_1711,mian,2021.2.3,59.89942885911095,
,,,,,,0,1,pic/flanker6.png,pic/flanker2.png,a,k,pic/AffRest1.png,,,,,,,,,,,,,,,,,,,,,,,,,0,0,0,0,0,64,64,66,,,,894.1106194999993,None,892.9269457999999,894.1272601000001,None,0,珍藏,k,1,,0.9877463999982865,jzh,m,19,2024_Apr_19_1711,mian,2021.2.3,59.89942885911095,
,,,,,,0,0,pic/flanker6.png,pic/flanker2.png,a,l,pic/AffRest1.png,,,,,,,,,,,,,,,,,,,,,,,,,0,0,0,0,0,65,65,1,,,,898.4271271999987,None,897.2437518999996,898.4439165000003,a,1,禁止,l,1,0.3687195000002248,0.6549673000008625,jzh,m,19,2024_Apr_19_1711,mian,2021.2.3,59.89942885911095,
,,,,,,1,1,pic/flanker5.png,pic/flanker3.png,a,k,pic/AffRest1.png,,,,,,,,,,,,,,,,,,,,,,,,,0,0,0,0,0,66,66,12,,,,901.4440644999995,None,900.2604639000001,901.4607759999999,a,1,雄厚,k,1,0.4386782999990828,0.5292483000011998,jzh,m,19,2024_Apr_19_1711,mian,2021.2.3,59.89942885911095,
,,,,,,1,0,pic/flanker6.png,pic/flanker4.png,s,l,pic/AffRest1.png,,,,,,,,,,,,,,,,,,,,,,,,,0,0,0,0,0,67,67,29,,,,904.4604804999999,None,903.2772022999998,904.4771982999991,s,1,丢失,l,1,0.42282410000007076,0.6028573999992659,jzh,m,19,2024_Apr_19_1711,mian,2021.2.3,59.89942885911095,
,,,,,,0,0,pic/flanker6.png,pic/flanker2.png,a,l,pic/AffRest1.png,,,,,,,,,,,,,,,,,,,,,,,,,0,0,0,0,0,68,68,57,,,,907.3938488999993,None,906.2105492999999,907.4107900999988,None,0,焦躁,l,1,,0.8521536000007472,jzh,m,19,2024_Apr_19_1711,mian,2021.2.3,59.89942885911095,
,,,,,,1,0,pic/flanker6.png,pic/flanker4.png,s,l,pic/AffRest1.png,,,,,,,,,,,,,,,,,,,,,,,,,0,0,0,0,0,69,69,13,,,,911.6272066000001,None,910.4439272,911.6438648000003,s,1,嘲笑,l,1,0.4497952000001533,0.5892536000010296,jzh,m,19,2024_Apr_19_1711,mian,2021.2.3,59.89942885911095,
,,,,,,1,1,pic/flanker6.png,pic/flanker4.png,s,k,pic/AffRest1.png,,,,,,,,,,,,,,,,,,,,,,,,,0,0,0,0,0,70,70,30,,,,914.5940867999998,None,913.4104594,914.6106158000002,s,1,吉祥,k,1,0.40480700000080105,0.5161937000011676,jzh,m,19,2024_Apr_19_1711,mian,2021.2.3,59.89942885911095,
,,,,,,0,1,pic/flanker5.png,pic/flanker1.png,s,k,pic/AffRest1.png,,,,,,,,,,,,,,,,,,,,,,,,,0,0,0,0,0,71,71,0,,,,917.5437390999996,None,916.3603872000003,917.5605883999997,s,1,热切,k,1,0.38537729999916337,0.7579339000003529,jzh,m,19,2024_Apr_19_1711,mian,2021.2.3,59.89942885911095,
,,,,,,0,0,pic/flanker6.png,pic/flanker2.png,a,l,pic/AffRest1.png,,,,,,,,,,,,,,,,,,,,,,,,,0,0,0,0,0,72,72,25,,,,920.7607239999998,None,919.577147,920.7773794999994,a,1,争吵,l,1,0.3835780999997951,0.48976089999996475,jzh,m,19,2024_Apr_19_1711,mian,2021.2.3,59.89942885911095,
,,,,,,0,0,pic/flanker5.png,pic/flanker1.png,s,l,pic/AffRest1.png,,,,,,,,,,,,,,,,,,,,,,,,,0,0,0,0,0,73,73,3,,,,923.6439382999997,None,922.4604717999991,923.6604867999995,s,1,闷热,l,1,0.952629599998545,0.7605211000009149,jzh,m,19,2024_Apr_19_1711,mian,2021.2.3,59.89942885911095,
,,,,,,0,0,pic/flanker5.png,pic/flanker1.png,s,l,pic/AffRest1.png,,,,,,,,,,,,,,,,,,,,,,,,,0,0,0,0,0,74,74,75,,,,927.2603614999989,None,926.0770686999986,927.2770856999996,s,1,堵塞,k,0,0.3196029999999155,0.5378383999996004,jzh,m,19,2024_Apr_19_1711,mian,2021.2.3,59.89942885911095,
,,,,,,1,1,pic/flanker5.png,pic/flanker3.png,a,k,pic/AffRest1.png,,,,,,,,,,,,,,,,,,,,,,,,,0,0,0,0,0,75,75,52,,,,930.060512,None,928.8778772999995,930.0769990999997,a,1,卓越,k,1,0.4295737000011286,0.5238558000000921,jzh,m,19,2024_Apr_19_1711,mian,2021.2.3,59.89942885911095,
,,,,,,1,0,pic/flanker6.png,pic/flanker4.png,s,l,pic/AffRest1.png,,,,,,,,,,,,,,,,,,,,,,,,,0,0,0,0,0,76,76,77,,,,932.9102979999989,None,931.7271298999985,932.926996799999,s,1,浪费,l,1,0.4118369999996503,0.6605373000002146,jzh,m,19,2024_Apr_19_1711,mian,2021.2.3,59.89942885911095,
,,,,,,1,0,pic/flanker6.png,pic/flanker4.png,s,l,pic/AffRest1.png,,,,,,,,,,,,,,,,,,,,,,,,,0,0,0,0,0,77,77,21,,,,936.0430798999987,None,934.8603291,936.0605344999985,s,1,悲观,l,1,0.402166899999429,0.7078930999996373,jzh,m,19,2024_Apr_19_1711,mian,2021.2.3,59.89942885911095,
,,,,,,0,0,pic/flanker5.png,pic/flanker1.png,s,l,pic/AffRest1.png,,,,,,,,,,,,,,,,,,,,,,,,,0,0,0,0,0,78,78,43,,,,939.2437149999987,None,938.0603573999997,939.2605382000002,s,1,消沉,l,1,0.3388462000002619,0.6305993999994826,jzh,m,19,2024_Apr_19_1711,mian,2021.2.3,59.89942885911095,
,,,,,,1,1,pic/flanker6.png,pic/flanker4.png,s,k,pic/AffRest1.png,,,,,,,,,,,,,,,,,,,,,,,,,0,0,0,0,0,79,79,38,,,,942.2935882000002,None,941.1104168999991,942.310668099999,s,1,赞成,k,1,0.4124375000010332,0.529892500000642,jzh,m,19,2024_Apr_19_1711,mian,2021.2.3,59.89942885911095,
,,,,,,,,,,,,pic/AffRest1.png,,,,,,,,,,,,,,,,,,,,,,,,,0,0,0,0,,,,,,,,,,,,,,,,,,,jzh,m,19,2024_Apr_19_1711,mian,2021.2.3,59.89942885911095,
,,,,,,1,0,pic/flanker5.png,pic/flanker3.png,a,l,pic/AffRest2.png,,,,,,,,,,,,,,,,,,,,,,,,,0,1,1,1,0,0,0,55,,,,951.3273090000002,None,950.1343992000002,951.3440456999997,a,1,伤心,l,1,0.4552860999992845,1.1567970000014611,jzh,m,19,2024_Apr_19_1711,mian,2021.2.3,59.89942885911095,
,,,,,,1,0,pic/flanker5.png,pic/flanker3.png,a,l,pic/AffRest2.png,,,,,,,,,,,,,,,,,,,,,,,,,0,1,1,1,0,1,1,31,,,,954.9605133999994,None,953.7766123000001,954.9770650999999,a,1,鲁莽,k,0,0.35612460000083956,0.6853011999992304,jzh,m,19,2024_Apr_19_1711,mian,2021.2.3,59.89942885911095,
,,,,,,1,1,pic/flanker5.png,pic/flanker3.png,a,k,pic/AffRest2.png,,,,,,,,,,,,,,,,,,,,,,,,,0,1,1,1,0,2,2,60,,,,957.8604438000002,None,956.677035499999,957.8771641999992,a,1,羡慕,k,1,0.4050431999985449,0.5877720000007685,jzh,m,19,2024_Apr_19_1711,mian,2021.2.3,59.89942885911095,
,,,,,,1,0,pic/flanker5.png,pic/flanker3.png,a,l,pic/AffRest2.png,,,,,,,,,,,,,,,,,,,,,,,,,0,1,1,1,0,3,3,39,,,,960.7605418000003,None,959.5769756999998,960.7771369999991,a,1,自卑,l,1,0.38658419999956095,0.6634716999997181,jzh,m,19,2024_Apr_19_1711,mian,2021.2.3,59.89942885911095,
,,,,,,0,1,pic/flanker5.png,pic/flanker1.png,s,k,pic/AffRest2.png,,,,,,,,,,,,,,,,,,,,,,,,,0,1,1,1,0,4,4,64,,,,963.6603759999998,None,962.4768298999988,963.6770029999989,s,1,生动,k,1,0.9883097000001726,0.7110573999998451,jzh,m,19,2024_Apr_19_1711,mian,2021.2.3,59.89942885911095,
,,,,,,0,0,pic/flanker6.png,pic/flanker2.png,a,l,pic/AffRest2.png,,,,,,,,,,,,,,,,,,,,,,,,,0,1,1,1,0,5,5,57,,,,967.2935163999991,None,966.110430499999,967.3103276000002,a,1,杂乱,l,1,0.45716560000073514,0.8589524999988498,jzh,m,19,2024_Apr_19_1711,mian,2021.2.3,59.89942885911095,
,,,,,,0,1,pic/flanker5.png,pic/flanker1.png,s,k,pic/AffRest2.png,,,,,,,,,,,,,,,,,,,,,,,,,0,1,1,1,0,6,6,0,,,,970.6605473,None,969.4770792999989,970.6770452000001,s,1,如愿,k,1,0.4754859000004217,0.736682100001417,jzh,m,19,2024_Apr_19_1711,mian,2021.2.3,59.89942885911095,
,,,,,,1,1,pic/flanker6.png,pic/flanker4.png,s,k,pic/AffRest2.png,,,,,,,,,,,,,,,,,,,,,,,,,0,1,1,1,0,7,7,46,,,,973.8604216000003,None,972.6769042999986,973.8770731999994,s,1,卓越,k,1,0.4099251000006916,0.7648475999994844,jzh,m,19,2024_Apr_19_1711,mian,2021.2.3,59.89942885911095,
,,,,,,0,0,pic/flanker5.png,pic/flanker1.png,s,l,pic/AffRest2.png,,,,,,,,,,,,,,,,,,,,,,,,,0,1,1,1,0,8,8,75,,,,977.0269319999989,None,975.8434087999995,977.0434968999998,s,1,轻率,l,1,0.3367987000001449,0.748533200001475,jzh,m,19,2024_Apr_19_1711,mian,2021.2.3,59.89942885911095,
,,,,,,0,0,pic/flanker6.png,pic/flanker2.png,a,l,pic/AffRest2.png,,,,,,,,,,,,,,,,,,,,,,,,,0,1,1,1,0,9,9,1,,,,979.9434884999991,None,978.7601976999995,979.9603157999991,a,1,厌恶,l,1,0.4679443999993964,0.6652529000002687,jzh,m,19,2024_Apr_19_1711,mian,2021.2.3,59.89942885911095,
,,,,,,0,0,pic/flanker6.png,pic/flanker2.png,a,l,pic/AffRest2.png,,,,,,,,,,,,,,,,,,,,,,,,,0,1,1,1,0,10,10,41,,,,983.0605574000001,None,981.8770109999987,983.0773183000001,a,1,别扭,l,1,0.3751409999986208,0.6726712999989104,jzh,m,19,2024_Apr_19_1711,mian,2021.2.3,59.89942885911095,
,,,,,,0,0,pic/flanker5.png,pic/flanker1.png,s,l,pic/AffRest2.png,,,,,,,,,,,,,,,,,,,,,,,,,0,1,1,1,0,11,11,3,,,,986.0268940999995,None,984.8431131999987,986.0435973000003,s,1,孤单,l,1,0.2922988999998779,0.7397985999996308,jzh,m,19,2024_Apr_19_1711,mian,2021.2.3,59.89942885911095,
,,,,,,0,0,pic/flanker5.png,pic/flanker1.png,s,l,pic/AffRest2.png,,,,,,,,,,,,,,,,,,,,,,,,,0,1,1,1,0,12,12,43,,,,989.0105353999988,None,987.8270400000001,989.0267950999987,s,1,悲观,l,1,0.30721769999945536,0.8768746000005194,jzh,m,19,2024_Apr_19_1711,mian,2021.2.3,59.89942885911095,
,,,,,,0,1,pic/flanker6.png,pic/flanker2.png,a,k,pic/AffRest2.png,,,,,,,,,,,,,,,,,,,,,,,,,0,1,1,1,0,13,13,34,,,,992.2270306999999,None,991.0435804999997,992.2434553000003,a,1,旺盛,k,1,0.5230854999990697,0.5822105999995983,jzh,m,19,2024_Apr_19_1711,mian,2021.2.3,59.89942885911095,
,,,,,,0,0,pic/flanker5.png,pic/flanker1.png,s,l,pic/AffRest2.png,,,,,,,,,,,,,,,,,,,,,,,,,0,1,1,1,0,14,14,59,,,,995.2771112999999,None,994.0936002999988,995.2936904999988,s,1,争吵,l,1,0.2819383999994898,0.6924637000010989,jzh,m,19,2024_Apr_19_1711,mian,2021.2.3,59.89942885911095,
,,,,,,0,1,pic/flanker5.png,pic/flanker1.png,s,k,pic/AffRest2.png,,,,,,,,,,,,,,,,,,,,,,,,,0,1,1,1,0,15,15,8,,,,998.1099190999994,None,996.9266413999994,998.1265820999997,s,1,典雅,k,1,0.40610259999994014,0.5389491000005364,jzh,m,19,2024_Apr_19_1711,mian,2021.2.3,59.89942885911095,
,,,,,,1,1,pic/flanker6.png,pic/flanker4.png,s,k,pic/AffRest2.png,,,,,,,,,,,,,,,,,,,,,,,,,0,1,1,1,0,16,16,62,,,,1001.0270134000002,None,999.8435797000002,1001.0435538999991,s,1,有利,k,1,0.42408120000072813,0.6025836000007985,jzh,m,19,2024_Apr_19_1711,mian,2021.2.3,59.89942885911095,
,,,,,,0,1,pic/flanker5.png,pic/flanker1.png,s,k,pic/AffRest2.png,,,,,,,,,,,,,,,,,,,,,,,,,0,1,1,1,0,17,17,72,,,,1003.8936385999987,None,1002.7103432999993,1003.9101568999995,s,1,敬佩,k,1,0.33605329999954847,0.6279969999995956,jzh,m,19,2024_Apr_19_1711,mian,2021.2.3,59.89942885911095,
,,,,,,1,0,pic/flanker5.png,pic/flanker3.png,a,l,pic/AffRest2.png,,,,,,,,,,,,,,,,,,,,,,,,,0,1,1,1,0,18,18,47,,,,1006.8770800000002,None,1005.6934951000003,1006.8936629999989,a,1,浪费,l,1,0.4166201000007277,1.575138700000025,jzh,m,19,2024_Apr_19_1711,mian,2021.2.3,59.89942885911095,
,,,,,,1,1,pic/flanker6.png,pic/flanker4.png,s,k,pic/AffRest2.png,,,,,,,,,,,,,,,,,,,,,,,,,0,1,1,1,0,19,19,14,,,,1010.726496199999,None,1009.5435086999987,1010.7430578000003,s,1,畅销,k,1,0.4352562999993097,0.5271615000001475,jzh,m,19,2024_Apr_19_1711,mian,2021.2.3,59.89942885911095,
,,,,,,1,1,pic/flanker6.png,pic/flanker4.png,s,k,pic/AffRest2.png,,,,,,,,,,,,,,,,,,,,,,,,,0,1,1,1,0,20,20,22,,,,1013.6598708000001,None,1012.4765625,1013.6765923000003,s,1,永恒,k,1,0.3637094000005163,0.5590654000006907,jzh,m,19,2024_Apr_19_1711,mian,2021.2.3,59.89942885911095,
,,,,,,0,0,pic/flanker5.png,pic/flanker1.png,s,l,pic/AffRest2.png,,,,,,,,,,,,,,,,,,,,,,,,,0,1,1,1,0,21,21,35,,,,1016.5769435000002,None,1015.3935251000003,1016.5930814000003,s,1,逃避,l,1,0.37334310000005644,1.2991034000006039,jzh,m,19,2024_Apr_19_1711,mian,2021.2.3,59.89942885911095,
,,,,,,1,0,pic/flanker6.png,pic/flanker4.png,s,l,pic/AffRest2.png,,,,,,,,,,,,,,,,,,,,,,,,,0,1,1,1,0,22,22,37,,,,1020.226856199999,None,1019.0428892999989,1020.2430851999998,None,0,沮丧,l,1,,0.8415252000013425,jzh,m,19,2024_Apr_19_1711,mian,2021.2.3,59.89942885911095,
,,,,,,0,1,pic/flanker6.png,pic/flanker2.png,a,k,pic/AffRest2.png,,,,,,,,,,,,,,,,,,,,,,,,,0,1,1,1,0,23,23,10,,,,1024.4939945999995,None,1023.3104086000003,1024.5106300999996,a,1,顽强,k,1,0.45456799999919895,0.5155613999995694,jzh,m,19,2024_Apr_19_1711,mian,2021.2.3,59.89942885911095,
,,,,,,1,1,pic/flanker5.png,pic/flanker3.png,a,k,pic/AffRest2.png,,,,,,,,,,,,,,,,,,,,,,,,,0,1,1,1,0,24,24,36,,,,1027.4268943999996,None,1026.2429324999994,1027.4430477999995,s,0,瑰丽,k,1,0.3838900000009744,0.5750509000008606,jzh,m,19,2024_Apr_19_1711,mian,2021.2.3,59.89942885911095,
,,,,,,1,1,pic/flanker6.png,pic/flanker4.png,s,k,pic/AffRest2.png,,,,,,,,,,,,,,,,,,,,,,,,,0,1,1,1,0,25,25,78,,,,1030.4263543999987,None,1029.2434885000002,1030.4431129999994,s,1,吉祥,k,1,0.42144849999931466,0.44551250000040454,jzh,m,19,2024_Apr_19_1711,mian,2021.2.3,59.89942885911095,
,,,,,,1,0,pic/flanker5.png,pic/flanker3.png,a,l,pic/AffRest2.png,,,,,,,,,,,,,,,,,,,,,,,,,0,1,1,1,0,26,26,63,,,,1033.2435901999997,None,1032.0603097000003,1033.2601587999998,a,1,丢失,l,1,0.4242943999997806,0.6233912000006967,jzh,m,19,2024_Apr_19_1711,mian,2021.2.3,59.89942885911095,
,,,,,,0,1,pic/flanker6.png,pic/flanker2.png,a,k,pic/AffRest2.png,,,,,,,,,,,,,,,,,,,,,,,,,0,1,1,1,0,27,27,42,,,,1036.2270646999987,None,1035.0436063999987,1036.2429696999989,a,1,前进,k,1,0.4423951000007946,0.6635017999997217,jzh,m,19,2024_Apr_19_1711,mian,2021.2.3,59.89942885911095,
,,,,,,0,1,pic/flanker5.png,pic/flanker1.png,s,k,pic/AffRest2.png,,,,,,,,,,,,,,,,,,,,,,,,,0,1,1,1,0,28,28,48,,,,1039.3269616999987,None,1038.143521099999,1039.3437302000002,s,1,正直,k,1,0.2858990000004269,0.46215289999963716,jzh,m,19,2024_Apr_19_1711,mian,2021.2.3,59.89942885911095,
,,,,,,1,1,pic/flanker5.png,pic/flanker3.png,a,k,pic/AffRest2.png,,,,,,,,,,,,,,,,,,,,,,,,,0,1,1,1,0,29,29,12,,,,1042.0436383999986,None,1040.8603432,1042.060293999999,s,0,雄厚,k,1,0.39054489999944053,0.6218769999995857,jzh,m,19,2024_Apr_19_1711,mian,2021.2.3,59.89942885911095,
,,,,,,0,1,pic/flanker6.png,pic/flanker2.png,a,k,pic/AffRest2.png,,,,,,,,,,,,,,,,,,,,,,,,,0,1,1,1,0,30,30,66,,,,1044.9772252000002,None,1043.793621499999,1044.9939173999992,a,1,秀丽,k,1,0.3389069000004383,0.49615319999975327,jzh,m,19,2024_Apr_19_1711,mian,2021.2.3,59.89942885911095,
,,,,,,1,1,pic/flanker6.png,pic/flanker4.png,s,k,pic/AffRest2.png,,,,,,,,,,,,,,,,,,,,,,,,,0,1,1,1,0,31,31,6,,,,1047.710315299999,None,1046.5268074999985,1047.7268153999994,s,1,留恋,k,1,0.4931601000007504,0.5703995999992912,jzh,m,19,2024_Apr_19_1711,mian,2021.2.3,59.89942885911095,
,,,,,,1,0,pic/flanker6.png,pic/flanker4.png,s,l,pic/AffRest2.png,,,,,,,,,,,,,,,,,,,,,,,,,0,1,1,1,0,32,32,61,,,,1050.7103967999992,None,1049.5268072999988,1050.7270669999998,s,1,懒惰,l,1,0.4324501000010059,0.7014005000000907,jzh,m,19,2024_Apr_19_1711,mian,2021.2.3,59.89942885911095,
,,,,,,1,0,pic/flanker6.png,pic/flanker4.png,s,l,pic/AffRest2.png,,,,,,,,,,,,,,,,,,,,,,,,,0,1,1,1,0,33,33,29,,,,1053.8936073999994,None,1052.7101320000002,1053.9104153999997,s,1,忧虑,k,0,0.5080760000000737,0.6139731999992364,jzh,m,19,2024_Apr_19_1711,mian,2021.2.3,59.89942885911095,
,,,,,,1,1,pic/flanker6.png,pic/flanker4.png,s,k,pic/AffRest2.png,,,,,,,,,,,,,,,,,,,,,,,,,0,1,1,1,0,34,34,70,,,,1057.0268844999991,None,1055.843517199999,1057.0438636,s,1,赞成,k,1,0.47058969999852707,0.632010999999693,jzh,m,19,2024_Apr_19_1711,mian,2021.2.3,59.89942885911095,
,,,,,,0,1,pic/flanker5.png,pic/flanker1.png,s,k,pic/AffRest2.png,,,,,,,,,,,,,,,,,,,,,,,,,0,1,1,1,0,35,35,24,,,,1059.9769964999996,None,1058.7935492999986,1059.9933886999988,s,1,奉献,k,1,0.3503268999993452,0.6918064000001323,jzh,m,19,2024_Apr_19_1711,mian,2021.2.3,59.89942885911095,
,,,,,,1,0,pic/flanker6.png,pic/flanker4.png,s,l,pic/AffRest2.png,,,,,,,,,,,,,,,,,,,,,,,,,0,1,1,1,0,36,36,77,,,,1063.026911699999,None,1061.8436635999988,1063.0438202999994,s,1,撒谎,l,1,0.4919631000011577,0.548175199999605,jzh,m,19,2024_Apr_19_1711,mian,2021.2.3,59.89942885911095,
,,,,,,0,0,pic/flanker5.png,pic/flanker1.png,s,l,pic/AffRest2.png,,,,,,,,,,,,,,,,,,,,,,,,,0,1,1,1,0,37,37,19,,,,1065.9435541999992,None,1064.7601772999988,1065.9602908999987,s,1,慌忙,l,1,0.3544987000004767,1.8402960999992501,jzh,m,19,2024_Apr_19_1711,mian,2021.2.3,59.89942885911095,
,,,,,,1,1,pic/flanker5.png,pic/flanker3.png,a,k,pic/AffRest2.png,,,,,,,,,,,,,,,,,,,,,,,,,0,1,1,1,0,38,38,20,,,,1070.0933564999996,None,1068.9097021999987,1070.1099854999993,a,1,圣洁,k,1,0.46202070000072126,0.5442041999995126,jzh,m,19,2024_Apr_19_1711,mian,2021.2.3,59.89942885911095,
,,,,,,1,0,pic/flanker6.png,pic/flanker4.png,s,l,pic/AffRest2.png,,,,,,,,,,,,,,,,,,,,,,,,,0,1,1,1,0,39,39,45,,,,1073.076667199999,None,1071.8929116,1073.0936626000002,s,1,黑暗,k,0,0.41363819999969564,0.4890512999991188,jzh,m,19,2024_Apr_19_1711,mian,2021.2.3,59.89942885911095,
,,,,,,0,1,pic/flanker5.png,pic/flanker1.png,s,k,pic/AffRest2.png,,,,,,,,,,,,,,,,,,,,,,,,,0,1,1,1,0,40,40,32,,,,1076.0103628999987,None,1074.826981099999,1076.0269885999987,s,1,公平,k,1,0.39028630000029807,0.49193449999984296,jzh,m,19,2024_Apr_19_1711,mian,2021.2.3,59.89942885911095,
,,,,,,1,0,pic/flanker5.png,pic/flanker3.png,a,l,pic/AffRest2.png,,,,,,,,,,,,,,,,,,,,,,,,,0,1,1,1,0,41,41,71,,,,1078.726942199999,None,1077.5434752,1078.7434073999993,a,1,烦恼,l,1,0.5147962999999436,0.6426998999995703,jzh,m,19,2024_Apr_19_1711,mian,2021.2.3,59.89942885911095,
,,,,,,0,1,pic/flanker6.png,pic/flanker2.png,a,k,pic/AffRest2.png,,,,,,,,,,,,,,,,,,,,,,,,,0,1,1,1,0,42,42,18,,,,1081.9267021999985,None,1080.7436923999994,1081.9438785999992,s,0,舒畅,k,1,0.3878595000005589,0.5786407999985386,jzh,m,19,2024_Apr_19_1711,mian,2021.2.3,59.89942885911095,
,,,,,,0,0,pic/flanker6.png,pic/flanker2.png,a,l,pic/AffRest2.png,,,,,,,,,,,,,,,,,,,,,,,,,0,1,1,1,0,43,43,25,,,,1084.727028899999,None,1083.543652299999,1084.7436751999994,a,1,禁止,l,1,1.1628114000013738,1.0705854999996518,jzh,m,19,2024_Apr_19_1711,mian,2021.2.3,59.89942885911095,
,,,,,,0,0,pic/flanker6.png,pic/flanker2.png,a,l,pic/AffRest2.png,,,,,,,,,,,,,,,,,,,,,,,,,0,1,1,1,0,44,44,65,,,,1088.9435618999996,None,1087.7603072000002,1088.9602493000002,a,1,落后,k,0,0.3739210000003368,1.3633417000000918,jzh,m,19,2024_Apr_19_1711,mian,2021.2.3,59.89942885911095,
,,,,,,1,0,pic/flanker6.png,pic/flanker4.png,s,l,pic/AffRest2.png,,,,,,,,,,,,,,,,,,,,,,,,,0,1,1,1,0,45,45,21,,,,1092.6268206999994,None,1091.443427099999,1092.6436637999996,s,1,闷热,k,0,0.4382770000011078,0.6884848999998212,jzh,m,19,2024_Apr_19_1711,mian,2021.2.3,59.89942885911095,
,,,,,,0,0,pic/flanker6.png,pic/flanker2.png,a,l,pic/AffRest2.png,,,,,,,,,,,,,,,,,,,,,,,,,0,1,1,1,0,46,46,9,,,,1095.6601264,None,1094.4768236,1095.6768964999992,a,1,嘲笑,l,1,0.39832010000100126,0.5856285999998363,jzh,m,19,2024_Apr_19_1711,mian,2021.2.3,59.89942885911095,
,,,,,,0,1,pic/flanker5.png,pic/flanker1.png,s,k,pic/AffRest2.png,,,,,,,,,,,,,,,,,,,,,,,,,0,1,1,1,0,47,47,56,,,,1098.5268072,None,1097.3436278999998,1098.5436682,s,1,珍藏,k,1,0.2877918000012869,0.7006897000010213,jzh,m,19,2024_Apr_19_1711,mian,2021.2.3,59.89942885911095,
,,,,,,0,0,pic/flanker6.png,pic/flanker2.png,a,l,pic/AffRest2.png,,,,,,,,,,,,,,,,,,,,,,,,,0,1,1,1,0,48,48,73,,,,1101.426607899999,None,1100.2428019,1101.4434089999995,a,1,冷笑,l,1,0.3656180999987555,0.6603985000001558,jzh,m,19,2024_Apr_19_1711,mian,2021.2.3,59.89942885911095,
,,,,,,0,1,pic/flanker5.png,pic/flanker1.png,s,k,pic/AffRest2.png,,,,,,,,,,,,,,,,,,,,,,,,,0,1,1,1,0,49,49,16,,,,1104.4602713999993,None,1103.2764071000001,1104.4768930999999,s,1,诚恳,k,1,0.3442374000005657,0.5514514000005875,jzh,m,19,2024_Apr_19_1711,mian,2021.2.3,59.89942885911095,
,,,,,,1,1,pic/flanker5.png,pic/flanker3.png,a,k,pic/AffRest2.png,,,,,,,,,,,,,,,,,,,,,,,,,0,1,1,1,0,50,50,52,,,,1107.3600922999995,None,1106.1769234000003,1107.376910699999,a,1,豪放,k,1,0.5162430000000313,0.6368418000001839,jzh,m,19,2024_Apr_19_1711,mian,2021.2.3,59.89942885911095,
,,,,,,1,0,pic/flanker5.png,pic/flanker3.png,a,l,pic/AffRest2.png,,,,,,,,,,,,,,,,,,,,,,,,,0,1,1,1,0,51,51,15,,,,1110.4266393999987,None,1109.2435890999986,1110.4436776999992,a,1,消沉,k,0,0.41948500000034983,0.532035199999882,jzh,m,19,2024_Apr_19_1711,mian,2021.2.3,59.89942885911095,
,,,,,,0,0,pic/flanker5.png,pic/flanker1.png,s,l,pic/AffRest2.png,,,,,,,,,,,,,,,,,,,,,,,,,0,1,1,1,0,52,52,11,,,,1113.260242299999,None,1112.0768131999994,1113.2769509999998,s,1,损害,l,1,0.3514883000007103,0.7736317999988387,jzh,m,19,2024_Apr_19_1711,mian,2021.2.3,59.89942885911095,
,,,,,,1,0,pic/flanker6.png,pic/flanker4.png,s,l,pic/AffRest2.png,,,,,,,,,,,,,,,,,,,,,,,,,0,1,1,1,0,53,53,53,,,,1116.2770874999987,None,1115.093442899999,1116.2935147999997,s,1,假冒,l,1,0.9077670000006037,0.7814465999999811,jzh,m,19,2024_Apr_19_1711,mian,2021.2.3,59.89942885911095,
,,,,,,1,1,pic/flanker6.png,pic/flanker4.png,s,k,pic/AffRest2.png,,,,,,,,,,,,,,,,,,,,,,,,,0,1,1,1,0,54,54,38,,,,1119.9267401999987,None,1118.7435036999996,1119.9434228999999,s,1,鲜艳,k,1,0.431360799999311,0.5586303000000044,jzh,m,19,2024_Apr_19_1711,mian,2021.2.3,59.89942885911095,
,,,,,,0,0,pic/flanker5.png,pic/flanker1.png,s,l,pic/AffRest2.png,,,,,,,,,,,,,,,,,,,,,,,,,0,1,1,1,0,55,55,67,,,,1122.876972,None,1121.6935861000002,1122.8934248999994,s,1,怀疑,k,0,0.5527879000001121,1.0054180999995879,jzh,m,19,2024_Apr_19_1711,mian,2021.2.3,59.89942885911095,
,,,,,,0,0,pic/flanker5.png,pic/flanker1.png,s,l,pic/AffRest2.png,,,,,,,,,,,,,,,,,,,,,,,,,0,1,1,1,0,56,56,27,,,,1126.4601117000002,None,1125.2768676999985,1126.4769650999988,s,1,堵塞,k,0,0.3629051999996591,0.4679054999996879,jzh,m,19,2024_Apr_19_1711,mian,2021.2.3,59.89942885911095,
,,,,,,0,0,pic/flanker6.png,pic/flanker2.png,a,l,pic/AffRest2.png,,,,,,,,,,,,,,,,,,,,,,,,,0,1,1,1,0,57,57,33,,,,1129.3266373999995,None,1128.1432179000003,1129.3433405999986,a,1,罚款,k,0,0.2631139000004623,0.5245132999989437,jzh,m,19,2024_Apr_19_1711,mian,2021.2.3,59.89942885911095,
,,,,,,1,0,pic/flanker5.png,pic/flanker3.png,a,l,pic/AffRest2.png,,,,,,,,,,,,,,,,,,,,,,,,,0,1,1,1,0,58,58,79,,,,1131.9601447999994,None,1130.7768610000003,1131.9765946999996,s,0,焦躁,l,1,0.27450599999974656,0.8064330000015616,jzh,m,19,2024_Apr_19_1711,mian,2021.2.3,59.89942885911095,
,,,,,,1,1,pic/flanker5.png,pic/flanker3.png,a,k,pic/AffRest2.png,,,,,,,,,,,,,,,,,,,,,,,,,0,1,1,1,0,59,59,76,,,,1135.0436405,None,1133.8601366999992,1135.0603869999995,s,0,精致,k,1,0.2781059000008099,0.6412603999997373,jzh,m,19,2024_Apr_19_1711,mian,2021.2.3,59.89942885911095,
,,,,,,1,1,pic/flanker6.png,pic/flanker4.png,s,k,pic/AffRest2.png,,,,,,,,,,,,,,,,,,,,,,,,,0,1,1,1,0,60,60,30,,,,1137.8101141999996,None,1136.6268124999988,1137.8267658999994,s,1,丰满,k,1,0.44248309999966295,0.5178130000003875,jzh,m,19,2024_Apr_19_1711,mian,2021.2.3,59.89942885911095,
,,,,,,0,1,pic/flanker6.png,pic/flanker2.png,a,k,pic/AffRest2.png,,,,,,,,,,,,,,,,,,,,,,,,,0,1,1,1,0,61,61,50,,,,1140.8266218999997,None,1139.6435727999997,1140.8436232999993,a,1,优雅,k,1,0.3831737999989855,0.5196179000013217,jzh,m,19,2024_Apr_19_1711,mian,2021.2.3,59.89942885911095,
,,,,,,1,0,pic/flanker5.png,pic/flanker3.png,a,l,pic/AffRest2.png,,,,,,,,,,,,,,,,,,,,,,,,,0,1,1,1,0,62,62,7,,,,1143.7769057999994,None,1142.5933748999996,1143.7935595999988,a,1,处罚,k,0,0.3754538000011962,1.2025632999993832,jzh,m,19,2024_Apr_19_1711,mian,2021.2.3,59.89942885911095,
,,,,,,1,0,pic/flanker6.png,pic/flanker4.png,s,l,pic/AffRest2.png,,,,,,,,,,,,,,,,,,,,,,,,,0,1,1,1,0,63,63,69,,,,1147.3602252,None,1146.1768718999992,1147.3769071999996,s,1,排斥,l,1,0.39104930000030436,0.6265254999998433,jzh,m,19,2024_Apr_19_1711,mian,2021.2.3,59.89942885911095,
,,,,,,1,1,pic/flanker5.png,pic/flanker3.png,a,k,pic/AffRest2.png,,,,,,,,,,,,,,,,,,,,,,,,,0,1,1,1,0,64,64,4,,,,1150.3772565,None,1149.193470799999,1150.3937637999989,a,1,振作,k,1,0.6850861999992048,0.6233682000001863,jzh,m,19,2024_Apr_19_1711,mian,2021.2.3,59.89942885911095,
,,,,,,0,0,pic/flanker6.png,pic/flanker2.png,a,l,pic/AffRest2.png,,,,,,,,,,,,,,,,,,,,,,,,,0,1,1,1,0,65,65,49,,,,1153.5435521999989,None,1152.359929799999,1153.5602344,a,1,穷苦,l,1,0.4176402000011876,1.3114792000014859,jzh,m,19,2024_Apr_19_1711,mian,2021.2.3,59.89942885911095,
,,,,,,0,0,pic/flanker6.png,pic/flanker2.png,a,l,pic/AffRest2.png,,,,,,,,,,,,,,,,,,,,,,,,,0,1,1,1,0,66,66,17,,,,1157.2769057999994,None,1156.0934203999986,1157.2935469999993,a,1,心慌,l,1,0.8515008999984275,0.6891837999992276,jzh,m,19,2024_Apr_19_1711,mian,2021.2.3,59.89942885911095,
,,,,,,0,1,pic/flanker5.png,pic/flanker1.png,s,k,pic/AffRest2.png,,,,,,,,,,,,,,,,,,,,,,,,,0,1,1,1,0,67,67,40,,,,1160.7600657000003,None,1159.5766045,1160.7768949000001,s,1,俊秀,k,1,0.4644294000008813,0.5317154000003939,jzh,m,19,2024_Apr_19_1711,mian,2021.2.3,59.89942885911095,
,,,,,,1,0,pic/flanker6.png,pic/flanker4.png,s,l,pic/AffRest2.png,,,,,,,,,,,,,,,,,,,,,,,,,0,1,1,1,0,68,68,13,,,,1163.6602115999995,None,1162.4766743,1163.6768925999986,s,1,缺乏,l,1,0.4665967000000819,1.1819627999993827,jzh,m,19,2024_Apr_19_1711,mian,2021.2.3,59.89942885911095,
,,,,,,1,0,pic/flanker5.png,pic/flanker3.png,a,l,pic/AffRest2.png,,,,,,,,,,,,,,,,,,,,,,,,,0,1,1,1,0,69,69,23,,,,1167.1601859999992,None,1165.9767761999992,1167.1768933999992,a,1,胡涂,l,1,0.46743399999832036,2.0865769000010914,jzh,m,19,2024_Apr_19_1711,mian,2021.2.3,59.89942885911095,
,,,,,,1,1,pic/flanker6.png,pic/flanker4.png,s,k,pic/AffRest2.png,,,,,,,,,,,,,,,,,,,,,,,,,0,1,1,1,0,70,70,54,,,,1171.7262914999992,None,1170.5435552999988,1171.7429984999999,s,1,享受,k,1,0.4342760999988968,0.5854954000005819,jzh,m,19,2024_Apr_19_1711,mian,2021.2.3,59.89942885911095,
,,,,,,1,1,pic/flanker5.png,pic/flanker3.png,a,k,pic/AffRest2.png,,,,,,,,,,,,,,,,,,,,,,,,,0,1,1,1,0,71,71,44,,,,1174.7434974999996,None,1173.5596397999998,1174.7603887999994,a,1,富足,k,1,0.48730280000017956,0.5824437999999645,jzh,m,19,2024_Apr_19_1711,mian,2021.2.3,59.89942885911095,
,,,,,,1,0,pic/flanker6.png,pic/flanker4.png,s,l,pic/AffRest2.png,,,,,,,,,,,,,,,,,,,,,,,,,0,1,1,1,0,72,72,5,,,,1177.7595554,None,1176.576932599999,1177.7767967,s,1,失意,l,1,0.41857230000096024,0.9307654000003822,jzh,m,19,2024_Apr_19_1711,mian,2021.2.3,59.89942885911095,
,,,,,,0,1,pic/flanker6.png,pic/flanker2.png,a,k,pic/AffRest2.png,,,,,,,,,,,,,,,,,,,,,,,,,0,1,1,1,0,73,73,2,,,,1181.0431491,None,1179.8601653999995,1181.0598649000003,a,1,清秀,k,1,0.4915703000006033,0.4888255999994726,jzh,m,19,2024_Apr_19_1711,mian,2021.2.3,59.89942885911095,
,,,,,,1,1,pic/flanker5.png,pic/flanker3.png,a,k,pic/AffRest2.png,,,,,,,,,,,,,,,,,,,,,,,,,0,1,1,1,0,74,74,68,,,,1184.0268134999988,None,1182.8431201000003,1184.0434709,a,1,充裕,k,1,0.403883399998449,1.856559500000003,jzh,m,19,2024_Apr_19_1711,mian,2021.2.3,59.89942885911095,
,,,,,,1,1,pic/flanker5.png,pic/flanker3.png,a,k,pic/AffRest2.png,,,,,,,,,,,,,,,,,,,,,,,,,0,1,1,1,0,75,75,28,,,,1188.3266121999986,None,1187.1434690999995,1188.3434471,a,1,廉洁,k,1,0.47077960000024177,0.5960517000003165,jzh,m,19,2024_Apr_19_1711,mian,2021.2.3,59.89942885911095,
,,,,,,0,1,pic/flanker6.png,pic/flanker2.png,a,k,pic/AffRest2.png,,,,,,,,,,,,,,,,,,,,,,,,,0,1,1,1,0,76,76,58,,,,1191.2928739,None,1190.1095346999991,1191.3094774,a,1,富丽,k,1,0.3681125000002794,0.5640482000017073,jzh,m,19,2024_Apr_19_1711,mian,2021.2.3,59.89942885911095,
,,,,,,0,1,pic/flanker6.png,pic/flanker2.png,a,k,pic/AffRest2.png,,,,,,,,,,,,,,,,,,,,,,,,,0,1,1,1,0,77,77,74,,,,1194.2765449999988,None,1193.0929911999992,1194.293300899999,a,1,热切,k,1,0.33952050000152667,0.5523557999986224,jzh,m,19,2024_Apr_19_1711,mian,2021.2.3,59.89942885911095,
,,,,,,0,1,pic/flanker6.png,pic/flanker2.png,a,k,pic/AffRest2.png,,,,,,,,,,,,,,,,,,,,,,,,,0,1,1,1,0,78,78,26,,,,1197.093058999999,None,1195.9094816999987,1197.1094355999994,a,1,爽朗,k,1,0.3107612000003428,0.7307638999991468,jzh,m,19,2024_Apr_19_1711,mian,2021.2.3,59.89942885911095,
,,,,,,0,0,pic/flanker5.png,pic/flanker1.png,s,l,pic/AffRest2.png,,,,,,,,,,,,,,,,,,,,,,,,,0,1,1,1,0,79,79,51,,,,1200.026679999999,None,1198.8435123,1200.0432072000003,s,1,郁闷,k,0,0.39396579999993264,0.6314811000011105,jzh,m,19,2024_Apr_19_1711,mian,2021.2.3,59.89942885911095,
,,,,,,,,,,,,pic/AffRest2.png,,,,,,,,,,,,,,,,,,,,,,,,,0,1,1,1,,,,,,,,,,,,,,,,,,,jzh,m,19,2024_Apr_19_1711,mian,2021.2.3,59.89942885911095,
,,,,,,0,0,pic/flanker5.png,pic/flanker1.png,s,l,pic/AffRest3.png,,,,,,,,,,,,,,,,,,,,,,,,,0,2,2,2,0,0,0,3,,,,1213.176953099999,None,1211.9854127999988,1213.1936510999985,s,1,伤心,l,1,0.4689944999990985,0.6122515000006388,jzh,m,19,2024_Apr_19_1711,mian,2021.2.3,59.89942885911095,
,,,,,,1,1,pic/flanker6.png,pic/flanker4.png,s,k,pic/AffRest3.png,,,,,,,,,,,,,,,,,,,,,,,,,0,2,2,2,0,1,1,62,,,,1216.3268142999987,None,1215.1461323999993,1216.360143599999,s,1,振作,k,1,0.5694270999993023,0.8099251999992703,jzh,m,19,2024_Apr_19_1711,mian,2021.2.3,59.89942885911095,
,,,,,,1,0,pic/flanker6.png,pic/flanker4.png,s,l,pic/AffRest3.png,,,,,,,,,,,,,,,,,,,,,,,,,0,2,2,2,0,2,2,69,,,,1219.5601654000002,None,1218.3768215,1219.5768191999996,s,1,处罚,l,1,0.418815099999847,0.7028542000007292,jzh,m,19,2024_Apr_19_1711,mian,2021.2.3,59.89942885911095,
,,,,,,0,1,pic/flanker5.png,pic/flanker1.png,s,k,pic/AffRest3.png,,,,,,,,,,,,,,,,,,,,,,,,,0,2,2,2,0,3,3,48,,,,1222.5437241,None,1221.3625310999996,1222.5767987999989,s,1,豪放,k,1,0.44183220000013534,0.5755582000001596,jzh,m,19,2024_Apr_19_1711,mian,2021.2.3,59.89942885911095,
,,,,,,0,1,pic/flanker6.png,pic/flanker2.png,a,k,pic/AffRest3.png,,,,,,,,,,,,,,,,,,,,,,,,,0,2,2,2,0,4,4,18,,,,1225.5100628,None,1224.3264283999997,1225.5267719999993,a,1,丰满,k,1,0.43605550000029325,0.4440258000013273,jzh,m,19,2024_Apr_19_1711,mian,2021.2.3,59.89942885911095,
,,,,,,0,0,pic/flanker6.png,pic/flanker2.png,a,l,pic/AffRest3.png,,,,,,,,,,,,,,,,,,,,,,,,,0,2,2,2,0,5,5,41,,,,1228.2934929999992,None,1227.1099794000002,1228.3100589999995,a,1,焦躁,k,0,0.2857104000013351,0.52374890000101,jzh,m,19,2024_Apr_19_1711,mian,2021.2.3,59.89942885911095,
,,,,,,0,0,pic/flanker6.png,pic/flanker2.png,a,l,pic/AffRest3.png,,,,,,,,,,,,,,,,,,,,,,,,,0,2,2,2,0,6,6,57,,,,1231.1094346999998,None,1229.9266442999997,1231.1268420999986,a,1,懒惰,l,1,0.3987427000010939,0.7331677000001946,jzh,m,19,2024_Apr_19_1711,mian,2021.2.3,59.89942885911095,
,,,,,,1,0,pic/flanker5.png,pic/flanker3.png,a,l,pic/AffRest3.png,,,,,,,,,,,,,,,,,,,,,,,,,0,2,2,2,0,7,7,63,,,,1234.1433608999996,None,1232.9592233999992,1234.1592604999987,a,1,假冒,k,0,0.52605819999917,0.4756597999985388,jzh,m,19,2024_Apr_19_1711,mian,2021.2.3,59.89942885911095,
,,,,,,1,0,pic/flanker5.png,pic/flanker3.png,a,l,pic/AffRest3.png,,,,,,,,,,,,,,,,,,,,,,,,,0,2,2,2,0,8,8,39,,,,1237.0433959999991,None,1235.8600670999986,1237.0601054999988,a,1,争吵,l,1,0.4345675000004121,0.508013700000447,jzh,m,19,2024_Apr_19_1711,mian,2021.2.3,59.89942885911095,
,,,,,,1,1,pic/flanker5.png,pic/flanker3.png,a,k,pic/AffRest3.png,,,,,,,,,,,,,,,,,,,,,,,,,0,2,2,2,0,9,9,28,,,,1239.9433740999993,None,1238.7598627999996,1239.9599741999991,a,1,秀丽,l,0,0.42201119999845105,0.30646770000021206,jzh,m,19,2024_Apr_19_1711,mian,2021.2.3,59.89942885911095,
,,,,,,1,0,pic/flanker6.png,pic/flanker4.png,s,l,pic/AffRest3.png,,,,,,,,,,,,,,,,,,,,,,,,,0,2,2,2,0,10,10,77,,,,1242.6767913000003,None,1241.4933268999994,1242.6933721999994,s,1,排斥,k,0,0.4599017000000458,0.5877020000007178,jzh,m,19,2024_Apr_19_1711,mian,2021.2.3,59.89942885911095,
,,,,,,0,0,pic/flanker5.png,pic/flanker1.png,s,l,pic/AffRest3.png,,,,,,,,,,,,,,,,,,,,,,,,,0,2,2,2,0,11,11,11,,,,1245.5767195999997,None,1244.3934362,1245.5934299,s,1,怀疑,l,1,0.48670789999960107,0.6373187000008329,jzh,m,19,2024_Apr_19_1711,mian,2021.2.3,59.89942885911095,
,,,,,,1,0,pic/flanker5.png,pic/flanker3.png,a,l,pic/AffRest3.png,,,,,,,,,,,,,,,,,,,,,,,,,0,2,2,2,0,12,12,79,,,,1248.6093885999999,None,1247.4267920999991,1248.6266514999988,a,1,烦恼,l,1,0.44152759999997215,0.5832596000000194,jzh,m,19,2024_Apr_19_1711,mian,2021.2.3,59.89942885911095,
,,,,,,0,0,pic/flanker5.png,pic/flanker1.png,s,l,pic/AffRest3.png,,,,,,,,,,,,,,,,,,,,,,,,,0,2,2,2,0,13,13,51,,,,1251.526989599999,None,1250.3434183999998,1251.5431802999992,s,1,闷热,l,1,0.43166329999985464,1.0359165000008943,jzh,m,19,2024_Apr_19_1711,mian,2021.2.3,59.89942885911095,
,,,,,,1,0,pic/flanker6.png,pic/flanker4.png,s,l,pic/AffRest3.png,,,,,,,,,,,,,,,,,,,,,,,,,0,2,2,2,0,14,14,21,,,,1254.9431127999997,None,1253.7595552999992,1254.9595426999986,s,1,堵塞,l,1,0.5020029999996041,0.6380473999997776,jzh,m,19,2024_Apr_19_1711,mian,2021.2.3,59.89942885911095,
,,,,,,1,0,pic/flanker5.png,pic/flanker3.png,a,l,pic/AffRest3.png,,,,,,,,,,,,,,,,,,,,,,,,,0,2,2,2,0,15,15,15,,,,1258.1267439000003,None,1256.9435708,1258.1434240999988,a,1,失意,l,1,0.4044601999994484,0.6931430000004184,jzh,m,19,2024_Apr_19_1711,mian,2021.2.3,59.89942885911095,
,,,,,,1,0,pic/flanker6.png,pic/flanker4.png,s,l,pic/AffRest3.png,,,,,,,,,,,,,,,,,,,,,,,,,0,2,2,2,0,16,16,45,,,,1261.2267831999998,None,1260.0432939999992,1261.2432904999987,s,1,穷苦,l,1,0.47606549999909475,0.571282799999608,jzh,m,19,2024_Apr_19_1711,mian,2021.2.3,59.89942885911095,
,,,,,,1,1,pic/flanker5.png,pic/flanker3.png,a,k,pic/AffRest3.png,,,,,,,,,,,,,,,,,,,,,,,,,0,2,2,2,0,17,17,44,,,,1264.1599468999993,None,1262.9765434,1264.176631799999,a,1,热切,k,1,0.42917900000065856,0.6360512000010203,jzh,m,19,2024_Apr_19_1711,mian,2021.2.3,59.89942885911095,
,,,,,,1,0,pic/flanker5.png,pic/flanker3.png,a,l,pic/AffRest3.png,,,,,,,,,,,,,,,,,,,,,,,,,0,2,2,2,0,18,18,7,,,,1267.0765591999989,None,1265.893564,1267.0931024000001,a,1,黑暗,l,1,0.8165692000002309,0.7083930000007967,jzh,m,19,2024_Apr_19_1711,mian,2021.2.3,59.89942885911095,
,,,,,,1,1,pic/flanker6.png,pic/flanker4.png,s,k,pic/AffRest3.png,,,,,,,,,,,,,,,,,,,,,,,,,0,2,2,2,0,19,19,6,,,,1270.643490999999,None,1269.4602422999997,1270.6601212999994,s,1,享受,k,1,0.4217505999986315,0.5540488999995432,jzh,m,19,2024_Apr_19_1711,mian,2021.2.3,59.89942885911095,
,,,,,,1,1,pic/flanker6.png,pic/flanker4.png,s,k,pic/AffRest3.png,,,,,,,,,,,,,,,,,,,,,,,,,0,2,2,2,0,20,20,54,,,,1273.5433324999995,None,1272.3599834999986,1273.5600350999994,s,1,畅销,k,1,0.4420062000008329,0.5950486000001547,jzh,m,19,2024_Apr_19_1711,mian,2021.2.3,59.89942885911095,
,,,,,,0,0,pic/flanker5.png,pic/flanker1.png,s,l,pic/AffRest3.png,,,,,,,,,,,,,,,,,,,,,,,,,0,2,2,2,0,21,21,19,,,,1276.4266503999988,None,1275.2434975999986,1276.443132299999,s,1,禁止,l,1,0.4481064999999944,0.6386019000001397,jzh,m,19,2024_Apr_19_1711,mian,2021.2.3,59.89942885911095,
,,,,,,0,0,pic/flanker5.png,pic/flanker1.png,s,l,pic/AffRest3.png,,,,,,,,,,,,,,,,,,,,,,,,,0,2,2,2,0,22,22,43,,,,1279.4766743,None,1278.293180499999,1279.4933975999993,s,1,缺乏,l,1,0.448503300000084,0.5980189000001701,jzh,m,19,2024_Apr_19_1711,mian,2021.2.3,59.89942885911095,
,,,,,,0,1,pic/flanker6.png,pic/flanker2.png,a,k,pic/AffRest3.png,,,,,,,,,,,,,,,,,,,,,,,,,0,2,2,2,0,23,23,74,,,,1282.3766152999997,None,1281.1934032999998,1282.3932812999992,a,1,充裕,l,0,1.311858499999289,0.7452997000000323,jzh,m,19,2024_Apr_19_1711,mian,2021.2.3,59.89942885911095,
,,,,,,0,0,pic/flanker6.png,pic/flanker2.png,a,l,pic/AffRest3.png,,,,,,,,,,,,,,,,,,,,,,,,,0,2,2,2,0,24,24,17,,,,1286.3264980999993,None,1285.1442506999992,1286.360074799999,a,1,落后,l,1,0.48756519999915326,1.1208807000002707,jzh,m,19,2024_Apr_19_1711,mian,2021.2.3,59.89942885911095,
,,,,,,1,1,pic/flanker5.png,pic/flanker3.png,a,k,pic/AffRest3.png,,,,,,,,,,,,,,,,,,,,,,,,,0,2,2,2,0,25,25,36,,,,1289.993321,None,1288.8099454000003,1290.0098994,a,1,吉祥,k,1,0.40950599999996484,1.4535446999998385,jzh,m,19,2024_Apr_19_1711,mian,2021.2.3,59.89942885911095,
,,,,,,0,1,pic/flanker6.png,pic/flanker2.png,a,k,pic/AffRest3.png,,,,,,,,,,,,,,,,,,,,,,,,,0,2,2,2,0,26,26,10,,,,1293.8265546999992,None,1292.6454154999992,1293.8599811999993,a,1,顽强,k,1,0.4335044999988895,1.6490833000007115,jzh,m,19,2024_Apr_19_1711,mian,2021.2.3,59.89942885911095,
,,,,,,1,0,pic/flanker5.png,pic/flanker3.png,a,l,pic/AffRest3.png,,,,,,,,,,,,,,,,,,,,,,,,,0,2,2,2,0,27,27,23,,,,1297.960019099999,None,1296.7772183999987,1297.976499299999,a,1,别扭,l,1,1.1865823999996792,0.9419840000009572,jzh,m,19,2024_Apr_19_1711,mian,2021.2.3,59.89942885911095,
,,,,,,0,1,pic/flanker5.png,pic/flanker1.png,s,k,pic/AffRest3.png,,,,,,,,,,,,,,,,,,,,,,,,,0,2,2,2,0,28,28,16,,,,1301.993580799999,None,1300.8101396000002,1302.0101011999996,s,1,奉献,k,1,0.4912736999995104,0.6124849999996513,jzh,m,19,2024_Apr_19_1711,mian,2021.2.3,59.89942885911095,
,,,,,,1,1,pic/flanker6.png,pic/flanker4.png,s,k,pic/AffRest3.png,,,,,,,,,,,,,,,,,,,,,,,,,0,2,2,2,0,29,29,70,,,,1304.9433236999994,None,1303.7610402999999,1304.9765676999996,s,1,瑰丽,k,1,0.41757289999986824,0.6146945000000414,jzh,m,19,2024_Apr_19_1711,mian,2021.2.3,59.89942885911095,
,,,,,,0,0,pic/flanker6.png,pic/flanker2.png,a,l,pic/AffRest3.png,,,,,,,,,,,,,,,,,,,,,,,,,0,2,2,2,0,30,30,65,,,,1308.0267472999985,None,1306.8432001,1308.0433562999988,a,1,悲观,l,1,0.39697960000012245,0.6116626000002725,jzh,m,19,2024_Apr_19_1711,mian,2021.2.3,59.89942885911095,
,,,,,,1,1,pic/flanker6.png,pic/flanker4.png,s,k,pic/AffRest3.png,,,,,,,,,,,,,,,,,,,,,,,,,0,2,2,2,0,31,31,22,,,,1311.0431260999994,None,1309.8603531999997,1311.0602880999995,s,1,留恋,k,1,0.4412300000003597,0.6186872000016592,jzh,m,19,2024_Apr_19_1711,mian,2021.2.3,59.89942885911095,
,,,,,,1,0,pic/flanker6.png,pic/flanker4.png,s,l,pic/AffRest3.png,,,,,,,,,,,,,,,,,,,,,,,,,0,2,2,2,0,32,32,53,,,,1314.1598135999993,None,1312.9763748999994,1314.1765529999993,s,1,浪费,l,1,0.5681506999990233,0.5993158999990555,jzh,m,19,2024_Apr_19_1711,mian,2021.2.3,59.89942885911095,
,,,,,,1,1,pic/flanker6.png,pic/flanker4.png,s,k,pic/AffRest3.png,,,,,,,,,,,,,,,,,,,,,,,,,0,2,2,2,0,33,33,14,,,,1317.3099568999987,None,1316.1266615999994,1317.3266743999993,s,1,圣洁,k,1,0.6077430999994249,0.5568311000006361,jzh,m,19,2024_Apr_19_1711,mian,2021.2.3,59.89942885911095,
,,,,,,1,1,pic/flanker6.png,pic/flanker4.png,s,k,pic/AffRest3.png,,,,,,,,,,,,,,,,,,,,,,,,,0,2,2,2,0,34,34,30,,,,1320.4101574999986,None,1319.2268409999997,1320.4269590999993,s,1,俊秀,k,1,0.546130799999446,0.5705799000006664,jzh,m,19,2024_Apr_19_1711,mian,2021.2.3,59.89942885911095,
,,,,,,1,1,pic/flanker5.png,pic/flanker3.png,a,k,pic/AffRest3.png,,,,,,,,,,,,,,,,,,,,,,,,,0,2,2,2,0,35,35,60,,,,1323.4767011999993,None,1322.2931455999988,1323.4933524999997,a,1,正直,None,0,0.404775700000755,,jzh,m,19,2024_Apr_19_1711,mian,2021.2.3,59.89942885911095,
,,,,,,0,1,pic/flanker5.png,pic/flanker1.png,s,k,pic/AffRest3.png,,,,,,,,,,,,,,,,,,,,,,,,,0,2,2,2,0,36,36,32,,,,1328.2261671999986,None,1327.0430648000001,1328.243350499999,s,1,雄厚,k,1,0.414935400000104,0.5913330000003043,jzh,m,19,2024_Apr_19_1711,mian,2021.2.3,59.89942885911095,
,,,,,,0,0,pic/flanker6.png,pic/flanker2.png,a,l,pic/AffRest3.png,,,,,,,,,,,,,,,,,,,,,,,,,0,2,2,2,0,37,37,33,,,,1331.1765385999988,None,1329.9930556,1331.1932963999989,a,1,沮丧,l,1,0.36853750000045693,0.6060524999993504,jzh,m,19,2024_Apr_19_1711,mian,2021.2.3,59.89942885911095,
,,,,,,0,0,pic/flanker5.png,pic/flanker1.png,s,l,pic/AffRest3.png,,,,,,,,,,,,,,,,,,,,,,,,,0,2,2,2,0,38,38,67,,,,1334.0431972999995,None,1332.8600478999997,1334.0599447999994,s,1,忧虑,l,1,0.33359249999921303,0.5942897999993875,jzh,m,19,2024_Apr_19_1711,mian,2021.2.3,59.89942885911095,
,,,,,,1,1,pic/flanker6.png,pic/flanker4.png,s,k,pic/AffRest3.png,,,,,,,,,,,,,,,,,,,,,,,,,0,2,2,2,0,39,39,46,,,,1336.8433274,None,1335.6598508999996,1336.8599627999993,s,1,如愿,k,1,0.3996692999990046,0.44143389999953797,jzh,m,19,2024_Apr_19_1711,mian,2021.2.3,59.89942885911095,
,,,,,,0,0,pic/flanker6.png,pic/flanker2.png,a,l,pic/AffRest3.png,,,,,,,,,,,,,,,,,,,,,,,,,0,2,2,2,0,40,40,25,,,,1339.7266440000003,None,1338.5433713999992,1339.7433454999991,a,1,损害,None,0,1.300558099999762,,jzh,m,19,2024_Apr_19_1711,mian,2021.2.3,59.89942885911095,
,,,,,,1,0,pic/flanker5.png,pic/flanker3.png,a,l,pic/AffRest3.png,,,,,,,,,,,,,,,,,,,,,,,,,0,2,2,2,0,41,41,55,,,,1345.4099318999997,None,1344.2266074,1345.4266329999991,a,1,自卑,l,1,0.5997220999997808,0.6061773000001267,jzh,m,19,2024_Apr_19_1711,mian,2021.2.3,59.89942885911095,
,,,,,,0,0,pic/flanker5.png,pic/flanker1.png,s,l,pic/AffRest3.png,,,,,,,,,,,,,,,,,,,,,,,,,0,2,2,2,0,42,42,35,,,,1348.6098626999992,None,1347.4261057000003,1348.6264285999987,s,1,郁闷,l,1,0.7753816000004008,0.5434586000010313,jzh,m,19,2024_Apr_19_1711,mian,2021.2.3,59.89942885911095,
,,,,,,0,0,pic/flanker5.png,pic/flanker1.png,s,l,pic/AffRest3.png,,,,,,,,,,,,,,,,,,,,,,,,,0,2,2,2,0,43,43,27,,,,1351.7931919000002,None,1350.6098177999993,1351.8096036999996,s,1,消沉,l,1,0.35516869999992196,0.5949315999987448,jzh,m,19,2024_Apr_19_1711,mian,2021.2.3,59.89942885911095,
,,,,,,1,1,pic/flanker5.png,pic/flanker3.png,a,k,pic/AffRest3.png,,,,,,,,,,,,,,,,,,,,,,,,,0,2,2,2,0,44,44,52,,,,1354.6101648999993,None,1353.4264291,1354.6268031,a,1,卓越,k,1,0.7591961999987689,0.7023910999996588,jzh,m,19,2024_Apr_19_1711,mian,2021.2.3,59.89942885911095,
,,,,,,0,0,pic/flanker5.png,pic/flanker1.png,s,l,pic/AffRest3.png,,,,,,,,,,,,,,,,,,,,,,,,,0,2,2,2,0,45,45,59,,,,1358.1433136999985,None,1356.960031999999,1358.1599999999999,s,1,心慌,l,1,1.1198346000001038,1.4189361999997345,jzh,m,19,2024_Apr_19_1711,mian,2021.2.3,59.89942885911095,
,,,,,,0,1,pic/flanker5.png,pic/flanker1.png,s,k,pic/AffRest3.png,,,,,,,,,,,,,,,,,,,,,,,,,0,2,2,2,0,46,46,24,,,,1362.7932533999992,None,1361.6100704,1362.8098542999996,s,1,富足,k,1,0.7685096000004705,0.6320352999991883,jzh,m,19,2024_Apr_19_1711,mian,2021.2.3,59.89942885911095,
,,,,,,1,0,pic/flanker5.png,pic/flanker3.png,a,l,pic/AffRest3.png,,,,,,,,,,,,,,,,,,,,,,,,,0,2,2,2,0,47,47,31,,,,1366.0759015999993,None,1364.8932122999995,1366.093272,None,0,冷笑,k,0,,1.3265984999998182,jzh,m,19,2024_Apr_19_1711,mian,2021.2.3,59.89942885911095,
,,,,,,0,1,pic/flanker5.png,pic/flanker1.png,s,k,pic/AffRest3.png,,,,,,,,,,,,,,,,,,,,,,,,,0,2,2,2,0,48,48,40,,,,1370.826427,None,1369.6430941999988,1370.8429901,s,1,珍藏,l,0,0.40211900000031164,0.4210684999998193,jzh,m,19,2024_Apr_19_1711,mian,2021.2.3,59.89942885911095,
,,,,,,0,1,pic/flanker6.png,pic/flanker2.png,a,k,pic/AffRest3.png,,,,,,,,,,,,,,,,,,,,,,,,,0,2,2,2,0,49,49,34,,,,1373.6433863999991,None,1372.4598578999994,1373.6598575999997,a,1,前进,k,1,0.5152541999996174,0.5816885999993247,jzh,m,19,2024_Apr_19_1711,mian,2021.2.3,59.89942885911095,
,,,,,,0,1,pic/flanker5.png,pic/flanker1.png,s,k,pic/AffRest3.png,,,,,,,,,,,,,,,,,,,,,,,,,0,2,2,2,0,50,50,8,,,,1376.7428217999986,None,1375.5597918000003,1376.7592987999997,s,1,舒畅,k,1,0.3652624000005744,0.5250556000009965,jzh,m,19,2024_Apr_19_1711,mian,2021.2.3,59.89942885911095,
,,,,,,0,1,pic/flanker6.png,pic/flanker2.png,a,k,pic/AffRest3.png,,,,,,,,,,,,,,,,,,,,,,,,,0,2,2,2,0,51,51,26,,,,1379.5759755,None,1378.3925714999987,1379.592783,a,1,清秀,k,1,0.29086590000042634,0.5043172000005143,jzh,m,19,2024_Apr_19_1711,mian,2021.2.3,59.89942885911095,
,,,,,,1,0,pic/flanker6.png,pic/flanker4.png,s,l,pic/AffRest3.png,,,,,,,,,,,,,,,,,,,,,,,,,0,2,2,2,0,52,52,61,,,,1382.2764201999998,None,1381.0931327999988,1382.2931052999993,a,0,撒谎,l,1,0.28894930000024033,1.1088214999999764,jzh,m,19,2024_Apr_19_1711,mian,2021.2.3,59.89942885911095,
,,,,,,0,1,pic/flanker6.png,pic/flanker2.png,a,k,pic/AffRest3.png,,,,,,,,,,,,,,,,,,,,,,,,,0,2,2,2,0,53,53,58,,,,1385.5759074999987,None,1384.3925639999998,1385.5927751999989,a,1,典雅,k,1,0.6094958000012412,0.6089434000004985,jzh,m,19,2024_Apr_19_1711,mian,2021.2.3,59.89942885911095,
,,,,,,0,1,pic/flanker6.png,pic/flanker2.png,a,k,pic/AffRest3.png,,,,,,,,,,,,,,,,,,,,,,,,,0,2,2,2,0,54,54,2,,,,1388.6263230999994,None,1387.443205399999,1388.6431440999986,a,1,爽朗,k,1,0.3474374999987049,0.4955432999995537,jzh,m,19,2024_Apr_19_1711,mian,2021.2.3,59.89942885911095,
,,,,,,0,1,pic/flanker5.png,pic/flanker1.png,s,k,pic/AffRest3.png,,,,,,,,,,,,,,,,,,,,,,,,,0,2,2,2,0,55,55,72,,,,1391.3259884,None,1390.1431181999997,1391.3431014999987,s,1,鲜艳,k,1,0.3258977000004961,0.6001370999983919,jzh,m,19,2024_Apr_19_1711,mian,2021.2.3,59.89942885911095,
,,,,,,1,1,pic/flanker5.png,pic/flanker3.png,a,k,pic/AffRest3.png,,,,,,,,,,,,,,,,,,,,,,,,,0,2,2,2,0,56,56,76,,,,1394.2430528999994,None,1393.0597516999987,1394.2597784999998,a,1,精致,k,1,0.4903563000007125,0.49309309999989637,jzh,m,19,2024_Apr_19_1711,mian,2021.2.3,59.89942885911095,
,,,,,,0,0,pic/flanker6.png,pic/flanker2.png,a,l,pic/AffRest3.png,,,,,,,,,,,,,,,,,,,,,,,,,0,2,2,2,0,57,57,9,,,,1397.0763749999987,None,1395.8929386,1397.093141899999,a,1,胡涂,l,1,0.3149312000005011,0.6197597999998834,jzh,m,19,2024_Apr_19_1711,mian,2021.2.3,59.89942885911095,
,,,,,,1,0,pic/flanker5.png,pic/flanker3.png,a,l,pic/AffRest3.png,,,,,,,,,,,,,,,,,,,,,,,,,0,2,2,2,0,58,58,71,,,,1400.0429864999987,None,1398.8597413999996,1400.0595369999992,a,1,杂乱,k,0,0.43486440000015136,0.501423400000931,jzh,m,19,2024_Apr_19_1711,mian,2021.2.3,59.89942885911095,
,,,,,,1,1,pic/flanker6.png,pic/flanker4.png,s,k,pic/AffRest3.png,,,,,,,,,,,,,,,,,,,,,,,,,0,2,2,2,0,59,59,78,,,,1402.8930875999995,None,1401.709646199999,1402.9098536000001,s,1,赞成,k,1,0.4418992999999318,0.4832386999987648,jzh,m,19,2024_Apr_19_1711,mian,2021.2.3,59.89942885911095,
,,,,,,0,1,pic/flanker6.png,pic/flanker2.png,a,k,pic/AffRest3.png,,,,,,,,,,,,,,,,,,,,,,,,,0,2,2,2,0,60,60,66,,,,1405.7929977999993,None,1404.6098332000001,1405.8096091999996,a,1,羡慕,l,0,0.3916012000008777,0.8638362999990932,jzh,m,19,2024_Apr_19_1711,mian,2021.2.3,59.89942885911095,
