target,反应类型,条件,truetarget,CorAns,Position,congruency,AffValue,flankerPic,targetPic,corAnsF,corAnsA,RestPic,returnPractice.thisRepN,returnPractice.thisTrialN,returnPractice.thisN,returnPractice.thisIndex,pracNum.thisRepN,pracNum.thisTrialN,pracNum.thisN,pracNum.thisIndex,NumBlock1.thisRepN,NumBlock1.thisTrialN,NumBlock1.thisN,NumBlock1.thisIndex,NumBlock2.thisRepN,NumBlock2.thisTrialN,NumBlock2.thisN,NumBlock2.thisIndex,returnPrac.thisRepN,returnPrac.thisTrialN,returnPrac.thisN,returnPrac.thisIndex,PracAff.thisRepN,PracAff.thisTrialN,PracAff.thisN,PracAff.thisIndex,AffBlocks.thisRepN,AffBlocks.thisTrialN,AffBlocks.thisN,AffBlocks.thisIndex,AffBlock1.thisRepN,AffBlock1.thisTrialN,AffBlock1.thisN,AffBlock1.thisIndex,respNum2word.keys,respNum2word.corr,respNum2word.rt,text.started,text.stopped,blank.started,blank.stopped,respFlanker.keys,respFlanker.corr,thisWord,respAffWord.keys,respAffWord.corr,respAffWord.rt,respFlanker.rt,姓名,性别,年龄（周岁）,date,expName,psychopyVersion,frameRate,
2A,1,1,A,a,"[0.2, 0.2]",,,,,,,,0,0,0,0,0,0,0,0,,,,,,,,,,,,,,,,,,,,,,,,,a,1,1.9075398999993922,,,,,,,,,,,,ld,女,19,2024_Apr_21_1016,mian,2021.2.3,60.14082576046686,
A9,1,2,A,a,"[-0.2, 0.2]",,,,,,,,0,0,0,0,0,1,1,1,,,,,,,,,,,,,,,,,,,,,,,,,a,1,0.9124744000000646,,,,,,,,,,,,ld,女,19,2024_Apr_21_1016,mian,2021.2.3,60.14082576046686,
7e,2,1,7.0,a,"[-0.2, -0.2]",,,,,,,,0,0,0,0,0,2,2,2,,,,,,,,,,,,,,,,,,,,,,,,,a,1,0.8979396999930032,,,,,,,,,,,,ld,女,19,2024_Apr_21_1016,mian,2021.2.3,60.14082576046686,
9H,2,2,9.0,a,"[0.2, -0.2]",,,,,,,,0,0,0,0,0,3,3,3,,,,,,,,,,,,,,,,,,,,,,,,,a,1,0.5586708000046201,,,,,,,,,,,,ld,女,19,2024_Apr_21_1016,mian,2021.2.3,60.14082576046686,
h4,1,1,h,l,"[0.2, 0.2]",,,,,,,,0,0,0,0,0,4,4,4,,,,,,,,,,,,,,,,,,,,,,,,,l,1,1.1211866000085138,,,,,,,,,,,,ld,女,19,2024_Apr_21_1016,mian,2021.2.3,60.14082576046686,
4H,1,2,H,a,"[-0.2, 0.2]",,,,,,,,0,0,0,0,0,5,5,5,,,,,,,,,,,,,,,,,,,,,,,,,a,1,0.5921911000041291,,,,,,,,,,,,ld,女,19,2024_Apr_21_1016,mian,2021.2.3,60.14082576046686,
F8,2,1,8.0,l,"[-0.2, -0.2]",,,,,,,,0,0,0,0,0,6,6,6,,,,,,,,,,,,,,,,,,,,,,,,,l,1,1.1980806000065058,,,,,,,,,,,,ld,女,19,2024_Apr_21_1016,mian,2021.2.3,60.14082576046686,
h7,2,2,7.0,a,"[0.2, -0.2]",,,,,,,,0,0,0,0,0,7,7,7,,,,,,,,,,,,,,,,,,,,,,,,,a,1,1.079638099996373,,,,,,,,,,,,ld,女,19,2024_Apr_21_1016,mian,2021.2.3,60.14082576046686,
5e,1,1,e,l,"[0.2, 0.2]",,,,,,,,0,0,0,0,0,8,8,8,,,,,,,,,,,,,,,,,,,,,,,,,l,1,2.696638100009295,,,,,,,,,,,,ld,女,19,2024_Apr_21_1016,mian,2021.2.3,60.14082576046686,
e8,1,2,e,l,"[-0.2, 0.2]",,,,,,,,0,0,0,0,0,9,9,9,,,,,,,,,,,,,,,,,,,,,,,,,l,1,1.0633388999995077,,,,,,,,,,,,ld,女,19,2024_Apr_21_1016,mian,2021.2.3,60.14082576046686,
4E,2,1,4.0,l,"[-0.2, -0.2]",,,,,,,,0,0,0,0,0,10,10,10,,,,,,,,,,,,,,,,,,,,,,,,,l,1,1.2847095000033733,,,,,,,,,,,,ld,女,19,2024_Apr_21_1016,mian,2021.2.3,60.14082576046686,
5H,2,2,5.0,a,"[0.2, -0.2]",,,,,,,,0,0,0,0,0,11,11,11,,,,,,,,,,,,,,,,,,,,,,,,,a,1,0.6578297000087332,,,,,,,,,,,,ld,女,19,2024_Apr_21_1016,mian,2021.2.3,60.14082576046686,
9E,1,1,E,a,"[0.2, 0.2]",,,,,,,,0,0,0,0,0,12,12,12,,,,,,,,,,,,,,,,,,,,,,,,,a,1,1.477150899998378,,,,,,,,,,,,ld,女,19,2024_Apr_21_1016,mian,2021.2.3,60.14082576046686,
h9,1,2,h,l,"[-0.2, 0.2]",,,,,,,,0,0,0,0,0,13,13,13,,,,,,,,,,,,,,,,,,,,,,,,,l,1,1.0456649999978254,,,,,,,,,,,,ld,女,19,2024_Apr_21_1016,mian,2021.2.3,60.14082576046686,
2a,2,1,2.0,l,"[-0.2, -0.2]",,,,,,,,0,0,0,0,0,14,14,14,,,,,,,,,,,,,,,,,,,,,,,,,l,1,1.2695107000035932,,,,,,,,,,,,ld,女,19,2024_Apr_21_1016,mian,2021.2.3,60.14082576046686,
e5,2,2,5.0,a,"[0.2, -0.2]",,,,,,,,0,0,0,0,0,15,15,15,,,,,,,,,,,,,,,,,,,,,,,,,a,1,0.8603545999940252,,,,,,,,,,,,ld,女,19,2024_Apr_21_1016,mian,2021.2.3,60.14082576046686,
A5,1,1,A,a,"[0.2, 0.2]",,,,,,,,0,0,0,0,0,16,16,16,,,,,,,,,,,,,,,,,,,,,,,,,a,1,1.1878329999890411,,,,,,,,,,,,ld,女,19,2024_Apr_21_1016,mian,2021.2.3,60.14082576046686,
a6,1,2,a,l,"[-0.2, 0.2]",,,,,,,,0,0,0,0,0,17,17,17,,,,,,,,,,,,,,,,,,,,,,,,,l,1,0.6160594999964815,,,,,,,,,,,,ld,女,19,2024_Apr_21_1016,mian,2021.2.3,60.14082576046686,
2F,2,1,2.0,l,"[-0.2, -0.2]",,,,,,,,0,0,0,0,0,18,18,18,,,,,,,,,,,,,,,,,,,,,,,,,l,1,0.7063213999936124,,,,,,,,,,,,ld,女,19,2024_Apr_21_1016,mian,2021.2.3,60.14082576046686,
e4,2,2,4.0,l,"[0.2, -0.2]",,,,,,,,0,0,0,0,0,19,19,19,,,,,,,,,,,,,,,,,,,,,,,,,l,1,0.9113766999944346,,,,,,,,,,,,ld,女,19,2024_Apr_21_1016,mian,2021.2.3,60.14082576046686,
,,,,,,,,,,,,,0,0,0,0,,,,,,,,,,,,,,,,,,,,,,,,,,,,,,,,,,,,,,,,,,,ld,女,19,2024_Apr_21_1016,mian,2021.2.3,60.14082576046686,
7h,1,1,h,l,"[0.2, 0.2]",,,,,,,,,,,,,,,,0,0,0,0,,,,,,,,,,,,,,,,,,,,,l,1,0.6695887999958359,,,,,,,,,,,,ld,女,19,2024_Apr_21_1016,mian,2021.2.3,60.14082576046686,
8F,1,2,F,a,"[-0.2, 0.2]",,,,,,,,,,,,,,,,0,1,1,1,,,,,,,,,,,,,,,,,,,,,a,1,0.6822902999992948,,,,,,,,,,,,ld,女,19,2024_Apr_21_1016,mian,2021.2.3,60.14082576046686,
8h,2,1,8.0,l,"[-0.2, -0.2]",,,,,,,,,,,,,,,,0,2,2,2,,,,,,,,,,,,,,,,,,,,,l,1,0.8726212000037776,,,,,,,,,,,,ld,女,19,2024_Apr_21_1016,mian,2021.2.3,60.14082576046686,
a2,2,2,2.0,l,"[0.2, -0.2]",,,,,,,,,,,,,,,,0,3,3,3,,,,,,,,,,,,,,,,,,,,,l,1,0.6878456999984337,,,,,,,,,,,,ld,女,19,2024_Apr_21_1016,mian,2021.2.3,60.14082576046686,
8f,1,1,f,l,"[0.2, 0.2]",,,,,,,,,,,,,,,,0,4,4,4,,,,,,,,,,,,,,,,,,,,,l,1,0.7493621000030544,,,,,,,,,,,,ld,女,19,2024_Apr_21_1016,mian,2021.2.3,60.14082576046686,
6a,1,2,a,l,"[-0.2, 0.2]",,,,,,,,,,,,,,,,0,5,5,5,,,,,,,,,,,,,,,,,,,,,l,1,0.6875178000045707,,,,,,,,,,,,ld,女,19,2024_Apr_21_1016,mian,2021.2.3,60.14082576046686,
h6,2,1,6.0,l,"[-0.2, -0.2]",,,,,,,,,,,,,,,,0,6,6,6,,,,,,,,,,,,,,,,,,,,,l,1,1.1764254000008805,,,,,,,,,,,,ld,女,19,2024_Apr_21_1016,mian,2021.2.3,60.14082576046686,
f9,2,2,9.0,a,"[0.2, -0.2]",,,,,,,,,,,,,,,,0,7,7,7,,,,,,,,,,,,,,,,,,,,,l,0,0.8512534000037704,,,,,,,,,,,,ld,女,19,2024_Apr_21_1016,mian,2021.2.3,60.14082576046686,
E4,1,1,E,a,"[0.2, 0.2]",,,,,,,,,,,,,,,,0,8,8,8,,,,,,,,,,,,,,,,,,,,,a,1,0.5105926999967778,,,,,,,,,,,,ld,女,19,2024_Apr_21_1016,mian,2021.2.3,60.14082576046686,
6e,1,2,e,l,"[-0.2, 0.2]",,,,,,,,,,,,,,,,0,9,9,9,,,,,,,,,,,,,,,,,,,,,l,1,0.5551685999962501,,,,,,,,,,,,ld,女,19,2024_Apr_21_1016,mian,2021.2.3,60.14082576046686,
5G,2,1,5.0,a,"[-0.2, -0.2]",,,,,,,,,,,,,,,,0,10,10,10,,,,,,,,,,,,,,,,,,,,,a,1,0.8666593999951147,,,,,,,,,,,,ld,女,19,2024_Apr_21_1016,mian,2021.2.3,60.14082576046686,
h3,2,2,3.0,a,"[0.2, -0.2]",,,,,,,,,,,,,,,,0,11,11,11,,,,,,,,,,,,,,,,,,,,,a,1,0.6267298000020673,,,,,,,,,,,,ld,女,19,2024_Apr_21_1016,mian,2021.2.3,60.14082576046686,
9e,1,1,e,l,"[0.2, 0.2]",,,,,,,,,,,,,,,,0,12,12,12,,,,,,,,,,,,,,,,,,,,,l,1,0.7078622999979416,,,,,,,,,,,,ld,女,19,2024_Apr_21_1016,mian,2021.2.3,60.14082576046686,
a8,1,2,a,l,"[-0.2, 0.2]",,,,,,,,,,,,,,,,0,13,13,13,,,,,,,,,,,,,,,,,,,,,l,1,0.7545229999959702,,,,,,,,,,,,ld,女,19,2024_Apr_21_1016,mian,2021.2.3,60.14082576046686,
e8,2,1,8.0,l,"[-0.2, -0.2]",,,,,,,,,,,,,,,,0,14,14,14,,,,,,,,,,,,,,,,,,,,,l,1,1.2597473000059836,,,,,,,,,,,,ld,女,19,2024_Apr_21_1016,mian,2021.2.3,60.14082576046686,
3f,2,2,3.0,a,"[0.2, -0.2]",,,,,,,,,,,,,,,,0,15,15,15,,,,,,,,,,,,,,,,,,,,,a,1,0.9003584000020055,,,,,,,,,,,,ld,女,19,2024_Apr_21_1016,mian,2021.2.3,60.14082576046686,
7f,1,1,f,l,"[0.2, 0.2]",,,,,,,,,,,,,,,,0,16,16,16,,,,,,,,,,,,,,,,,,,,,l,1,1.003125999995973,,,,,,,,,,,,ld,女,19,2024_Apr_21_1016,mian,2021.2.3,60.14082576046686,
a7,1,2,a,l,"[-0.2, 0.2]",,,,,,,,,,,,,,,,0,17,17,17,,,,,,,,,,,,,,,,,,,,,l,1,0.6090074000094319,,,,,,,,,,,,ld,女,19,2024_Apr_21_1016,mian,2021.2.3,60.14082576046686,
5A,2,1,5.0,a,"[-0.2, -0.2]",,,,,,,,,,,,,,,,0,18,18,18,,,,,,,,,,,,,,,,,,,,,l,0,1.2319117999868467,,,,,,,,,,,,ld,女,19,2024_Apr_21_1016,mian,2021.2.3,60.14082576046686,
8g,2,2,8.0,l,"[0.2, -0.2]",,,,,,,,,,,,,,,,0,19,19,19,,,,,,,,,,,,,,,,,,,,,l,1,1.8796437999990303,,,,,,,,,,,,ld,女,19,2024_Apr_21_1016,mian,2021.2.3,60.14082576046686,
9a,1,1,a,l,"[0.2, 0.2]",,,,,,,,,,,,,,,,0,20,20,20,,,,,,,,,,,,,,,,,,,,,l,1,2.4727806000009878,,,,,,,,,,,,ld,女,19,2024_Apr_21_1016,mian,2021.2.3,60.14082576046686,
f7,1,2,f,l,"[-0.2, 0.2]",,,,,,,,,,,,,,,,0,21,21,21,,,,,,,,,,,,,,,,,,,,,l,1,0.7634561000013491,,,,,,,,,,,,ld,女,19,2024_Apr_21_1016,mian,2021.2.3,60.14082576046686,
g9,2,1,9.0,a,"[-0.2, -0.2]",,,,,,,,,,,,,,,,0,22,22,22,,,,,,,,,,,,,,,,,,,,,a,1,2.2434053999895696,,,,,,,,,,,,ld,女,19,2024_Apr_21_1016,mian,2021.2.3,60.14082576046686,
3h,2,2,3.0,a,"[0.2, -0.2]",,,,,,,,,,,,,,,,0,23,23,23,,,,,,,,,,,,,,,,,,,,,a,1,0.6190007999975933,,,,,,,,,,,,ld,女,19,2024_Apr_21_1016,mian,2021.2.3,60.14082576046686,
E6,1,1,E,a,"[0.2, 0.2]",,,,,,,,,,,,,,,,0,24,24,24,,,,,,,,,,,,,,,,,,,,,a,1,1.0265262000029907,,,,,,,,,,,,ld,女,19,2024_Apr_21_1016,mian,2021.2.3,60.14082576046686,
F6,1,2,F,a,"[-0.2, 0.2]",,,,,,,,,,,,,,,,0,25,25,25,,,,,,,,,,,,,,,,,,,,,a,1,0.5482755999983056,,,,,,,,,,,,ld,女,19,2024_Apr_21_1016,mian,2021.2.3,60.14082576046686,
3A,2,1,3.0,a,"[-0.2, -0.2]",,,,,,,,,,,,,,,,0,26,26,26,,,,,,,,,,,,,,,,,,,,,a,1,0.7979633999930229,,,,,,,,,,,,ld,女,19,2024_Apr_21_1016,mian,2021.2.3,60.14082576046686,
8H,2,2,8.0,l,"[0.2, -0.2]",,,,,,,,,,,,,,,,0,27,27,27,,,,,,,,,,,,,,,,,,,,,l,1,1.1726535999914631,,,,,,,,,,,,ld,女,19,2024_Apr_21_1016,mian,2021.2.3,60.14082576046686,
5a,1,1,a,l,"[0.2, 0.2]",,,,,,,,,,,,,,,,0,28,28,28,,,,,,,,,,,,,,,,,,,,,l,1,1.2535988000017824,,,,,,,,,,,,ld,女,19,2024_Apr_21_1016,mian,2021.2.3,60.14082576046686,
2h,1,2,h,l,"[-0.2, 0.2]",,,,,,,,,,,,,,,,0,29,29,29,,,,,,,,,,,,,,,,,,,,,l,1,0.6478433999873232,,,,,,,,,,,,ld,女,19,2024_Apr_21_1016,mian,2021.2.3,60.14082576046686,
e5,2,1,5.0,a,"[-0.2, -0.2]",,,,,,,,,,,,,,,,0,30,30,30,,,,,,,,,,,,,,,,,,,,,a,1,1.3100044000020716,,,,,,,,,,,,ld,女,19,2024_Apr_21_1016,mian,2021.2.3,60.14082576046686,
a3,2,2,3.0,a,"[0.2, -0.2]",,,,,,,,,,,,,,,,0,31,31,31,,,,,,,,,,,,,,,,,,,,,l,0,1.853297499998007,,,,,,,,,,,,ld,女,19,2024_Apr_21_1016,mian,2021.2.3,60.14082576046686,
f3,1,1,f,l,"[0.2, 0.2]",,,,,,,,,,,,,,,,0,32,32,32,,,,,,,,,,,,,,,,,,,,,l,1,2.267120500007877,,,,,,,,,,,,ld,女,19,2024_Apr_21_1016,mian,2021.2.3,60.14082576046686,
2E,1,2,E,a,"[-0.2, 0.2]",,,,,,,,,,,,,,,,0,33,33,33,,,,,,,,,,,,,,,,,,,,,a,1,0.9764053000108106,,,,,,,,,,,,ld,女,19,2024_Apr_21_1016,mian,2021.2.3,60.14082576046686,
2H,2,1,2.0,l,"[-0.2, -0.2]",,,,,,,,,,,,,,,,0,34,34,34,,,,,,,,,,,,,,,,,,,,,l,1,2.6239854999876115,,,,,,,,,,,,ld,女,19,2024_Apr_21_1016,mian,2021.2.3,60.14082576046686,
H8,2,2,8.0,l,"[0.2, -0.2]",,,,,,,,,,,,,,,,0,35,35,35,,,,,,,,,,,,,,,,,,,,,l,1,1.1743237000046065,,,,,,,,,,,,ld,女,19,2024_Apr_21_1016,mian,2021.2.3,60.14082576046686,
9g,1,1,g,l,"[0.2, 0.2]",,,,,,,,,,,,,,,,0,36,36,36,,,,,,,,,,,,,,,,,,,,,l,1,1.5815757000091253,,,,,,,,,,,,ld,女,19,2024_Apr_21_1016,mian,2021.2.3,60.14082576046686,
5h,1,2,h,l,"[-0.2, 0.2]",,,,,,,,,,,,,,,,0,37,37,37,,,,,,,,,,,,,,,,,,,,,l,1,0.7043297999916831,,,,,,,,,,,,ld,女,19,2024_Apr_21_1016,mian,2021.2.3,60.14082576046686,
e4,2,1,4.0,l,"[-0.2, -0.2]",,,,,,,,,,,,,,,,0,38,38,38,,,,,,,,,,,,,,,,,,,,,l,1,1.0168725000112318,,,,,,,,,,,,ld,女,19,2024_Apr_21_1016,mian,2021.2.3,60.14082576046686,
9h,2,2,9.0,a,"[0.2, -0.2]",,,,,,,,,,,,,,,,0,39,39,39,,,,,,,,,,,,,,,,,,,,,a,1,0.5905988000013167,,,,,,,,,,,,ld,女,19,2024_Apr_21_1016,mian,2021.2.3,60.14082576046686,
G3,1,1,G,a,"[0.2, 0.2]",,,,,,,,,,,,,,,,0,40,40,40,,,,,,,,,,,,,,,,,,,,,a,1,0.9586378999956651,,,,,,,,,,,,ld,女,19,2024_Apr_21_1016,mian,2021.2.3,60.14082576046686,
9A,1,2,A,a,"[-0.2, 0.2]",,,,,,,,,,,,,,,,0,41,41,41,,,,,,,,,,,,,,,,,,,,,a,1,0.47168230000534095,,,,,,,,,,,,ld,女,19,2024_Apr_21_1016,mian,2021.2.3,60.14082576046686,
H5,2,1,5.0,a,"[-0.2, -0.2]",,,,,,,,,,,,,,,,0,42,42,42,,,,,,,,,,,,,,,,,,,,,a,1,0.8302538999996614,,,,,,,,,,,,ld,女,19,2024_Apr_21_1016,mian,2021.2.3,60.14082576046686,
4e,2,2,4.0,l,"[0.2, -0.2]",,,,,,,,,,,,,,,,0,43,43,43,,,,,,,,,,,,,,,,,,,,,l,1,0.5955279999907361,,,,,,,,,,,,ld,女,19,2024_Apr_21_1016,mian,2021.2.3,60.14082576046686,
E2,1,1,E,a,"[0.2, 0.2]",,,,,,,,,,,,,,,,0,44,44,44,,,,,,,,,,,,,,,,,,,,,a,1,0.9986476000049151,,,,,,,,,,,,ld,女,19,2024_Apr_21_1016,mian,2021.2.3,60.14082576046686,
A5,1,2,A,a,"[-0.2, 0.2]",,,,,,,,,,,,,,,,0,45,45,45,,,,,,,,,,,,,,,,,,,,,a,1,0.6174959000054514,,,,,,,,,,,,ld,女,19,2024_Apr_21_1016,mian,2021.2.3,60.14082576046686,
2A,2,1,2.0,l,"[-0.2, -0.2]",,,,,,,,,,,,,,,,0,46,46,46,,,,,,,,,,,,,,,,,,,,,a,0,1.8956609000015305,,,,,,,,,,,,ld,女,19,2024_Apr_21_1016,mian,2021.2.3,60.14082576046686,
6G,2,2,6.0,l,"[0.2, -0.2]",,,,,,,,,,,,,,,,0,47,47,47,,,,,,,,,,,,,,,,,,,,,a,0,0.997224599996116,,,,,,,,,,,,ld,女,19,2024_Apr_21_1016,mian,2021.2.3,60.14082576046686,
H3,1,1,H,a,"[0.2, 0.2]",,,,,,,,,,,,,,,,0,48,48,48,,,,,,,,,,,,,,,,,,,,,a,1,3.1045986999961315,,,,,,,,,,,,ld,女,19,2024_Apr_21_1016,mian,2021.2.3,60.14082576046686,
H2,1,2,H,a,"[-0.2, 0.2]",,,,,,,,,,,,,,,,0,49,49,49,,,,,,,,,,,,,,,,,,,,,a,1,0.9811347000068054,,,,,,,,,,,,ld,女,19,2024_Apr_21_1016,mian,2021.2.3,60.14082576046686,
e9,2,1,9.0,a,"[-0.2, -0.2]",,,,,,,,,,,,,,,,0,50,50,50,,,,,,,,,,,,,,,,,,,,,a,1,2.7511552999931155,,,,,,,,,,,,ld,女,19,2024_Apr_21_1016,mian,2021.2.3,60.14082576046686,
2G,2,2,2.0,l,"[0.2, -0.2]",,,,,,,,,,,,,,,,0,51,51,51,,,,,,,,,,,,,,,,,,,,,l,1,0.8845026999915717,,,,,,,,,,,,ld,女,19,2024_Apr_21_1016,mian,2021.2.3,60.14082576046686,
4f,1,1,f,l,"[0.2, 0.2]",,,,,,,,,,,,,,,,0,52,52,52,,,,,,,,,,,,,,,,,,,,,l,1,0.9445368000015151,,,,,,,,,,,,ld,女,19,2024_Apr_21_1016,mian,2021.2.3,60.14082576046686,
H6,1,2,H,a,"[-0.2, 0.2]",,,,,,,,,,,,,,,,0,53,53,53,,,,,,,,,,,,,,,,,,,,,a,1,0.6402956000092672,,,,,,,,,,,,ld,女,19,2024_Apr_21_1016,mian,2021.2.3,60.14082576046686,
A4,2,1,4.0,l,"[-0.2, -0.2]",,,,,,,,,,,,,,,,0,54,54,54,,,,,,,,,,,,,,,,,,,,,l,1,1.6162260999990394,,,,,,,,,,,,ld,女,19,2024_Apr_21_1016,mian,2021.2.3,60.14082576046686,
3F,2,2,3.0,a,"[0.2, -0.2]",,,,,,,,,,,,,,,,0,55,55,55,,,,,,,,,,,,,,,,,,,,,a,1,0.7274127999990014,,,,,,,,,,,,ld,女,19,2024_Apr_21_1016,mian,2021.2.3,60.14082576046686,
7e,1,1,e,l,"[0.2, 0.2]",,,,,,,,,,,,,,,,0,56,56,56,,,,,,,,,,,,,,,,,,,,,l,1,2.7887901999929454,,,,,,,,,,,,ld,女,19,2024_Apr_21_1016,mian,2021.2.3,60.14082576046686,
F9,1,2,F,a,"[-0.2, 0.2]",,,,,,,,,,,,,,,,0,57,57,57,,,,,,,,,,,,,,,,,,,,,a,1,2.6427561000018613,,,,,,,,,,,,ld,女,19,2024_Apr_21_1016,mian,2021.2.3,60.14082576046686,
e2,2,1,2.0,l,"[-0.2, -0.2]",,,,,,,,,,,,,,,,0,58,58,58,,,,,,,,,,,,,,,,,,,,,l,1,1.515844699999434,,,,,,,,,,,,ld,女,19,2024_Apr_21_1016,mian,2021.2.3,60.14082576046686,
5F,2,2,5.0,a,"[0.2, -0.2]",,,,,,,,,,,,,,,,0,59,59,59,,,,,,,,,,,,,,,,,,,,,a,1,0.8879430000088178,,,,,,,,,,,,ld,女,19,2024_Apr_21_1016,mian,2021.2.3,60.14082576046686,
f6,1,1,f,l,"[0.2, 0.2]",,,,,,,,,,,,,,,,0,60,60,60,,,,,,,,,,,,,,,,,,,,,l,1,0.8557755999936489,,,,,,,,,,,,ld,女,19,2024_Apr_21_1016,mian,2021.2.3,60.14082576046686,
7G,1,2,G,a,"[-0.2, 0.2]",,,,,,,,,,,,,,,,0,61,61,61,,,,,,,,,,,,,,,,,,,,,a,1,0.7375814000115497,,,,,,,,,,,,ld,女,19,2024_Apr_21_1016,mian,2021.2.3,60.14082576046686,
e6,2,1,6.0,l,"[-0.2, -0.2]",,,,,,,,,,,,,,,,0,62,62,62,,,,,,,,,,,,,,,,,,,,,l,1,1.6094758999970509,,,,,,,,,,,,ld,女,19,2024_Apr_21_1016,mian,2021.2.3,60.14082576046686,
3G,2,2,3.0,a,"[0.2, -0.2]",,,,,,,,,,,,,,,,0,63,63,63,,,,,,,,,,,,,,,,,,,,,a,1,0.925712600001134,,,,,,,,,,,,ld,女,19,2024_Apr_21_1016,mian,2021.2.3,60.14082576046686,
5E,1,1,E,a,"[0.2, 0.2]",,,,,,,,,,,,,,,,0,64,64,64,,,,,,,,,,,,,,,,,,,,,a,1,0.9048476000025403,,,,,,,,,,,,ld,女,19,2024_Apr_21_1016,mian,2021.2.3,60.14082576046686,
A6,1,2,A,a,"[-0.2, 0.2]",,,,,,,,,,,,,,,,0,65,65,65,,,,,,,,,,,,,,,,,,,,,a,1,0.866159900004277,,,,,,,,,,,,ld,女,19,2024_Apr_21_1016,mian,2021.2.3,60.14082576046686,
E3,2,1,3.0,a,"[-0.2, -0.2]",,,,,,,,,,,,,,,,0,66,66,66,,,,,,,,,,,,,,,,,,,,,a,1,2.917835999993258,,,,,,,,,,,,ld,女,19,2024_Apr_21_1016,mian,2021.2.3,60.14082576046686,
2f,2,2,2.0,l,"[0.2, -0.2]",,,,,,,,,,,,,,,,0,67,67,67,,,,,,,,,,,,,,,,,,,,,l,1,0.9285559999989346,,,,,,,,,,,,ld,女,19,2024_Apr_21_1016,mian,2021.2.3,60.14082576046686,
g3,1,1,g,l,"[0.2, 0.2]",,,,,,,,,,,,,,,,0,68,68,68,,,,,,,,,,,,,,,,,,,,,l,1,1.525112999996054,,,,,,,,,,,,ld,女,19,2024_Apr_21_1016,mian,2021.2.3,60.14082576046686,
E8,1,2,E,a,"[-0.2, 0.2]",,,,,,,,,,,,,,,,0,69,69,69,,,,,,,,,,,,,,,,,,,,,a,1,0.5441976000001887,,,,,,,,,,,,ld,女,19,2024_Apr_21_1016,mian,2021.2.3,60.14082576046686,
6g,2,1,6.0,l,"[-0.2, -0.2]",,,,,,,,,,,,,,,,0,70,70,70,,,,,,,,,,,,,,,,,,,,,l,1,1.8355660000088392,,,,,,,,,,,,ld,女,19,2024_Apr_21_1016,mian,2021.2.3,60.14082576046686,
5H,2,2,5.0,a,"[0.2, -0.2]",,,,,,,,,,,,,,,,0,71,71,71,,,,,,,,,,,,,,,,,,,,,a,1,0.5774080999981379,,,,,,,,,,,,ld,女,19,2024_Apr_21_1016,mian,2021.2.3,60.14082576046686,
4A,1,1,A,a,"[0.2, 0.2]",,,,,,,,,,,,,,,,0,72,72,72,,,,,,,,,,,,,,,,,,,,,a,1,0.9512227999948664,,,,,,,,,,,,ld,女,19,2024_Apr_21_1016,mian,2021.2.3,60.14082576046686,
7F,1,2,F,a,"[-0.2, 0.2]",,,,,,,,,,,,,,,,0,73,73,73,,,,,,,,,,,,,,,,,,,,,a,1,0.4219251000031363,,,,,,,,,,,,ld,女,19,2024_Apr_21_1016,mian,2021.2.3,60.14082576046686,
6H,2,1,6.0,l,"[-0.2, -0.2]",,,,,,,,,,,,,,,,0,74,74,74,,,,,,,,,,,,,,,,,,,,,l,1,1.0036449000035645,,,,,,,,,,,,ld,女,19,2024_Apr_21_1016,mian,2021.2.3,60.14082576046686,
3a,2,2,3.0,a,"[0.2, -0.2]",,,,,,,,,,,,,,,,0,75,75,75,,,,,,,,,,,,,,,,,,,,,a,1,0.8386338999989675,,,,,,,,,,,,ld,女,19,2024_Apr_21_1016,mian,2021.2.3,60.14082576046686,
9F,1,1,F,a,"[0.2, 0.2]",,,,,,,,,,,,,,,,0,76,76,76,,,,,,,,,,,,,,,,,,,,,a,1,0.6457220000011148,,,,,,,,,,,,ld,女,19,2024_Apr_21_1016,mian,2021.2.3,60.14082576046686,
G7,1,2,G,a,"[-0.2, 0.2]",,,,,,,,,,,,,,,,0,77,77,77,,,,,,,,,,,,,,,,,,,,,a,1,0.6506091999908676,,,,,,,,,,,,ld,女,19,2024_Apr_21_1016,mian,2021.2.3,60.14082576046686,
a6,2,1,6.0,l,"[-0.2, -0.2]",,,,,,,,,,,,,,,,0,78,78,78,,,,,,,,,,,,,,,,,,,,,l,1,1.310092400002759,,,,,,,,,,,,ld,女,19,2024_Apr_21_1016,mian,2021.2.3,60.14082576046686,
4h,2,2,4.0,l,"[0.2, -0.2]",,,,,,,,,,,,,,,,0,79,79,79,,,,,,,,,,,,,,,,,,,,,l,1,0.9725992000021506,,,,,,,,,,,,ld,女,19,2024_Apr_21_1016,mian,2021.2.3,60.14082576046686,
6A,1,1,A,a,"[0.2, 0.2]",,,,,,,,,,,,,,,,,,,,0,0,0,0,,,,,,,,,,,,,,,,,a,1,2.739879500004463,,,,,,,,,,,,ld,女,19,2024_Apr_21_1016,mian,2021.2.3,60.14082576046686,
4H,1,2,H,a,"[-0.2, 0.2]",,,,,,,,,,,,,,,,,,,,0,1,1,1,,,,,,,,,,,,,,,,,a,1,0.5551349000015762,,,,,,,,,,,,ld,女,19,2024_Apr_21_1016,mian,2021.2.3,60.14082576046686,
3H,2,1,3.0,a,"[-0.2, -0.2]",,,,,,,,,,,,,,,,,,,,0,2,2,2,,,,,,,,,,,,,,,,,a,1,1.547263300002669,,,,,,,,,,,,ld,女,19,2024_Apr_21_1016,mian,2021.2.3,60.14082576046686,
a9,2,2,9.0,a,"[0.2, -0.2]",,,,,,,,,,,,,,,,,,,,0,3,3,3,,,,,,,,,,,,,,,,,a,1,1.3643728000024566,,,,,,,,,,,,ld,女,19,2024_Apr_21_1016,mian,2021.2.3,60.14082576046686,
E7,1,1,E,a,"[0.2, 0.2]",,,,,,,,,,,,,,,,,,,,0,4,4,4,,,,,,,,,,,,,,,,,a,1,0.9209786999999778,,,,,,,,,,,,ld,女,19,2024_Apr_21_1016,mian,2021.2.3,60.14082576046686,
6h,1,2,h,l,"[-0.2, 0.2]",,,,,,,,,,,,,,,,,,,,0,5,5,5,,,,,,,,,,,,,,,,,l,1,0.6363946000055876,,,,,,,,,,,,ld,女,19,2024_Apr_21_1016,mian,2021.2.3,60.14082576046686,
8A,2,1,8.0,l,"[-0.2, -0.2]",,,,,,,,,,,,,,,,,,,,0,6,6,6,,,,,,,,,,,,,,,,,l,1,2.421558300004108,,,,,,,,,,,,ld,女,19,2024_Apr_21_1016,mian,2021.2.3,60.14082576046686,
f5,2,2,5.0,a,"[0.2, -0.2]",,,,,,,,,,,,,,,,,,,,0,7,7,7,,,,,,,,,,,,,,,,,a,1,0.8177731000032509,,,,,,,,,,,,ld,女,19,2024_Apr_21_1016,mian,2021.2.3,60.14082576046686,
2a,1,1,a,l,"[0.2, 0.2]",,,,,,,,,,,,,,,,,,,,0,8,8,8,,,,,,,,,,,,,,,,,l,1,1.0105283000011696,,,,,,,,,,,,ld,女,19,2024_Apr_21_1016,mian,2021.2.3,60.14082576046686,
F7,1,2,F,a,"[-0.2, 0.2]",,,,,,,,,,,,,,,,,,,,0,9,9,9,,,,,,,,,,,,,,,,,a,1,0.7052474999945844,,,,,,,,,,,,ld,女,19,2024_Apr_21_1016,mian,2021.2.3,60.14082576046686,
h2,2,1,2.0,l,"[-0.2, -0.2]",,,,,,,,,,,,,,,,,,,,0,10,10,10,,,,,,,,,,,,,,,,,l,1,1.6778924000100233,,,,,,,,,,,,ld,女,19,2024_Apr_21_1016,mian,2021.2.3,60.14082576046686,
F5,2,2,5.0,a,"[0.2, -0.2]",,,,,,,,,,,,,,,,,,,,0,11,11,11,,,,,,,,,,,,,,,,,a,1,0.8285763000021689,,,,,,,,,,,,ld,女,19,2024_Apr_21_1016,mian,2021.2.3,60.14082576046686,
A9,1,1,A,a,"[0.2, 0.2]",,,,,,,,,,,,,,,,,,,,0,12,12,12,,,,,,,,,,,,,,,,,a,1,1.3430852000019513,,,,,,,,,,,,ld,女,19,2024_Apr_21_1016,mian,2021.2.3,60.14082576046686,
3e,1,2,e,l,"[-0.2, 0.2]",,,,,,,,,,,,,,,,,,,,0,13,13,13,,,,,,,,,,,,,,,,,l,1,0.528790399999707,,,,,,,,,,,,ld,女,19,2024_Apr_21_1016,mian,2021.2.3,60.14082576046686,
f8,2,1,8.0,l,"[-0.2, -0.2]",,,,,,,,,,,,,,,,,,,,0,14,14,14,,,,,,,,,,,,,,,,,l,1,3.453027600000496,,,,,,,,,,,,ld,女,19,2024_Apr_21_1016,mian,2021.2.3,60.14082576046686,
G2,2,2,2.0,l,"[0.2, -0.2]",,,,,,,,,,,,,,,,,,,,0,15,15,15,,,,,,,,,,,,,,,,,l,1,1.3919217999937246,,,,,,,,,,,,ld,女,19,2024_Apr_21_1016,mian,2021.2.3,60.14082576046686,
F2,1,1,F,a,"[0.2, 0.2]",,,,,,,,,,,,,,,,,,,,0,16,16,16,,,,,,,,,,,,,,,,,a,1,1.2097341999906348,,,,,,,,,,,,ld,女,19,2024_Apr_21_1016,mian,2021.2.3,60.14082576046686,
5e,1,2,e,l,"[-0.2, 0.2]",,,,,,,,,,,,,,,,,,,,0,17,17,17,,,,,,,,,,,,,,,,,l,1,0.6184160999982851,,,,,,,,,,,,ld,女,19,2024_Apr_21_1016,mian,2021.2.3,60.14082576046686,
A3,2,1,3.0,a,"[-0.2, -0.2]",,,,,,,,,,,,,,,,,,,,0,18,18,18,,,,,,,,,,,,,,,,,a,1,1.215998200001195,,,,,,,,,,,,ld,女,19,2024_Apr_21_1016,mian,2021.2.3,60.14082576046686,
4g,2,2,4.0,l,"[0.2, -0.2]",,,,,,,,,,,,,,,,,,,,0,19,19,19,,,,,,,,,,,,,,,,,l,1,0.6014183000079356,,,,,,,,,,,,ld,女,19,2024_Apr_21_1016,mian,2021.2.3,60.14082576046686,
h7,1,1,h,l,"[0.2, 0.2]",,,,,,,,,,,,,,,,,,,,0,20,20,20,,,,,,,,,,,,,,,,,l,1,0.6656375000020489,,,,,,,,,,,,ld,女,19,2024_Apr_21_1016,mian,2021.2.3,60.14082576046686,
3g,1,2,g,l,"[-0.2, 0.2]",,,,,,,,,,,,,,,,,,,,0,21,21,21,,,,,,,,,,,,,,,,,l,1,0.3910159999941243,,,,,,,,,,,,ld,女,19,2024_Apr_21_1016,mian,2021.2.3,60.14082576046686,
8a,2,1,8.0,l,"[-0.2, -0.2]",,,,,,,,,,,,,,,,,,,,0,22,22,22,,,,,,,,,,,,,,,,,l,1,1.9377081999991788,,,,,,,,,,,,ld,女,19,2024_Apr_21_1016,mian,2021.2.3,60.14082576046686,
4E,2,2,4.0,l,"[0.2, -0.2]",,,,,,,,,,,,,,,,,,,,0,23,23,23,,,,,,,,,,,,,,,,,l,1,0.5234165000001667,,,,,,,,,,,,ld,女,19,2024_Apr_21_1016,mian,2021.2.3,60.14082576046686,
E5,1,1,E,a,"[0.2, 0.2]",,,,,,,,,,,,,,,,,,,,0,24,24,24,,,,,,,,,,,,,,,,,a,1,1.1070770999940578,,,,,,,,,,,,ld,女,19,2024_Apr_21_1016,mian,2021.2.3,60.14082576046686,
g6,1,2,g,l,"[-0.2, 0.2]",,,,,,,,,,,,,,,,,,,,0,25,25,25,,,,,,,,,,,,,,,,,l,1,0.46884980000322685,,,,,,,,,,,,ld,女,19,2024_Apr_21_1016,mian,2021.2.3,60.14082576046686,
2e,2,1,2.0,l,"[-0.2, -0.2]",,,,,,,,,,,,,,,,,,,,0,26,26,26,,,,,,,,,,,,,,,,,l,1,2.413460199997644,,,,,,,,,,,,ld,女,19,2024_Apr_21_1016,mian,2021.2.3,60.14082576046686,
h8,2,2,8.0,l,"[0.2, -0.2]",,,,,,,,,,,,,,,,,,,,0,27,27,27,,,,,,,,,,,,,,,,,l,1,0.5985153999936301,,,,,,,,,,,,ld,女,19,2024_Apr_21_1016,mian,2021.2.3,60.14082576046686,
G6,1,1,G,a,"[0.2, 0.2]",,,,,,,,,,,,,,,,,,,,0,28,28,28,,,,,,,,,,,,,,,,,l,0,0.7609296000009635,,,,,,,,,,,,ld,女,19,2024_Apr_21_1016,mian,2021.2.3,60.14082576046686,
a4,1,2,a,l,"[-0.2, 0.2]",,,,,,,,,,,,,,,,,,,,0,29,29,29,,,,,,,,,,,,,,,,,l,1,0.5744536999991396,,,,,,,,,,,,ld,女,19,2024_Apr_21_1016,mian,2021.2.3,60.14082576046686,
9H,2,1,9.0,a,"[-0.2, -0.2]",,,,,,,,,,,,,,,,,,,,0,30,30,30,,,,,,,,,,,,,,,,,a,1,2.0951144999999087,,,,,,,,,,,,ld,女,19,2024_Apr_21_1016,mian,2021.2.3,60.14082576046686,
7H,2,2,7.0,a,"[0.2, -0.2]",,,,,,,,,,,,,,,,,,,,0,31,31,31,,,,,,,,,,,,,,,,,a,1,0.4289377999957651,,,,,,,,,,,,ld,女,19,2024_Apr_21_1016,mian,2021.2.3,60.14082576046686,
9f,1,1,f,l,"[0.2, 0.2]",,,,,,,,,,,,,,,,,,,,0,32,32,32,,,,,,,,,,,,,,,,,l,1,1.004553600010695,,,,,,,,,,,,ld,女,19,2024_Apr_21_1016,mian,2021.2.3,60.14082576046686,
8E,1,2,E,a,"[-0.2, 0.2]",,,,,,,,,,,,,,,,,,,,0,33,33,33,,,,,,,,,,,,,,,,,a,1,0.9140843000059249,,,,,,,,,,,,ld,女,19,2024_Apr_21_1016,mian,2021.2.3,60.14082576046686,
A2,2,1,2.0,l,"[-0.2, -0.2]",,,,,,,,,,,,,,,,,,,,0,34,34,34,,,,,,,,,,,,,,,,,l,1,1.1359147999901325,,,,,,,,,,,,ld,女,19,2024_Apr_21_1016,mian,2021.2.3,60.14082576046686,
H7,2,2,7.0,a,"[0.2, -0.2]",,,,,,,,,,,,,,,,,,,,0,35,35,35,,,,,,,,,,,,,,,,,a,1,0.652797400005511,,,,,,,,,,,,ld,女,19,2024_Apr_21_1016,mian,2021.2.3,60.14082576046686,
h9,1,1,h,l,"[0.2, 0.2]",,,,,,,,,,,,,,,,,,,,0,36,36,36,,,,,,,,,,,,,,,,,l,1,0.658980000007432,,,,,,,,,,,,ld,女,19,2024_Apr_21_1016,mian,2021.2.3,60.14082576046686,
8G,1,2,G,a,"[-0.2, 0.2]",,,,,,,,,,,,,,,,,,,,0,37,37,37,,,,,,,,,,,,,,,,,a,1,0.6088444000051823,,,,,,,,,,,,ld,女,19,2024_Apr_21_1016,mian,2021.2.3,60.14082576046686,
H4,2,1,4.0,l,"[-0.2, -0.2]",,,,,,,,,,,,,,,,,,,,0,38,38,38,,,,,,,,,,,,,,,,,l,1,0.9241913000005297,,,,,,,,,,,,ld,女,19,2024_Apr_21_1016,mian,2021.2.3,60.14082576046686,
A8,2,2,8.0,l,"[0.2, -0.2]",,,,,,,,,,,,,,,,,,,,0,39,39,39,,,,,,,,,,,,,,,,,l,1,0.5214923000021372,,,,,,,,,,,,ld,女,19,2024_Apr_21_1016,mian,2021.2.3,60.14082576046686,
g7,1,1,g,l,"[0.2, 0.2]",,,,,,,,,,,,,,,,,,,,0,40,40,40,,,,,,,,,,,,,,,,,l,1,1.2201439999917056,,,,,,,,,,,,ld,女,19,2024_Apr_21_1016,mian,2021.2.3,60.14082576046686,
H9,1,2,H,a,"[-0.2, 0.2]",,,,,,,,,,,,,,,,,,,,0,41,41,41,,,,,,,,,,,,,,,,,a,1,0.5024319000076503,,,,,,,,,,,,ld,女,19,2024_Apr_21_1016,mian,2021.2.3,60.14082576046686,
9E,2,1,9.0,a,"[-0.2, -0.2]",,,,,,,,,,,,,,,,,,,,0,42,42,42,,,,,,,,,,,,,,,,,a,1,0.9667983000108507,,,,,,,,,,,,ld,女,19,2024_Apr_21_1016,mian,2021.2.3,60.14082576046686,
a5,2,2,5.0,a,"[0.2, -0.2]",,,,,,,,,,,,,,,,,,,,0,43,43,43,,,,,,,,,,,,,,,,,a,1,0.6989646000001812,,,,,,,,,,,,ld,女,19,2024_Apr_21_1016,mian,2021.2.3,60.14082576046686,
3E,1,1,E,a,"[0.2, 0.2]",,,,,,,,,,,,,,,,,,,,0,44,44,44,,,,,,,,,,,,,,,,,a,1,0.9308643999975175,,,,,,,,,,,,ld,女,19,2024_Apr_21_1016,mian,2021.2.3,60.14082576046686,
6f,1,2,f,l,"[-0.2, 0.2]",,,,,,,,,,,,,,,,,,,,0,45,45,45,,,,,,,,,,,,,,,,,l,1,0.48236149999138433,,,,,,,,,,,,ld,女,19,2024_Apr_21_1016,mian,2021.2.3,60.14082576046686,
g8,2,1,8.0,l,"[-0.2, -0.2]",,,,,,,,,,,,,,,,,,,,0,46,46,46,,,,,,,,,,,,,,,,,l,1,1.1739939999970375,,,,,,,,,,,,ld,女,19,2024_Apr_21_1016,mian,2021.2.3,60.14082576046686,
4F,2,2,4.0,l,"[0.2, -0.2]",,,,,,,,,,,,,,,,,,,,0,47,47,47,,,,,,,,,,,,,,,,,l,1,0.7165340000065044,,,,,,,,,,,,ld,女,19,2024_Apr_21_1016,mian,2021.2.3,60.14082576046686,
4a,1,1,a,l,"[0.2, 0.2]",,,,,,,,,,,,,,,,,,,,0,48,48,48,,,,,,,,,,,,,,,,,l,1,0.9682833999977447,,,,,,,,,,,,ld,女,19,2024_Apr_21_1016,mian,2021.2.3,60.14082576046686,
e3,1,2,e,l,"[-0.2, 0.2]",,,,,,,,,,,,,,,,,,,,0,49,49,49,,,,,,,,,,,,,,,,,l,1,0.850478699998348,,,,,,,,,,,,ld,女,19,2024_Apr_21_1016,mian,2021.2.3,60.14082576046686,
5g,2,1,5.0,a,"[-0.2, -0.2]",,,,,,,,,,,,,,,,,,,,0,50,50,50,,,,,,,,,,,,,,,,,a,1,1.5813517000060529,,,,,,,,,,,,ld,女,19,2024_Apr_21_1016,mian,2021.2.3,60.14082576046686,
f4,2,2,4.0,l,"[0.2, -0.2]",,,,,,,,,,,,,,,,,,,,0,51,51,51,,,,,,,,,,,,,,,,,a,0,0.562092100008158,,,,,,,,,,,,ld,女,19,2024_Apr_21_1016,mian,2021.2.3,60.14082576046686,
6E,1,1,E,a,"[0.2, 0.2]",,,,,,,,,,,,,,,,,,,,0,52,52,52,,,,,,,,,,,,,,,,,a,1,1.2447185999917565,,,,,,,,,,,,ld,女,19,2024_Apr_21_1016,mian,2021.2.3,60.14082576046686,
7A,1,2,A,a,"[-0.2, 0.2]",,,,,,,,,,,,,,,,,,,,0,53,53,53,,,,,,,,,,,,,,,,,a,1,0.8289494000055129,,,,,,,,,,,,ld,女,19,2024_Apr_21_1016,mian,2021.2.3,60.14082576046686,
F4,2,1,4.0,l,"[-0.2, -0.2]",,,,,,,,,,,,,,,,,,,,0,54,54,54,,,,,,,,,,,,,,,,,l,1,1.3165357999969274,,,,,,,,,,,,ld,女,19,2024_Apr_21_1016,mian,2021.2.3,60.14082576046686,
2g,2,2,2.0,l,"[0.2, -0.2]",,,,,,,,,,,,,,,,,,,,0,55,55,55,,,,,,,,,,,,,,,,,l,1,0.6789228999987245,,,,,,,,,,,,ld,女,19,2024_Apr_21_1016,mian,2021.2.3,60.14082576046686,
7E,1,1,E,a,"[0.2, 0.2]",,,,,,,,,,,,,,,,,,,,0,56,56,56,,,,,,,,,,,,,,,,,a,1,1.6022319000039715,,,,,,,,,,,,ld,女,19,2024_Apr_21_1016,mian,2021.2.3,60.14082576046686,
G4,1,2,G,a,"[-0.2, 0.2]",,,,,,,,,,,,,,,,,,,,0,57,57,57,,,,,,,,,,,,,,,,,a,1,1.3942007000005106,,,,,,,,,,,,ld,女,19,2024_Apr_21_1016,mian,2021.2.3,60.14082576046686,
2F,2,1,2.0,l,"[-0.2, -0.2]",,,,,,,,,,,,,,,,,,,,0,58,58,58,,,,,,,,,,,,,,,,,l,1,1.650497099995846,,,,,,,,,,,,ld,女,19,2024_Apr_21_1016,mian,2021.2.3,60.14082576046686,
E9,2,2,9.0,a,"[0.2, -0.2]",,,,,,,,,,,,,,,,,,,,0,59,59,59,,,,,,,,,,,,,,,,,a,1,0.6558468000002904,,,,,,,,,,,,ld,女,19,2024_Apr_21_1016,mian,2021.2.3,60.14082576046686,
5f,1,1,f,l,"[0.2, 0.2]",,,,,,,,,,,,,,,,,,,,0,60,60,60,,,,,,,,,,,,,,,,,a,0,1.058782699998119,,,,,,,,,,,,ld,女,19,2024_Apr_21_1016,mian,2021.2.3,60.14082576046686,
e7,1,2,e,l,"[-0.2, 0.2]",,,,,,,,,,,,,,,,,,,,0,61,61,61,,,,,,,,,,,,,,,,,l,1,1.1708997999958228,,,,,,,,,,,,ld,女,19,2024_Apr_21_1016,mian,2021.2.3,60.14082576046686,
f2,2,1,2.0,l,"[-0.2, -0.2]",,,,,,,,,,,,,,,,,,,,0,62,62,62,,,,,,,,,,,,,,,,,l,1,2.513840200001141,,,,,,,,,,,,ld,女,19,2024_Apr_21_1016,mian,2021.2.3,60.14082576046686,
G9,2,2,9.0,a,"[0.2, -0.2]",,,,,,,,,,,,,,,,,,,,0,63,63,63,,,,,,,,,,,,,,,,,a,1,1.3282499000051757,,,,,,,,,,,,ld,女,19,2024_Apr_21_1016,mian,2021.2.3,60.14082576046686,
7g,1,1,g,l,"[0.2, 0.2]",,,,,,,,,,,,,,,,,,,,0,64,64,64,,,,,,,,,,,,,,,,,l,1,2.275164099992253,,,,,,,,,,,,ld,女,19,2024_Apr_21_1016,mian,2021.2.3,60.14082576046686,
F8,1,2,F,a,"[-0.2, 0.2]",,,,,,,,,,,,,,,,,,,,0,65,65,65,,,,,,,,,,,,,,,,,a,1,0.49727059999713674,,,,,,,,,,,,ld,女,19,2024_Apr_21_1016,mian,2021.2.3,60.14082576046686,
A7,2,1,7.0,a,"[-0.2, -0.2]",,,,,,,,,,,,,,,,,,,,0,66,66,66,,,,,,,,,,,,,,,,,a,1,1.6372002999996766,,,,,,,,,,,,ld,女,19,2024_Apr_21_1016,mian,2021.2.3,60.14082576046686,
4G,2,2,4.0,l,"[0.2, -0.2]",,,,,,,,,,,,,,,,,,,,0,67,67,67,,,,,,,,,,,,,,,,,l,1,0.6260111000010511,,,,,,,,,,,,ld,女,19,2024_Apr_21_1016,mian,2021.2.3,60.14082576046686,
g2,1,1,g,l,"[0.2, 0.2]",,,,,,,,,,,,,,,,,,,,0,68,68,68,,,,,,,,,,,,,,,,,l,1,1.1895865999977104,,,,,,,,,,,,ld,女,19,2024_Apr_21_1016,mian,2021.2.3,60.14082576046686,
g4,1,2,g,l,"[-0.2, 0.2]",,,,,,,,,,,,,,,,,,,,0,69,69,69,,,,,,,,,,,,,,,,,l,1,1.041845600004308,,,,,,,,,,,,ld,女,19,2024_Apr_21_1016,mian,2021.2.3,60.14082576046686,
7a,2,1,7.0,a,"[-0.2, -0.2]",,,,,,,,,,,,,,,,,,,,0,70,70,70,,,,,,,,,,,,,,,,,a,1,1.6990511000039987,,,,,,,,,,,,ld,女,19,2024_Apr_21_1016,mian,2021.2.3,60.14082576046686,
8e,2,2,8.0,l,"[0.2, -0.2]",,,,,,,,,,,,,,,,,,,,0,71,71,71,,,,,,,,,,,,,,,,,l,1,0.5132082000054652,,,,,,,,,,,,ld,女,19,2024_Apr_21_1016,mian,2021.2.3,60.14082576046686,
h4,1,1,h,l,"[0.2, 0.2]",,,,,,,,,,,,,,,,,,,,0,72,72,72,,,,,,,,,,,,,,,,,l,1,0.9814215000078548,,,,,,,,,,,,ld,女,19,2024_Apr_21_1016,mian,2021.2.3,60.14082576046686,
G8,1,2,G,a,"[-0.2, 0.2]",,,,,,,,,,,,,,,,,,,,0,73,73,73,,,,,,,,,,,,,,,,,a,1,0.4674297000019578,,,,,,,,,,,,ld,女,19,2024_Apr_21_1016,mian,2021.2.3,60.14082576046686,
6F,2,1,6.0,l,"[-0.2, -0.2]",,,,,,,,,,,,,,,,,,,,0,74,74,74,,,,,,,,,,,,,,,,,l,1,1.9317603999952553,,,,,,,,,,,,ld,女,19,2024_Apr_21_1016,mian,2021.2.3,60.14082576046686,
g5,2,2,5.0,a,"[0.2, -0.2]",,,,,,,,,,,,,,,,,,,,0,75,75,75,,,,,,,,,,,,,,,,,a,1,1.3226741999969818,,,,,,,,,,,,ld,女,19,2024_Apr_21_1016,mian,2021.2.3,60.14082576046686,
G5,1,1,G,a,"[0.2, 0.2]",,,,,,,,,,,,,,,,,,,,0,76,76,76,,,,,,,,,,,,,,,,,a,1,2.8229065999912564,,,,,,,,,,,,ld,女,19,2024_Apr_21_1016,mian,2021.2.3,60.14082576046686,
h5,1,2,h,l,"[-0.2, 0.2]",,,,,,,,,,,,,,,,,,,,0,77,77,77,,,,,,,,,,,,,,,,,l,1,0.45320870001160074,,,,,,,,,,,,ld,女,19,2024_Apr_21_1016,mian,2021.2.3,60.14082576046686,
9G,2,1,9.0,a,"[-0.2, -0.2]",,,,,,,,,,,,,,,,,,,,0,78,78,78,,,,,,,,,,,,,,,,,a,1,0.8437737000058405,,,,,,,,,,,,ld,女,19,2024_Apr_21_1016,mian,2021.2.3,60.14082576046686,
F3,2,2,3.0,a,"[0.2, -0.2]",,,,,,,,,,,,,,,,,,,,0,79,79,79,,,,,,,,,,,,,,,,,a,1,0.8012853999971412,,,,,,,,,,,,ld,女,19,2024_Apr_21_1016,mian,2021.2.3,60.14082576046686,
,,,,,,0,1,pic/flanker5.png,pic/flanker1.png,s,k,,,,,,,,,,,,,,,,,,0,0,0,0,0,0,0,0,,,,,,,,,,,,478.7213200999977,None,477.5398908999923,478.7554975999956,None,0,永恒,k,1,0.9880379999958677,,ld,女,19,2024_Apr_21_1016,mian,2021.2.3,60.14082576046686,
,,,,,,0,0,pic/flanker6.png,pic/flanker2.png,a,l,,,,,,,,,,,,,,,,,,0,0,0,0,0,1,1,1,,,,,,,,,,,,483.13917409999704,None,481.9549791999889,483.15511549999064,a,1,焦躁,l,1,0.8355251000029966,0.4089745999954175,ld,女,19,2024_Apr_21_1016,mian,2021.2.3,60.14082576046686,
,,,,,,1,1,pic/flanker5.png,pic/flanker3.png,a,k,,,,,,,,,,,,,,,,,,0,0,0,0,0,2,2,4,,,,,,,,,,,,486.3204143999901,None,485.1553475999972,486.3702967999998,a,1,公平,k,1,0.8850158999994164,0.663894800003618,ld,女,19,2024_Apr_21_1016,mian,2021.2.3,60.14082576046686,
,,,,,,1,0,pic/flanker6.png,pic/flanker4.png,s,l,,,,,,,,,,,,,,,,,,0,0,0,0,0,3,3,5,,,,,,,,,,,,489.9206702999945,None,488.75443409998843,489.9535340000002,s,1,怀疑,l,1,0.5661791000020457,0.579061600001296,ld,女,19,2024_Apr_21_1016,mian,2021.2.3,60.14082576046686,
,,,,,,0,0,pic/flanker5.png,pic/flanker1.png,s,l,,,,,,,,,,,,,,,,,,0,0,0,0,0,4,4,3,,,,,,,,,,,,493.13741039999877,None,491.9535380000016,493.1533952999889,s,1,别扭,l,1,0.665759600000456,0.6295281999919098,ld,女,19,2024_Apr_21_1016,mian,2021.2.3,60.14082576046686,
,,,,,,0,1,pic/flanker6.png,pic/flanker2.png,a,k,,,,,,,,,,,,,,,,,,0,0,0,0,0,5,5,2,,,,,,,,,,,,496.2874157999904,None,495.1044942000008,496.30432080000173,a,1,鲜艳,k,1,0.5902038999920478,0.41437700000824407,ld,女,19,2024_Apr_21_1016,mian,2021.2.3,60.14082576046686,
,,,,,,1,0,pic/flanker5.png,pic/flanker3.png,a,l,,,,,,,,,,,,,,,,,,0,0,0,0,0,6,6,7,,,,,,,,,,,,499.15467750000244,None,497.97025819998817,499.17097969999304,a,1,孤单,l,1,0.6390194999985397,0.4208696999994572,ld,女,19,2024_Apr_21_1016,mian,2021.2.3,60.14082576046686,
,,,,,,1,1,pic/flanker6.png,pic/flanker4.png,s,k,,,,,,,,,,,,,,,,,,0,0,0,0,0,7,7,6,,,,,,,,,,,,502.08654099999694,None,500.92104780000227,502.13545899999735,s,1,旺盛,k,1,0.6033542000077432,0.4195824999915203,ld,女,19,2024_Apr_21_1016,mian,2021.2.3,60.14082576046686,
,,,,,,,,,,,,,,,,,,,,,,,,,,,,,0,0,0,0,,,,,,,,,,,,,,,,,,,,,,,,,,,ld,女,19,2024_Apr_21_1016,mian,2021.2.3,60.14082576046686,
,,,,,,0,0,pic/flanker5.png,pic/flanker1.png,s,l,pic/AffRest1.png,,,,,,,,,,,,,,,,,,,,,,,,,0,0,0,0,0,0,0,59,,,,513.9022349000006,None,512.7179066999961,513.9180149999884,s,1,缺乏,l,1,0.5584858000074746,0.3395145999966189,ld,女,19,2024_Apr_21_1016,mian,2021.2.3,60.14082576046686,
,,,,,,1,1,pic/flanker5.png,pic/flanker3.png,a,k,pic/AffRest1.png,,,,,,,,,,,,,,,,,,,,,,,,,0,0,0,0,0,1,1,36,,,,516.7362825000018,None,515.5510616999964,516.7530612999981,a,1,富足,k,1,0.6211489999986952,0.40291019999131095,ld,女,19,2024_Apr_21_1016,mian,2021.2.3,60.14082576046686,
,,,,,,0,1,pic/flanker5.png,pic/flanker1.png,s,k,pic/AffRest1.png,,,,,,,,,,,,,,,,,,,,,,,,,0,0,0,0,0,2,2,64,,,,519.719417299988,None,518.5347849999962,519.7358534999948,s,1,优雅,k,1,0.5467866999970283,0.33445100000244565,ld,女,19,2024_Apr_21_1016,mian,2021.2.3,60.14082576046686,
,,,,,,1,1,pic/flanker6.png,pic/flanker4.png,s,k,pic/AffRest1.png,,,,,,,,,,,,,,,,,,,,,,,,,0,0,0,0,0,3,3,6,,,,522.5515798999986,None,521.3683823999891,522.5693530999997,s,1,豪放,k,1,0.6779558999987785,0.38717349999933504,ld,女,19,2024_Apr_21_1016,mian,2021.2.3,60.14082576046686,
,,,,,,0,0,pic/flanker6.png,pic/flanker2.png,a,l,pic/AffRest1.png,,,,,,,,,,,,,,,,,,,,,,,,,0,0,0,0,0,4,4,49,,,,525.6999877999915,None,524.5167041999957,525.7166578999895,a,1,堵塞,l,1,0.4776645000092685,0.3563257999921916,ld,女,19,2024_Apr_21_1016,mian,2021.2.3,60.14082576046686,
,,,,,,0,1,pic/flanker5.png,pic/flanker1.png,s,k,pic/AffRest1.png,,,,,,,,,,,,,,,,,,,,,,,,,0,0,0,0,0,5,5,48,,,,528.5002601000015,None,527.3165485999925,528.5172619999939,s,1,公平,k,1,0.5185781000036513,0.48928629999863915,ld,女,19,2024_Apr_21_1016,mian,2021.2.3,60.14082576046686,
,,,,,,1,1,pic/flanker5.png,pic/flanker3.png,a,k,pic/AffRest1.png,,,,,,,,,,,,,,,,,,,,,,,,,0,0,0,0,0,6,6,68,,,,531.433567,None,530.2677492999937,531.4672799999971,a,1,鲜艳,k,1,0.5470621999993455,0.4025827000004938,ld,女,19,2024_Apr_21_1016,mian,2021.2.3,60.14082576046686,
,,,,,,1,0,pic/flanker6.png,pic/flanker4.png,s,l,pic/AffRest1.png,,,,,,,,,,,,,,,,,,,,,,,,,0,0,0,0,0,7,7,53,,,,534.4505473999889,None,533.2673278000002,534.4672032999952,s,1,杂乱,l,1,0.49802420000196435,0.3774685000098543,ld,女,19,2024_Apr_21_1016,mian,2021.2.3,60.14082576046686,
,,,,,,0,1,pic/flanker6.png,pic/flanker2.png,a,k,pic/AffRest1.png,,,,,,,,,,,,,,,,,,,,,,,,,0,0,0,0,0,8,8,74,,,,537.3329813000018,None,536.1489667999995,537.3493211000023,a,1,珍藏,k,1,0.5281709999981103,0.3798026000004029,ld,女,19,2024_Apr_21_1016,mian,2021.2.3,60.14082576046686,
,,,,,,1,1,pic/flanker6.png,pic/flanker4.png,s,k,pic/AffRest1.png,,,,,,,,,,,,,,,,,,,,,,,,,0,0,0,0,0,9,9,46,,,,540.1997836999944,None,539.0154084999958,540.2153921999998,s,1,热切,k,1,0.431998999993084,0.38938609999604523,ld,女,19,2024_Apr_21_1016,mian,2021.2.3,60.14082576046686,
,,,,,,0,0,pic/flanker5.png,pic/flanker1.png,s,l,pic/AffRest1.png,,,,,,,,,,,,,,,,,,,,,,,,,0,0,0,0,0,10,10,19,,,,542.9155564999965,None,541.7318374000024,542.9331524000008,s,1,假冒,l,1,0.4781537000089884,0.40018959999724757,ld,女,19,2024_Apr_21_1016,mian,2021.2.3,60.14082576046686,
,,,,,,1,1,pic/flanker5.png,pic/flanker3.png,a,k,pic/AffRest1.png,,,,,,,,,,,,,,,,,,,,,,,,,0,0,0,0,0,11,11,60,,,,545.7993497999996,None,544.6163178999996,545.8162855999981,a,1,振作,k,1,0.5687234000070021,0.3704323999991175,ld,女,19,2024_Apr_21_1016,mian,2021.2.3,60.14082576046686,
,,,,,,1,0,pic/flanker5.png,pic/flanker3.png,a,l,pic/AffRest1.png,,,,,,,,,,,,,,,,,,,,,,,,,0,0,0,0,0,12,12,79,,,,548.6658972000005,None,547.4826506999962,548.6817804999882,a,1,别扭,l,1,0.5552415999991354,0.6109685999981593,ld,女,19,2024_Apr_21_1016,mian,2021.2.3,60.14082576046686,
,,,,,,1,1,pic/flanker6.png,pic/flanker4.png,s,k,pic/AffRest1.png,,,,,,,,,,,,,,,,,,,,,,,,,0,0,0,0,0,13,13,22,,,,551.832806099992,None,550.6491182999889,551.8489873999933,s,1,前进,k,1,0.42366510001011193,0.5973820999934105,ld,女,19,2024_Apr_21_1016,mian,2021.2.3,60.14082576046686,
,,,,,,1,0,pic/flanker5.png,pic/flanker3.png,a,l,pic/AffRest1.png,,,,,,,,,,,,,,,,,,,,,,,,,0,0,0,0,0,14,14,71,,,,554.8147236999939,None,553.6303644,554.8311331000004,a,1,罚款,l,1,0.5558912999986205,0.4264614999992773,ld,女,19,2024_Apr_21_1016,mian,2021.2.3,60.14082576046686,
,,,,,,1,0,pic/flanker5.png,pic/flanker3.png,a,l,pic/AffRest1.png,,,,,,,,,,,,,,,,,,,,,,,,,0,0,0,0,0,15,15,31,,,,557.7142657999939,None,556.5306548999943,557.7318091999914,a,1,忧虑,l,1,0.5923886000091443,0.3881612000113819,ld,女,19,2024_Apr_21_1016,mian,2021.2.3,60.14082576046686,
,,,,,,0,0,pic/flanker6.png,pic/flanker2.png,a,l,pic/AffRest1.png,,,,,,,,,,,,,,,,,,,,,,,,,0,0,0,0,0,16,16,1,,,,560.6631993999908,None,559.4798778999975,560.6800611999934,a,1,排斥,l,1,0.46307519999390934,0.3841677000018535,ld,女,19,2024_Apr_21_1016,mian,2021.2.3,60.14082576046686,
,,,,,,1,0,pic/flanker6.png,pic/flanker4.png,s,l,pic/AffRest1.png,,,,,,,,,,,,,,,,,,,,,,,,,0,0,0,0,0,17,17,61,,,,563.3635068000003,None,562.180174299996,563.3806250999914,s,1,落后,l,1,0.6194625999924028,0.39887989999260753,ld,女,19,2024_Apr_21_1016,mian,2021.2.3,60.14082576046686,
,,,,,,0,1,pic/flanker5.png,pic/flanker1.png,s,k,pic/AffRest1.png,,,,,,,,,,,,,,,,,,,,,,,,,0,0,0,0,0,18,18,24,,,,566.2465236999997,None,565.0637677999912,566.2631491999928,s,1,圣洁,k,1,0.49536519999674056,0.42152610000630375,ld,女,19,2024_Apr_21_1016,mian,2021.2.3,60.14082576046686,
,,,,,,0,1,pic/flanker5.png,pic/flanker1.png,s,k,pic/AffRest1.png,,,,,,,,,,,,,,,,,,,,,,,,,0,0,0,0,0,19,19,8,,,,569.1796875,None,567.9963511999958,569.196818299999,s,1,诚恳,k,1,0.46824719999858644,0.41016169999784324,ld,女,19,2024_Apr_21_1016,mian,2021.2.3,60.14082576046686,
,,,,,,0,0,pic/flanker6.png,pic/flanker2.png,a,l,pic/AffRest1.png,,,,,,,,,,,,,,,,,,,,,,,,,0,0,0,0,0,20,20,73,,,,572.1295231999975,None,570.9458776999963,572.1465987999982,a,1,焦躁,l,1,0.6087246999959461,0.37054609999177046,ld,女,19,2024_Apr_21_1016,mian,2021.2.3,60.14082576046686,
,,,,,,1,0,pic/flanker5.png,pic/flanker3.png,a,l,pic/AffRest1.png,,,,,,,,,,,,,,,,,,,,,,,,,0,0,0,0,0,21,21,39,,,,574.9635950999946,None,573.780222699992,574.9803144999896,a,1,穷苦,l,1,0.51349109999137,0.39799840000341646,ld,女,19,2024_Apr_21_1016,mian,2021.2.3,60.14082576046686,
,,,,,,1,0,pic/flanker5.png,pic/flanker3.png,a,l,pic/AffRest1.png,,,,,,,,,,,,,,,,,,,,,,,,,0,0,0,0,0,22,22,15,,,,577.7957851999963,None,576.6117502999987,577.8121367999993,a,1,孤单,l,1,0.5325518000026932,0.4846257000026526,ld,女,19,2024_Apr_21_1016,mian,2021.2.3,60.14082576046686,
,,,,,,1,0,pic/flanker5.png,pic/flanker3.png,a,l,pic/AffRest1.png,,,,,,,,,,,,,,,,,,,,,,,,,0,0,0,0,0,23,23,7,,,,580.8477712999884,None,579.6632474999933,580.8645145999908,a,1,撒谎,l,1,0.5232654999999795,0.3936985999898752,ld,女,19,2024_Apr_21_1016,mian,2021.2.3,60.14082576046686,
,,,,,,0,1,pic/flanker5.png,pic/flanker1.png,s,k,pic/AffRest1.png,,,,,,,,,,,,,,,,,,,,,,,,,0,0,0,0,0,24,24,56,,,,583.8453466999927,None,582.6619931999885,583.8620311999985,s,1,廉洁,k,1,0.49192410000250675,0.33682989999942947,ld,女,19,2024_Apr_21_1016,mian,2021.2.3,60.14082576046686,
,,,,,,1,0,pic/flanker6.png,pic/flanker4.png,s,l,pic/AffRest1.png,,,,,,,,,,,,,,,,,,,,,,,,,0,0,0,0,0,25,25,21,,,,586.6287461999891,None,585.4456637999974,586.6454401999945,s,1,逃避,l,1,0.5192814000038197,0.5734684999915771,ld,女,19,2024_Apr_21_1016,mian,2021.2.3,60.14082576046686,
,,,,,,0,0,pic/flanker5.png,pic/flanker1.png,s,l,pic/AffRest1.png,,,,,,,,,,,,,,,,,,,,,,,,,0,0,0,0,0,26,26,27,,,,589.577409999998,None,588.3939809000003,589.5947485999932,s,1,冷笑,l,1,0.5847990000038408,0.3993519999930868,ld,女,19,2024_Apr_21_1016,mian,2021.2.3,60.14082576046686,
,,,,,,0,1,pic/flanker6.png,pic/flanker2.png,a,k,pic/AffRest1.png,,,,,,,,,,,,,,,,,,,,,,,,,0,0,0,0,0,27,27,18,,,,592.593552899998,None,591.4103665000002,592.6103015999979,a,1,畅销,k,1,0.5640148999955272,0.3891689000010956,ld,女,19,2024_Apr_21_1016,mian,2021.2.3,60.14082576046686,
,,,,,,1,0,pic/flanker5.png,pic/flanker3.png,a,l,pic/AffRest1.png,,,,,,,,,,,,,,,,,,,,,,,,,0,0,0,0,0,28,28,47,,,,595.4108277999912,None,594.2268788999936,595.4268723999994,a,1,沮丧,l,1,0.4553957000025548,0.4016988999937894,ld,女,19,2024_Apr_21_1016,mian,2021.2.3,60.14082576046686,
,,,,,,1,0,pic/flanker6.png,pic/flanker4.png,s,l,pic/AffRest1.png,,,,,,,,,,,,,,,,,,,,,,,,,0,0,0,0,0,29,29,13,,,,598.2947064999898,None,597.1102896999946,598.3099015999906,s,1,争吵,l,1,0.5124924999981886,0.41980940000212286,ld,女,19,2024_Apr_21_1016,mian,2021.2.3,60.14082576046686,
,,,,,,1,1,pic/flanker5.png,pic/flanker3.png,a,k,pic/AffRest1.png,,,,,,,,,,,,,,,,,,,,,,,,,0,0,0,0,0,30,30,28,,,,601.1271231999999,None,599.9437701999996,601.1439105999889,a,1,充裕,k,1,0.5201938999962294,0.42802819999633357,ld,女,19,2024_Apr_21_1016,mian,2021.2.3,60.14082576046686,
,,,,,,1,0,pic/flanker6.png,pic/flanker4.png,s,l,pic/AffRest1.png,,,,,,,,,,,,,,,,,,,,,,,,,0,0,0,0,0,31,31,69,,,,604.0937069999927,None,602.9100180999958,604.1103996999882,s,1,厌恶,l,1,0.4397536000033142,0.43180359998950735,ld,女,19,2024_Apr_21_1016,mian,2021.2.3,60.14082576046686,
,,,,,,0,0,pic/flanker5.png,pic/flanker1.png,s,l,pic/AffRest1.png,,,,,,,,,,,,,,,,,,,,,,,,,0,0,0,0,0,32,32,3,,,,606.8262003999989,None,605.6432671999937,606.843243899988,s,1,消沉,l,1,0.46382099999755155,0.4326864000031492,ld,女,19,2024_Apr_21_1016,mian,2021.2.3,60.14082576046686,
,,,,,,0,0,pic/flanker5.png,pic/flanker1.png,s,l,pic/AffRest1.png,,,,,,,,,,,,,,,,,,,,,,,,,0,0,0,0,0,33,33,75,,,,609.576430599991,None,608.3927968999924,609.5923673999932,s,1,心慌,l,1,0.5472296999942046,0.3515573000040604,ld,女,19,2024_Apr_21_1016,mian,2021.2.3,60.14082576046686,
,,,,,,1,0,pic/flanker6.png,pic/flanker4.png,s,l,pic/AffRest1.png,,,,,,,,,,,,,,,,,,,,,,,,,0,0,0,0,0,34,34,37,,,,612.3258588999888,None,611.1420134999935,612.3421346999967,s,1,懒惰,l,1,0.4914799999969546,0.473512299999129,ld,女,19,2024_Apr_21_1016,mian,2021.2.3,60.14082576046686,
,,,,,,0,1,pic/flanker6.png,pic/flanker2.png,a,k,pic/AffRest1.png,,,,,,,,,,,,,,,,,,,,,,,,,0,0,0,0,0,35,35,42,,,,615.258078999992,None,614.0758495999908,615.2912882999954,a,1,俊秀,k,1,0.5303187999961665,0.3916231000039261,ld,女,19,2024_Apr_21_1016,mian,2021.2.3,60.14082576046686,
,,,,,,0,1,pic/flanker5.png,pic/flanker1.png,s,k,pic/AffRest1.png,,,,,,,,,,,,,,,,,,,,,,,,,0,0,0,0,0,36,36,72,,,,618.0592773999961,None,616.8752100999991,618.0752585000009,s,1,丰满,k,1,0.4725812999968184,0.48121399999945424,ld,女,19,2024_Apr_21_1016,mian,2021.2.3,60.14082576046686,
,,,,,,1,1,pic/flanker6.png,pic/flanker4.png,s,k,pic/AffRest1.png,,,,,,,,,,,,,,,,,,,,,,,,,0,0,0,0,0,37,37,38,,,,621.0244991999934,None,619.8411505999975,621.0410916999972,s,1,有利,k,1,0.4337472999905003,0.4734996999904979,ld,女,19,2024_Apr_21_1016,mian,2021.2.3,60.14082576046686,
,,,,,,0,0,pic/flanker6.png,pic/flanker2.png,a,l,pic/AffRest1.png,,,,,,,,,,,,,,,,,,,,,,,,,0,0,0,0,0,38,38,33,,,,623.9912923999946,None,622.808289499997,624.0074552000005,a,1,鲁莽,l,1,0.49092889999155886,0.41341079999983776,ld,女,19,2024_Apr_21_1016,mian,2021.2.3,60.14082576046686,
,,,,,,1,1,pic/flanker6.png,pic/flanker4.png,s,k,pic/AffRest1.png,,,,,,,,,,,,,,,,,,,,,,,,,0,0,0,0,0,39,39,30,,,,626.9067584000004,None,625.7235483999975,626.92422239999,s,1,如愿,k,1,0.44561749999411404,0.41123449998849537,ld,女,19,2024_Apr_21_1016,mian,2021.2.3,60.14082576046686,
,,,,,,1,0,pic/flanker6.png,pic/flanker4.png,s,l,pic/AffRest1.png,,,,,,,,,,,,,,,,,,,,,,,,,0,0,0,0,0,40,40,29,,,,629.6241479000018,None,628.4403205999988,629.6404989000002,s,1,浪费,l,1,0.5202270000008866,0.38295040000230074,ld,女,19,2024_Apr_21_1016,mian,2021.2.3,60.14082576046686,
,,,,,,0,1,pic/flanker6.png,pic/flanker2.png,a,k,pic/AffRest1.png,,,,,,,,,,,,,,,,,,,,,,,,,0,0,0,0,0,41,41,2,,,,632.557074899989,None,631.3733267999924,632.5740669999941,a,1,爽朗,k,1,0.4938668999966467,0.4758347000024514,ld,女,19,2024_Apr_21_1016,mian,2021.2.3,60.14082576046686,
,,,,,,1,0,pic/flanker5.png,pic/flanker3.png,a,l,pic/AffRest1.png,,,,,,,,,,,,,,,,,,,,,,,,,0,0,0,0,0,42,42,63,,,,635.5403739999892,None,634.3569293999899,635.5571965999989,a,1,怀疑,l,1,0.4995716999983415,0.4302216999931261,ld,女,19,2024_Apr_21_1016,mian,2021.2.3,60.14082576046686,
,,,,,,0,1,pic/flanker6.png,pic/flanker2.png,a,k,pic/AffRest1.png,,,,,,,,,,,,,,,,,,,,,,,,,0,0,0,0,0,43,43,10,,,,638.5072422999947,None,637.3242021999904,638.5238057999959,a,1,顽强,k,1,0.7548986000037985,0.3652448000066215,ld,女,19,2024_Apr_21_1016,mian,2021.2.3,60.14082576046686,
,,,,,,0,0,pic/flanker5.png,pic/flanker1.png,s,l,pic/AffRest1.png,,,,,,,,,,,,,,,,,,,,,,,,,0,0,0,0,0,44,44,35,,,,641.6057020000007,None,640.4229542999965,641.623074099989,s,1,慌忙,l,1,0.46913369999674615,0.3915555999992648,ld,女,19,2024_Apr_21_1016,mian,2021.2.3,60.14082576046686,
,,,,,,0,1,pic/flanker5.png,pic/flanker1.png,s,k,pic/AffRest1.png,,,,,,,,,,,,,,,,,,,,,,,,,0,0,0,0,0,45,45,40,,,,644.388666999992,None,643.2055797999928,644.4051750999934,s,1,清秀,k,1,0.4881486000085715,0.39061560000118334,ld,女,19,2024_Apr_21_1016,mian,2021.2.3,60.14082576046686,
,,,,,,1,0,pic/flanker5.png,pic/flanker3.png,a,l,pic/AffRest1.png,,,,,,,,,,,,,,,,,,,,,,,,,0,0,0,0,0,46,46,55,,,,647.1398906999966,None,645.9550732999924,647.1550640999922,a,1,自卑,l,1,0.5527467000065371,0.3648300999921048,ld,女,19,2024_Apr_21_1016,mian,2021.2.3,60.14082576046686,
,,,,,,0,0,pic/flanker5.png,pic/flanker1.png,s,l,pic/AffRest1.png,,,,,,,,,,,,,,,,,,,,,,,,,0,0,0,0,0,47,47,67,,,,650.1381191999972,None,648.9558225999936,650.1713904999924,s,1,郁闷,l,1,0.5500714999943739,0.33832160000747535,ld,女,19,2024_Apr_21_1016,mian,2021.2.3,60.14082576046686,
,,,,,,1,0,pic/flanker5.png,pic/flanker3.png,a,l,pic/AffRest1.png,,,,,,,,,,,,,,,,,,,,,,,,,0,0,0,0,0,48,48,23,,,,652.9376677999971,None,651.754284900002,652.9545015999902,a,1,闷热,l,1,0.6572636999917449,0.3903571999981068,ld,女,19,2024_Apr_21_1016,mian,2021.2.3,60.14082576046686,
,,,,,,0,1,pic/flanker6.png,pic/flanker2.png,a,k,pic/AffRest1.png,,,,,,,,,,,,,,,,,,,,,,,,,0,0,0,0,0,49,49,58,,,,655.8886770999961,None,654.7055582999892,655.9059625999944,a,1,富丽,k,1,0.5281096999970032,0.3979012999916449,ld,女,19,2024_Apr_21_1016,mian,2021.2.3,60.14082576046686,
,,,,,,1,1,pic/flanker5.png,pic/flanker3.png,a,k,pic/AffRest1.png,,,,,,,,,,,,,,,,,,,,,,,,,0,0,0,0,0,50,50,52,,,,658.77161109999,None,657.587701299999,658.7886052999966,a,1,卓越,k,1,0.5322120999917388,0.416974100007792,ld,女,19,2024_Apr_21_1016,mian,2021.2.3,60.14082576046686,
,,,,,,0,0,pic/flanker6.png,pic/flanker2.png,a,l,pic/AffRest1.png,,,,,,,,,,,,,,,,,,,,,,,,,0,0,0,0,0,51,51,9,,,,661.6213012999942,None,660.4375790999911,661.6381168999942,a,1,丢失,l,1,0.8799102000048151,0.7239589000091655,ld,女,19,2024_Apr_21_1016,mian,2021.2.3,60.14082576046686,
,,,,,,0,0,pic/flanker6.png,pic/flanker2.png,a,l,pic/AffRest1.png,,,,,,,,,,,,,,,,,,,,,,,,,0,0,0,0,0,52,52,25,,,,665.069837499992,None,663.8865407999983,665.0864251000021,a,1,损害,l,1,0.9935663999931421,0.34028639999451116,ld,女,19,2024_Apr_21_1016,mian,2021.2.3,60.14082576046686,
,,,,,,1,1,pic/flanker5.png,pic/flanker3.png,a,k,pic/AffRest1.png,,,,,,,,,,,,,,,,,,,,,,,,,0,0,0,0,0,53,53,44,,,,668.3040131000016,None,667.1208756999986,668.3205827999918,a,1,正直,k,1,0.5070013999938965,0.3886214999947697,ld,女,19,2024_Apr_21_1016,mian,2021.2.3,60.14082576046686,
,,,,,,0,0,pic/flanker5.png,pic/flanker1.png,s,l,pic/AffRest1.png,,,,,,,,,,,,,,,,,,,,,,,,,0,0,0,0,0,54,54,43,,,,671.235792499996,None,670.052766599998,671.2528326999891,s,1,胡涂,l,1,0.5877637999947183,0.5350717999972403,ld,女,19,2024_Apr_21_1016,mian,2021.2.3,60.14082576046686,
,,,,,,0,0,pic/flanker6.png,pic/flanker2.png,a,l,pic/AffRest1.png,,,,,,,,,,,,,,,,,,,,,,,,,0,0,0,0,0,55,55,57,,,,674.3363070999912,None,673.1536283000023,674.3525933999917,a,1,黑暗,l,1,0.542493300003116,0.32028310000896454,ld,女,19,2024_Apr_21_1016,mian,2021.2.3,60.14082576046686,
,,,,,,0,0,pic/flanker5.png,pic/flanker1.png,s,l,pic/AffRest1.png,,,,,,,,,,,,,,,,,,,,,,,,,0,0,0,0,0,56,56,51,,,,677.1192480999889,None,675.9355204999883,677.1365147999895,s,1,嘲笑,l,1,0.5241353000019444,0.4082806999940658,ld,女,19,2024_Apr_21_1016,mian,2021.2.3,60.14082576046686,
,,,,,,1,0,pic/flanker6.png,pic/flanker4.png,s,l,pic/AffRest1.png,,,,,,,,,,,,,,,,,,,,,,,,,0,0,0,0,0,57,57,77,,,,680.068283200002,None,678.8851369999902,680.0855885999918,a,0,失意,l,1,0.7932097000011709,0.24273189999803435,ld,女,19,2024_Apr_21_1016,mian,2021.2.3,60.14082576046686,
,,,,,,0,1,pic/flanker6.png,pic/flanker2.png,a,k,pic/AffRest1.png,,,,,,,,,,,,,,,,,,,,,,,,,0,0,0,0,0,58,58,26,,,,683.1190666999901,None,681.9348076999886,683.1347644999914,a,1,典雅,k,1,0.5354810999997426,0.3478739999991376,ld,女,19,2024_Apr_21_1016,mian,2021.2.3,60.14082576046686,
,,,,,,1,1,pic/flanker5.png,pic/flanker3.png,a,k,pic/AffRest1.png,,,,,,,,,,,,,,,,,,,,,,,,,0,0,0,0,0,59,59,76,,,,685.9535073000006,None,684.7697447999963,685.9693598000013,a,1,留恋,k,1,0.6631091000017477,0.655759000001126,ld,女,19,2024_Apr_21_1016,mian,2021.2.3,60.14082576046686,
,,,,,,1,1,pic/flanker6.png,pic/flanker4.png,s,k,pic/AffRest1.png,,,,,,,,,,,,,,,,,,,,,,,,,0,0,0,0,0,60,60,62,,,,689.1345948999951,None,687.9522838999983,689.1682692999893,s,1,赞成,k,1,0.6025477000075625,0.5989608999952907,ld,女,19,2024_Apr_21_1016,mian,2021.2.3,60.14082576046686,
,,,,,,0,0,pic/flanker6.png,pic/flanker2.png,a,l,pic/AffRest1.png,,,,,,,,,,,,,,,,,,,,,,,,,0,0,0,0,0,61,61,65,,,,692.3172789999953,None,691.1337989000021,692.333933899994,a,1,处罚,l,1,0.5702050000109011,0.4260168999899179,ld,女,19,2024_Apr_21_1016,mian,2021.2.3,60.14082576046686,
,,,,,,1,0,pic/flanker6.png,pic/flanker4.png,s,l,pic/AffRest1.png,,,,,,,,,,,,,,,,,,,,,,,,,0,0,0,0,0,62,62,5,,,,695.3686054999998,None,694.1866440000013,695.4025477999967,s,1,禁止,l,1,0.49890530000266153,0.4035862000018824,ld,女,19,2024_Apr_21_1016,mian,2021.2.3,60.14082576046686,
,,,,,,0,0,pic/flanker6.png,pic/flanker2.png,a,l,pic/AffRest1.png,,,,,,,,,,,,,,,,,,,,,,,,,0,0,0,0,0,63,63,17,,,,698.3346434999985,None,697.1501961999893,698.3502622999949,a,1,轻率,l,1,0.5461988000024576,0.30300379999971483,ld,女,19,2024_Apr_21_1016,mian,2021.2.3,60.14082576046686,
,,,,,,1,1,pic/flanker5.png,pic/flanker3.png,a,k,pic/AffRest1.png,,,,,,,,,,,,,,,,,,,,,,,,,0,0,0,0,0,64,64,12,,,,701.200582999998,None,700.0179408999975,701.2177175999968,a,1,秀丽,k,1,1.0534943000093335,0.9589879000122892,ld,女,19,2024_Apr_21_1016,mian,2021.2.3,60.14082576046686,
,,,,,,0,0,pic/flanker5.png,pic/flanker1.png,s,l,pic/AffRest1.png,,,,,,,,,,,,,,,,,,,,,,,,,0,0,0,0,0,65,65,11,,,,705.2673815000016,None,704.0842356999929,705.2835242000001,s,1,伤心,l,1,0.46442519999982323,0.419915199992829,ld,女,19,2024_Apr_21_1016,mian,2021.2.3,60.14082576046686,
,,,,,,1,1,pic/flanker6.png,pic/flanker4.png,s,k,pic/AffRest1.png,,,,,,,,,,,,,,,,,,,,,,,,,0,0,0,0,0,66,66,78,,,,708.1659744999924,None,706.9830604000017,708.1837659000012,s,1,生动,k,1,0.9614360999985365,0.46625769999809563,ld,女,19,2024_Apr_21_1016,mian,2021.2.3,60.14082576046686,
,,,,,,0,1,pic/flanker6.png,pic/flanker2.png,a,k,pic/AffRest1.png,,,,,,,,,,,,,,,,,,,,,,,,,0,0,0,0,0,67,67,66,,,,711.4661577999941,None,710.2826577999949,711.4831852999923,a,1,舒畅,k,1,0.508161999998265,0.4212275000027148,ld,女,19,2024_Apr_21_1016,mian,2021.2.3,60.14082576046686,
,,,,,,0,1,pic/flanker5.png,pic/flanker1.png,s,k,pic/AffRest1.png,,,,,,,,,,,,,,,,,,,,,,,,,0,0,0,0,0,68,68,0,,,,714.315909500001,None,713.1330911999976,714.3329297000018,s,1,精致,k,1,0.45019829999364447,0.3929811999987578,ld,女,19,2024_Apr_21_1016,mian,2021.2.3,60.14082576046686,
,,,,,,0,1,pic/flanker5.png,pic/flanker1.png,s,k,pic/AffRest1.png,,,,,,,,,,,,,,,,,,,,,,,,,0,0,0,0,0,69,69,16,,,,717.0152353000012,None,715.8315831999935,717.0313635999919,s,1,奉献,k,1,0.48800839998875745,0.3740203999914229,ld,女,19,2024_Apr_21_1016,mian,2021.2.3,60.14082576046686,
,,,,,,1,1,pic/flanker6.png,pic/flanker4.png,s,k,pic/AffRest1.png,,,,,,,,,,,,,,,,,,,,,,,,,0,0,0,0,0,70,70,54,,,,719.8989945999929,None,718.7151776999963,719.9150815999892,s,1,旺盛,k,1,0.43991600000299513,0.46441909999703057,ld,女,19,2024_Apr_21_1016,mian,2021.2.3,60.14082576046686,
,,,,,,0,1,pic/flanker6.png,pic/flanker2.png,a,k,pic/AffRest1.png,,,,,,,,,,,,,,,,,,,,,,,,,0,0,0,0,0,71,71,50,,,,722.8002980999881,None,721.6159518999921,722.8162947999954,a,1,吉祥,k,1,0.47223420000227634,0.32421989999420475,ld,女,19,2024_Apr_21_1016,mian,2021.2.3,60.14082576046686,
,,,,,,0,1,pic/flanker5.png,pic/flanker1.png,s,k,pic/AffRest1.png,,,,,,,,,,,,,,,,,,,,,,,,,0,0,0,0,0,72,72,32,,,,725.6306733999954,None,724.4473463999893,725.6474066999945,s,1,羡慕,k,1,0.4636208000010811,0.3880289999942761,ld,女,19,2024_Apr_21_1016,mian,2021.2.3,60.14082576046686,
,,,,,,0,1,pic/flanker6.png,pic/flanker2.png,a,k,pic/AffRest1.png,,,,,,,,,,,,,,,,,,,,,,,,,0,0,0,0,0,73,73,34,,,,728.5472748999891,None,727.3641857999901,728.5653355999966,a,1,永恒,k,1,0.47230800001125317,0.35698969999793917,ld,女,19,2024_Apr_21_1016,mian,2021.2.3,60.14082576046686,
,,,,,,1,1,pic/flanker6.png,pic/flanker4.png,s,k,pic/AffRest1.png,,,,,,,,,,,,,,,,,,,,,,,,,0,0,0,0,0,74,74,14,,,,731.3332372000004,None,730.1487641999993,731.3488718000008,s,1,雄厚,k,1,0.3701366000022972,0.4491303999966476,ld,女,19,2024_Apr_21_1016,mian,2021.2.3,60.14082576046686,
,,,,,,1,1,pic/flanker5.png,pic/flanker3.png,a,k,pic/AffRest1.png,,,,,,,,,,,,,,,,,,,,,,,,,0,0,0,0,0,75,75,20,,,,734.2468743999925,None,733.0632562999963,734.2629722999991,a,1,享受,k,1,0.5310501000058139,0.44655510000302456,ld,女,19,2024_Apr_21_1016,mian,2021.2.3,60.14082576046686,
,,,,,,1,0,pic/flanker6.png,pic/flanker4.png,s,l,pic/AffRest1.png,,,,,,,,,,,,,,,,,,,,,,,,,0,0,0,0,0,76,76,45,,,,737.2300880999974,None,736.0468919999985,737.2476129999995,s,1,悲观,k,0,0.35470470000291243,0.4293745000031777,ld,女,19,2024_Apr_21_1016,mian,2021.2.3,60.14082576046686,
,,,,,,1,1,pic/flanker5.png,pic/flanker3.png,a,k,pic/AffRest1.png,,,,,,,,,,,,,,,,,,,,,,,,,0,0,0,0,0,77,77,4,,,,740.0802279999916,None,738.8961207999964,740.0973967999889,a,1,瑰丽,k,1,0.5766308000020217,0.39745269999548327,ld,女,19,2024_Apr_21_1016,mian,2021.2.3,60.14082576046686,
,,,,,,1,1,pic/flanker6.png,pic/flanker4.png,s,k,pic/AffRest1.png,,,,,,,,,,,,,,,,,,,,,,,,,0,0,0,0,0,78,78,70,,,,742.9955821999902,None,741.8126486999972,743.0121534999926,s,1,敬佩,k,1,0.5415483999968274,0.4405275999888545,ld,女,19,2024_Apr_21_1016,mian,2021.2.3,60.14082576046686,
,,,,,,0,0,pic/flanker6.png,pic/flanker2.png,a,l,pic/AffRest1.png,,,,,,,,,,,,,,,,,,,,,,,,,0,0,0,0,0,79,79,41,,,,745.8962944999948,None,744.7122421999957,745.913315999991,a,1,烦恼,l,1,0.5177770000009332,0.39844939998874906,ld,女,19,2024_Apr_21_1016,mian,2021.2.3,60.14082576046686,
,,,,,,,,,,,,pic/AffRest1.png,,,,,,,,,,,,,,,,,,,,,,,,,0,0,0,0,,,,,,,,,,,,,,,,,,,ld,女,19,2024_Apr_21_1016,mian,2021.2.3,60.14082576046686,
,,,,,,1,0,pic/flanker6.png,pic/flanker4.png,s,l,pic/AffRest2.png,,,,,,,,,,,,,,,,,,,,,,,,,0,1,1,1,0,0,0,77,,,,760.7950048999919,None,759.6114283999923,760.8116575000022,s,1,闷热,l,1,0.5705814000102691,0.5484182000072906,ld,女,19,2024_Apr_21_1016,mian,2021.2.3,60.14082576046686,
,,,,,,0,0,pic/flanker6.png,pic/flanker2.png,a,l,pic/AffRest2.png,,,,,,,,,,,,,,,,,,,,,,,,,0,1,1,1,0,1,1,41,,,,763.8283584000019,None,762.6437760999979,763.8450818999991,a,1,消沉,l,1,0.4263059000077192,0.3339428999897791,ld,女,19,2024_Apr_21_1016,mian,2021.2.3,60.14082576046686,
,,,,,,1,1,pic/flanker6.png,pic/flanker4.png,s,k,pic/AffRest2.png,,,,,,,,,,,,,,,,,,,,,,,,,0,1,1,1,0,2,2,22,,,,766.6609626999998,None,765.4769879999949,766.6779281999916,s,1,生动,k,1,0.43356520000088494,0.417262999995728,ld,女,19,2024_Apr_21_1016,mian,2021.2.3,60.14082576046686,
,,,,,,0,1,pic/flanker5.png,pic/flanker1.png,s,k,pic/AffRest2.png,,,,,,,,,,,,,,,,,,,,,,,,,0,1,1,1,0,3,3,16,,,,769.5600458999979,None,768.3767691999965,769.5771246999939,s,1,享受,k,1,0.3789688999968348,0.4058236999990186,ld,女,19,2024_Apr_21_1016,mian,2021.2.3,60.14082576046686,
,,,,,,1,0,pic/flanker6.png,pic/flanker4.png,s,l,pic/AffRest2.png,,,,,,,,,,,,,,,,,,,,,,,,,0,1,1,1,0,4,4,69,,,,772.2269015999918,None,771.0428419999953,772.2436283999996,s,1,伤心,l,1,0.7090505000087433,0.43749080000270624,ld,女,19,2024_Apr_21_1016,mian,2021.2.3,60.14082576046686,
,,,,,,0,0,pic/flanker5.png,pic/flanker1.png,s,l,pic/AffRest2.png,,,,,,,,,,,,,,,,,,,,,,,,,0,1,1,1,0,5,5,27,,,,775.3444600999937,None,774.161191799998,775.3613078999915,s,1,孤单,l,1,0.5983790999889607,0.7854907000000821,ld,女,19,2024_Apr_21_1016,mian,2021.2.3,60.14082576046686,
,,,,,,1,1,pic/flanker5.png,pic/flanker3.png,a,k,pic/AffRest2.png,,,,,,,,,,,,,,,,,,,,,,,,,0,1,1,1,0,6,6,20,,,,778.575569099994,None,777.3925938999892,778.5925386000017,a,1,优雅,k,1,0.4095398000063142,0.42053080000914633,ld,女,19,2024_Apr_21_1016,mian,2021.2.3,60.14082576046686,
,,,,,,0,0,pic/flanker6.png,pic/flanker2.png,a,l,pic/AffRest2.png,,,,,,,,,,,,,,,,,,,,,,,,,0,1,1,1,0,7,7,57,,,,781.3441516000021,None,780.1602877999976,781.3601324999909,a,1,厌恶,l,1,0.4315496999915922,0.3555664000014076,ld,女,19,2024_Apr_21_1016,mian,2021.2.3,60.14082576046686,
,,,,,,0,0,pic/flanker5.png,pic/flanker1.png,s,l,pic/AffRest2.png,,,,,,,,,,,,,,,,,,,,,,,,,0,1,1,1,0,8,8,11,,,,784.1277709999995,None,782.9433214999881,784.1443911999959,s,1,争吵,l,1,0.587022399995476,0.34071820000826847,ld,女,19,2024_Apr_21_1016,mian,2021.2.3,60.14082576046686,
,,,,,,0,1,pic/flanker6.png,pic/flanker2.png,a,k,pic/AffRest2.png,,,,,,,,,,,,,,,,,,,,,,,,,0,1,1,1,0,9,9,42,,,,787.1253757999948,None,785.9604299999919,787.1751835999894,a,1,畅销,k,1,0.3923293999978341,0.34481950000918005,ld,女,19,2024_Apr_21_1016,mian,2021.2.3,60.14082576046686,
,,,,,,1,0,pic/flanker5.png,pic/flanker3.png,a,l,pic/AffRest2.png,,,,,,,,,,,,,,,,,,,,,,,,,0,1,1,1,0,10,10,23,,,,789.9094075999892,None,788.726124599998,789.9259279999969,a,1,损害,l,1,0.3644347000081325,0.40666500000224914,ld,女,19,2024_Apr_21_1016,mian,2021.2.3,60.14082576046686,
,,,,,,0,0,pic/flanker6.png,pic/flanker2.png,a,l,pic/AffRest2.png,,,,,,,,,,,,,,,,,,,,,,,,,0,1,1,1,0,11,11,65,,,,792.6767408000014,None,791.4925330999977,792.6928474000015,a,1,禁止,l,1,0.38601779998862185,0.3754281000001356,ld,女,19,2024_Apr_21_1016,mian,2021.2.3,60.14082576046686,
,,,,,,0,0,pic/flanker6.png,pic/flanker2.png,a,l,pic/AffRest2.png,,,,,,,,,,,,,,,,,,,,,,,,,0,1,1,1,0,12,12,49,,,,795.4756080999941,None,794.2921640999994,795.4932911999931,a,1,罚款,l,1,0.4810866000043461,0.34424120000039693,ld,女,19,2024_Apr_21_1016,mian,2021.2.3,60.14082576046686,
,,,,,,0,1,pic/flanker6.png,pic/flanker2.png,a,k,pic/AffRest2.png,,,,,,,,,,,,,,,,,,,,,,,,,0,1,1,1,0,13,13,66,,,,798.2925269999978,None,797.1086638999986,798.3087247999938,a,1,振作,k,1,0.7571004000055837,0.344609899999341,ld,女,19,2024_Apr_21_1016,mian,2021.2.3,60.14082576046686,
,,,,,,1,0,pic/flanker6.png,pic/flanker4.png,s,l,pic/AffRest2.png,,,,,,,,,,,,,,,,,,,,,,,,,0,1,1,1,0,14,14,21,,,,801.3921720999933,None,800.2090751999931,801.4095314000006,s,1,落后,k,0,0.4342713999940315,0.4049070000037318,ld,女,19,2024_Apr_21_1016,mian,2021.2.3,60.14082576046686,
,,,,,,1,0,pic/flanker5.png,pic/flanker3.png,a,l,pic/AffRest2.png,,,,,,,,,,,,,,,,,,,,,,,,,0,1,1,1,0,15,15,79,,,,804.2588645999931,None,803.0751441999892,804.2749230999907,a,1,懒惰,l,1,0.5054169999930309,0.3809428999957163,ld,女,19,2024_Apr_21_1016,mian,2021.2.3,60.14082576046686,
,,,,,,1,1,pic/flanker6.png,pic/flanker4.png,s,k,pic/AffRest2.png,,,,,,,,,,,,,,,,,,,,,,,,,0,1,1,1,0,16,16,62,,,,806.9914993999992,None,805.8081273999996,807.0077591000008,s,1,敬佩,k,1,0.6345711999892956,0.5590883999975631,ld,女,19,2024_Apr_21_1016,mian,2021.2.3,60.14082576046686,
,,,,,,0,0,pic/flanker5.png,pic/flanker1.png,s,l,pic/AffRest2.png,,,,,,,,,,,,,,,,,,,,,,,,,0,1,1,1,0,17,17,19,,,,810.1740004999883,None,808.9912111000012,810.1920271999988,s,1,烦恼,l,1,0.6568192999984603,0.5153664000099525,ld,女,19,2024_Apr_21_1016,mian,2021.2.3,60.14082576046686,
,,,,,,1,1,pic/flanker5.png,pic/flanker3.png,a,k,pic/AffRest2.png,,,,,,,,,,,,,,,,,,,,,,,,,0,1,1,1,0,18,18,44,,,,813.3578867999895,None,812.1746257999912,813.3741066999937,a,1,舒畅,k,1,0.45131380000384524,0.3884554999967804,ld,女,19,2024_Apr_21_1016,mian,2021.2.3,60.14082576046686,
,,,,,,1,0,pic/flanker6.png,pic/flanker4.png,s,l,pic/AffRest2.png,,,,,,,,,,,,,,,,,,,,,,,,,0,1,1,1,0,19,19,45,,,,816.2415967999987,None,815.0570298999955,816.257114699998,s,1,堵塞,l,1,0.8095852999977069,0.5422974999964936,ld,女,19,2024_Apr_21_1016,mian,2021.2.3,60.14082576046686,
,,,,,,1,0,pic/flanker5.png,pic/flanker3.png,a,l,pic/AffRest2.png,,,,,,,,,,,,,,,,,,,,,,,,,0,1,1,1,0,20,20,15,,,,819.4580905999901,None,818.2733389999921,819.4747831999994,a,1,冷笑,l,1,0.4719016000017291,0.36493870000413153,ld,女,19,2024_Apr_21_1016,mian,2021.2.3,60.14082576046686,
,,,,,,0,0,pic/flanker6.png,pic/flanker2.png,a,l,pic/AffRest2.png,,,,,,,,,,,,,,,,,,,,,,,,,0,1,1,1,0,21,21,17,,,,822.3064136999892,None,821.12332839999,822.323722199988,a,1,缺乏,l,1,0.40430700000433717,0.3524524999957066,ld,女,19,2024_Apr_21_1016,mian,2021.2.3,60.14082576046686,
,,,,,,0,1,pic/flanker6.png,pic/flanker2.png,a,k,pic/AffRest2.png,,,,,,,,,,,,,,,,,,,,,,,,,0,1,1,1,0,22,22,18,,,,824.9213066999946,None,823.7228803999897,824.9376204,a,1,廉洁,k,1,0.5997778000019025,0.35111509999842383,ld,女,19,2024_Apr_21_1016,mian,2021.2.3,60.14082576046686,
,,,,,,0,0,pic/flanker5.png,pic/flanker1.png,s,l,pic/AffRest2.png,,,,,,,,,,,,,,,,,,,,,,,,,0,1,1,1,0,23,23,67,,,,827.822447899991,None,826.6393994999962,827.8395156999904,s,1,穷苦,l,1,0.4190838999929838,0.38366690000111703,ld,女,19,2024_Apr_21_1016,mian,2021.2.3,60.14082576046686,
,,,,,,0,1,pic/flanker5.png,pic/flanker1.png,s,k,pic/AffRest2.png,,,,,,,,,,,,,,,,,,,,,,,,,0,1,1,1,0,24,24,64,,,,830.5225207999902,None,829.3392540999921,830.5397733999998,s,1,爽朗,k,1,0.4784198999986984,0.6156227999890689,ld,女,19,2024_Apr_21_1016,mian,2021.2.3,60.14082576046686,
,,,,,,0,1,pic/flanker5.png,pic/flanker1.png,s,k,pic/AffRest2.png,,,,,,,,,,,,,,,,,,,,,,,,,0,1,1,1,0,25,25,32,,,,833.4717187999922,None,832.2889588999969,833.4894442999939,s,1,热切,k,1,0.4195773000101326,0.38706540000566747,ld,女,19,2024_Apr_21_1016,mian,2021.2.3,60.14082576046686,
,,,,,,1,0,pic/flanker5.png,pic/flanker3.png,a,l,pic/AffRest2.png,,,,,,,,,,,,,,,,,,,,,,,,,0,1,1,1,0,26,26,31,,,,836.3381437999924,None,835.1550309000013,836.3549075999908,a,1,沮丧,l,1,0.5654789999971399,0.4254180999996606,ld,女,19,2024_Apr_21_1016,mian,2021.2.3,60.14082576046686,
,,,,,,1,1,pic/flanker6.png,pic/flanker4.png,s,k,pic/AffRest2.png,,,,,,,,,,,,,,,,,,,,,,,,,0,1,1,1,0,27,27,6,,,,839.2213201999984,None,838.0378984999988,839.2391232999944,s,1,留恋,k,1,0.6329911000066204,0.5343296000064583,ld,女,19,2024_Apr_21_1016,mian,2021.2.3,60.14082576046686,
,,,,,,0,0,pic/flanker5.png,pic/flanker1.png,s,l,pic/AffRest2.png,,,,,,,,,,,,,,,,,,,,,,,,,0,1,1,1,0,28,28,35,,,,842.2216179999959,None,841.037902600001,842.2388541999971,s,1,鲁莽,l,1,0.4556615000037709,0.5021686000109185,ld,女,19,2024_Apr_21_1016,mian,2021.2.3,60.14082576046686,
,,,,,,1,0,pic/flanker6.png,pic/flanker4.png,s,l,pic/AffRest2.png,,,,,,,,,,,,,,,,,,,,,,,,,0,1,1,1,0,29,29,61,,,,845.1879692999937,None,844.0044223000004,845.2038917999889,s,1,丢失,l,1,0.49421640000946354,0.5414428999938536,ld,女,19,2024_Apr_21_1016,mian,2021.2.3,60.14082576046686,
,,,,,,0,1,pic/flanker5.png,pic/flanker1.png,s,k,pic/AffRest2.png,,,,,,,,,,,,,,,,,,,,,,,,,0,1,1,1,0,30,30,0,,,,848.2217496999947,None,847.0379156999988,848.2383011999918,s,1,旺盛,k,1,0.5296522999997251,0.4614487999933772,ld,女,19,2024_Apr_21_1016,mian,2021.2.3,60.14082576046686,
,,,,,,1,0,pic/flanker5.png,pic/flanker3.png,a,l,pic/AffRest2.png,,,,,,,,,,,,,,,,,,,,,,,,,0,1,1,1,0,31,31,47,,,,851.2202633999987,None,850.0385236000002,851.2545167999924,a,1,处罚,l,1,0.44991640000080224,0.41715980001026765,ld,女,19,2024_Apr_21_1016,mian,2021.2.3,60.14082576046686,
,,,,,,0,1,pic/flanker6.png,pic/flanker2.png,a,k,pic/AffRest2.png,,,,,,,,,,,,,,,,,,,,,,,,,0,1,1,1,0,32,32,74,,,,853.9367619999975,None,852.7532077999931,853.9543357999937,a,1,前进,k,1,0.46140669999294914,0.3343773000087822,ld,女,19,2024_Apr_21_1016,mian,2021.2.3,60.14082576046686,
,,,,,,0,1,pic/flanker6.png,pic/flanker2.png,a,k,pic/AffRest2.png,,,,,,,,,,,,,,,,,,,,,,,,,0,1,1,1,0,33,33,50,,,,856.7366921999928,None,855.5535848,856.7540728999884,a,1,奉献,k,1,0.5241296000021975,0.41912069999671075,ld,女,19,2024_Apr_21_1016,mian,2021.2.3,60.14082576046686,
,,,,,,1,0,pic/flanker6.png,pic/flanker4.png,s,l,pic/AffRest2.png,,,,,,,,,,,,,,,,,,,,,,,,,0,1,1,1,0,34,34,13,,,,859.6698187000002,None,858.4863937999908,859.6873959999939,s,1,心慌,l,1,0.503754299992579,0.4187720000045374,ld,女,19,2024_Apr_21_1016,mian,2021.2.3,60.14082576046686,
,,,,,,1,1,pic/flanker5.png,pic/flanker3.png,a,k,pic/AffRest2.png,,,,,,,,,,,,,,,,,,,,,,,,,0,1,1,1,0,35,35,76,,,,862.6039067999955,None,861.4196118999971,862.6201985999942,a,1,永恒,k,1,0.5133092000032775,0.4055212999955984,ld,女,19,2024_Apr_21_1016,mian,2021.2.3,60.14082576046686,
,,,,,,0,0,pic/flanker5.png,pic/flanker1.png,s,l,pic/AffRest2.png,,,,,,,,,,,,,,,,,,,,,,,,,0,1,1,1,0,36,36,59,,,,865.5191792999976,None,864.3355541999917,865.5363223000022,s,1,杂乱,l,1,0.4820233999926131,0.41538170000421815,ld,女,19,2024_Apr_21_1016,mian,2021.2.3,60.14082576046686,
,,,,,,0,0,pic/flanker6.png,pic/flanker2.png,a,l,pic/AffRest2.png,,,,,,,,,,,,,,,,,,,,,,,,,0,1,1,1,0,37,37,73,,,,868.4023478000017,None,867.2183250999951,868.4188147999957,a,1,忧虑,l,1,0.4807552999991458,0.3651937000104226,ld,女,19,2024_Apr_21_1016,mian,2021.2.3,60.14082576046686,
,,,,,,0,0,pic/flanker6.png,pic/flanker2.png,a,l,pic/AffRest2.png,,,,,,,,,,,,,,,,,,,,,,,,,0,1,1,1,0,38,38,9,,,,871.2513166999997,None,870.0680634000018,871.2687395999965,a,1,胡涂,l,1,0.4979003000044031,0.3740999000001466,ld,女,19,2024_Apr_21_1016,mian,2021.2.3,60.14082576046686,
,,,,,,1,1,pic/flanker6.png,pic/flanker4.png,s,k,pic/AffRest2.png,,,,,,,,,,,,,,,,,,,,,,,,,0,1,1,1,0,39,39,14,,,,874.1691090999957,None,872.9847379999992,874.1851251999906,s,1,富丽,k,1,0.6282334999996237,0.4295584999927087,ld,女,19,2024_Apr_21_1016,mian,2021.2.3,60.14082576046686,
,,,,,,0,0,pic/flanker5.png,pic/flanker1.png,s,l,pic/AffRest2.png,,,,,,,,,,,,,,,,,,,,,,,,,0,1,1,1,0,40,40,43,,,,877.1176761999959,None,875.9343414999894,877.1348576999881,s,1,怀疑,l,1,1.4005742000008468,0.3750971999979811,ld,女,19,2024_Apr_21_1016,mian,2021.2.3,60.14082576046686,
,,,,,,0,1,pic/flanker6.png,pic/flanker2.png,a,k,pic/AffRest2.png,,,,,,,,,,,,,,,,,,,,,,,,,0,1,1,1,0,41,41,2,,,,880.8844185999915,None,879.701301699999,880.9017395999981,a,1,有利,k,1,0.6628711000084877,0.3805508999939775,ld,女,19,2024_Apr_21_1016,mian,2021.2.3,60.14082576046686,
,,,,,,1,1,pic/flanker6.png,pic/flanker4.png,s,k,pic/AffRest2.png,,,,,,,,,,,,,,,,,,,,,,,,,0,1,1,1,0,42,42,38,,,,883.8839167999977,None,882.7007631000015,883.9018104999996,s,1,豪放,k,1,0.5916530000104103,0.38130740000633523,ld,女,19,2024_Apr_21_1016,mian,2021.2.3,60.14082576046686,
,,,,,,1,1,pic/flanker5.png,pic/flanker3.png,a,k,pic/AffRest2.png,,,,,,,,,,,,,,,,,,,,,,,,,0,1,1,1,0,43,43,52,,,,886.7152760999888,None,885.5321376999927,886.7319375999941,a,1,公平,k,1,0.47228619999077637,0.42276880001008976,ld,女,19,2024_Apr_21_1016,mian,2021.2.3,60.14082576046686,
,,,,,,1,1,pic/flanker6.png,pic/flanker4.png,s,k,pic/AffRest2.png,,,,,,,,,,,,,,,,,,,,,,,,,0,1,1,1,0,44,44,30,,,,889.4667442999926,None,888.2836435999925,889.4829884999926,s,1,诚恳,k,1,0.5169885999930557,0.4114133000111906,ld,女,19,2024_Apr_21_1016,mian,2021.2.3,60.14082576046686,
,,,,,,1,0,pic/flanker5.png,pic/flanker3.png,a,l,pic/AffRest2.png,,,,,,,,,,,,,,,,,,,,,,,,,0,1,1,1,0,45,45,7,,,,892.2331387000013,None,891.0498575999954,892.2501252999937,a,1,自卑,l,1,0.5463878000009572,0.42560889999731444,ld,女,19,2024_Apr_21_1016,mian,2021.2.3,60.14082576046686,
,,,,,,0,1,pic/flanker5.png,pic/flanker1.png,s,k,pic/AffRest2.png,,,,,,,,,,,,,,,,,,,,,,,,,0,1,1,1,0,46,46,48,,,,895.0504161999997,None,893.8663841999951,895.0663099999947,s,1,秀丽,k,1,0.442523000005167,0.43182579999847803,ld,女,19,2024_Apr_21_1016,mian,2021.2.3,60.14082576046686,
,,,,,,1,1,pic/flanker6.png,pic/flanker4.png,s,k,pic/AffRest2.png,,,,,,,,,,,,,,,,,,,,,,,,,0,1,1,1,0,47,47,46,,,,897.83226499999,None,896.6489768999891,897.8488952999905,s,1,卓越,k,1,0.6867648000043118,0.5119429000042146,ld,女,19,2024_Apr_21_1016,mian,2021.2.3,60.14082576046686,
,,,,,,1,0,pic/flanker6.png,pic/flanker4.png,s,l,pic/AffRest2.png,,,,,,,,,,,,,,,,,,,,,,,,,0,1,1,1,0,48,48,53,,,,901.0319269999891,None,899.849377999999,901.0501495999924,s,1,轻率,k,0,0.4730139000021154,0.4337204000039492,ld,女,19,2024_Apr_21_1016,mian,2021.2.3,60.14082576046686,
,,,,,,0,1,pic/flanker6.png,pic/flanker2.png,a,k,pic/AffRest2.png,,,,,,,,,,,,,,,,,,,,,,,,,0,1,1,1,0,49,49,26,,,,903.8984242000006,None,902.7150255000015,903.9150338999898,a,1,圣洁,k,1,0.550034300002153,0.36356280000472907,ld,女,19,2024_Apr_21_1016,mian,2021.2.3,60.14082576046686,
,,,,,,0,1,pic/flanker5.png,pic/flanker1.png,s,k,pic/AffRest2.png,,,,,,,,,,,,,,,,,,,,,,,,,0,1,1,1,0,50,50,40,,,,906.698501699997,None,905.5155348999979,906.7156927999895,s,1,珍藏,k,1,0.5189088999904925,0.4036173000058625,ld,女,19,2024_Apr_21_1016,mian,2021.2.3,60.14082576046686,
,,,,,,1,0,pic/flanker5.png,pic/flanker3.png,a,l,pic/AffRest2.png,,,,,,,,,,,,,,,,,,,,,,,,,0,1,1,1,0,51,51,55,,,,909.5149218000006,None,908.3316990999883,909.531565199999,a,1,撒谎,l,1,0.45553469999867957,0.3856969000044046,ld,女,19,2024_Apr_21_1016,mian,2021.2.3,60.14082576046686,
,,,,,,1,0,pic/flanker5.png,pic/flanker3.png,a,l,pic/AffRest2.png,,,,,,,,,,,,,,,,,,,,,,,,,0,1,1,1,0,52,52,39,,,,912.4143408999953,None,911.230865599995,912.4309312999976,a,1,郁闷,l,1,0.5305565999879036,0.42500879999715835,ld,女,19,2024_Apr_21_1016,mian,2021.2.3,60.14082576046686,
,,,,,,0,1,pic/flanker5.png,pic/flanker1.png,s,k,pic/AffRest2.png,,,,,,,,,,,,,,,,,,,,,,,,,0,1,1,1,0,53,53,24,,,,915.3138411999971,None,914.1316170999926,915.3472160999954,s,1,清秀,k,1,0.487472799999523,0.378325900004711,ld,女,19,2024_Apr_21_1016,mian,2021.2.3,60.14082576046686,
,,,,,,1,0,pic/flanker6.png,pic/flanker4.png,s,l,pic/AffRest2.png,,,,,,,,,,,,,,,,,,,,,,,,,0,1,1,1,0,54,54,5,,,,918.1308805000008,None,916.9469601000019,918.147690400001,s,1,黑暗,l,1,0.6909234000049764,0.48496880001039244,ld,女,19,2024_Apr_21_1016,mian,2021.2.3,60.14082576046686,
,,,,,,1,1,pic/flanker5.png,pic/flanker3.png,a,k,pic/AffRest2.png,,,,,,,,,,,,,,,,,,,,,,,,,0,1,1,1,0,55,55,4,,,,921.3807835999905,None,920.1970097000012,921.3972639999993,a,1,充裕,k,1,0.6126718999876175,0.8307855000020936,ld,女,19,2024_Apr_21_1016,mian,2021.2.3,60.14082576046686,
,,,,,,1,1,pic/flanker5.png,pic/flanker3.png,a,k,pic/AffRest2.png,,,,,,,,,,,,,,,,,,,,,,,,,0,1,1,1,0,56,56,12,,,,924.7132894999959,None,923.5301142999961,924.7309153999959,a,1,雄厚,l,0,0.6169294999999693,0.5646882000000915,ld,女,19,2024_Apr_21_1016,mian,2021.2.3,60.14082576046686,
,,,,,,0,1,pic/flanker5.png,pic/flanker1.png,s,k,pic/AffRest2.png,,,,,,,,,,,,,,,,,,,,,,,,,0,1,1,1,0,57,57,8,,,,927.7306709999975,None,926.5472479000018,927.7474082999979,s,1,俊秀,k,1,0.5126461999898311,0.4307612999982666,ld,女,19,2024_Apr_21_1016,mian,2021.2.3,60.14082576046686,
,,,,,,0,1,pic/flanker6.png,pic/flanker2.png,a,k,pic/AffRest2.png,,,,,,,,,,,,,,,,,,,,,,,,,0,1,1,1,0,58,58,58,,,,930.5801422999939,None,929.3962789999932,930.596292199989,a,1,羡慕,k,1,0.47629639999649953,0.37624009999854024,ld,女,19,2024_Apr_21_1016,mian,2021.2.3,60.14082576046686,
,,,,,,0,0,pic/flanker5.png,pic/flanker1.png,s,l,pic/AffRest2.png,,,,,,,,,,,,,,,,,,,,,,,,,0,1,1,1,0,59,59,3,,,,933.4956152999948,None,932.3123560999957,933.5120282999997,s,1,排斥,l,1,0.4724575000000186,0.42313900000590365,ld,女,19,2024_Apr_21_1016,mian,2021.2.3,60.14082576046686,
,,,,,,1,1,pic/flanker5.png,pic/flanker3.png,a,k,pic/AffRest2.png,,,,,,,,,,,,,,,,,,,,,,,,,0,1,1,1,0,60,60,36,,,,936.2951062999928,None,935.1118736999924,936.3130494999932,a,1,丰满,k,1,0.4060828999936348,0.368603399998392,ld,女,19,2024_Apr_21_1016,mian,2021.2.3,60.14082576046686,
,,,,,,0,0,pic/flanker6.png,pic/flanker2.png,a,l,pic/AffRest2.png,,,,,,,,,,,,,,,,,,,,,,,,,0,1,1,1,0,61,61,1,,,,938.9790550999896,None,937.7958445999975,938.9951226999983,a,1,浪费,l,1,0.47487189999083057,0.37268329999642447,ld,女,19,2024_Apr_21_1016,mian,2021.2.3,60.14082576046686,
,,,,,,1,0,pic/flanker5.png,pic/flanker3.png,a,l,pic/AffRest2.png,,,,,,,,,,,,,,,,,,,,,,,,,0,1,1,1,0,62,62,63,,,,941.8284310999879,None,940.6448298999894,941.8447964999941,a,1,失意,l,1,0.47135639999760315,0.49715070000092965,ld,女,19,2024_Apr_21_1016,mian,2021.2.3,60.14082576046686,
,,,,,,0,0,pic/flanker5.png,pic/flanker1.png,s,l,pic/AffRest2.png,,,,,,,,,,,,,,,,,,,,,,,,,0,1,1,1,0,63,63,51,,,,944.6457119999977,None,943.4612129000016,944.661835299994,s,1,逃避,l,1,0.5208890000067186,0.4101684000052046,ld,女,19,2024_Apr_21_1016,mian,2021.2.3,60.14082576046686,
,,,,,,1,1,pic/flanker6.png,pic/flanker4.png,s,k,pic/AffRest2.png,,,,,,,,,,,,,,,,,,,,,,,,,0,1,1,1,0,64,64,70,,,,947.4278691999934,None,946.2445874999976,947.4446259999968,s,1,如愿,k,1,0.89591730000393,0.5485349999944447,ld,女,19,2024_Apr_21_1016,mian,2021.2.3,60.14082576046686,
,,,,,,1,1,pic/flanker5.png,pic/flanker3.png,a,k,pic/AffRest2.png,,,,,,,,,,,,,,,,,,,,,,,,,0,1,1,1,0,65,65,60,,,,950.9117856999947,None,949.7278232999961,950.9278706999903,a,1,吉祥,k,1,0.5457784999889554,0.6299371000059182,ld,女,19,2024_Apr_21_1016,mian,2021.2.3,60.14082576046686,
,,,,,,1,1,pic/flanker6.png,pic/flanker4.png,s,k,pic/AffRest2.png,,,,,,,,,,,,,,,,,,,,,,,,,0,1,1,1,0,66,66,78,,,,954.0768473999924,None,952.8938111999887,954.093520999988,s,1,赞成,k,1,0.5166522000072291,0.43207099998835474,ld,女,19,2024_Apr_21_1016,mian,2021.2.3,60.14082576046686,
,,,,,,1,1,pic/flanker5.png,pic/flanker3.png,a,k,pic/AffRest2.png,,,,,,,,,,,,,,,,,,,,,,,,,0,1,1,1,0,67,67,68,,,,957.0603718999919,None,955.8765898999991,957.0764020999923,a,1,顽强,k,1,0.4684292000019923,0.39223269998910837,ld,女,19,2024_Apr_21_1016,mian,2021.2.3,60.14082576046686,
,,,,,,1,1,pic/flanker6.png,pic/flanker4.png,s,k,pic/AffRest2.png,,,,,,,,,,,,,,,,,,,,,,,,,0,1,1,1,0,68,68,54,,,,959.8100438999973,None,958.6275814999972,959.8266656999913,s,1,典雅,k,1,0.4970924999943236,0.39059890000498854,ld,女,19,2024_Apr_21_1016,mian,2021.2.3,60.14082576046686,
,,,,,,0,1,pic/flanker5.png,pic/flanker1.png,s,k,pic/AffRest2.png,,,,,,,,,,,,,,,,,,,,,,,,,0,1,1,1,0,69,69,72,,,,962.742614399991,None,961.5594131999969,962.759232299999,s,1,瑰丽,k,1,0.4028401999967173,0.3632599999982631,ld,女,19,2024_Apr_21_1016,mian,2021.2.3,60.14082576046686,
,,,,,,1,1,pic/flanker5.png,pic/flanker3.png,a,k,pic/AffRest2.png,,,,,,,,,,,,,,,,,,,,,,,,,0,1,1,1,0,70,70,28,,,,965.5089586999966,None,964.3257504999929,965.5262361999921,a,1,正直,k,1,0.46222869999473915,0.38467189999937546,ld,女,19,2024_Apr_21_1016,mian,2021.2.3,60.14082576046686,
,,,,,,1,0,pic/flanker6.png,pic/flanker4.png,s,l,pic/AffRest2.png,,,,,,,,,,,,,,,,,,,,,,,,,0,1,1,1,0,71,71,37,,,,968.2096058000025,None,967.0261260999978,968.2262017999892,s,1,假冒,l,1,0.5254465000034543,0.4149725000024773,ld,女,19,2024_Apr_21_1016,mian,2021.2.3,60.14082576046686,
,,,,,,0,0,pic/flanker6.png,pic/flanker2.png,a,l,pic/AffRest2.png,,,,,,,,,,,,,,,,,,,,,,,,,0,1,1,1,0,72,72,25,,,,971.0096747999924,None,969.8256399999955,971.0264611999883,a,1,别扭,l,1,0.5554941000009421,0.4261644000071101,ld,女,19,2024_Apr_21_1016,mian,2021.2.3,60.14082576046686,
,,,,,,0,1,pic/flanker6.png,pic/flanker2.png,a,k,pic/AffRest2.png,,,,,,,,,,,,,,,,,,,,,,,,,0,1,1,1,0,73,73,34,,,,974.008826499994,None,972.8254582999944,974.025601100002,a,1,精致,k,1,0.5232484000007389,0.3655633000016678,ld,女,19,2024_Apr_21_1016,mian,2021.2.3,60.14082576046686,
,,,,,,1,0,pic/flanker6.png,pic/flanker4.png,s,l,pic/AffRest2.png,,,,,,,,,,,,,,,,,,,,,,,,,0,1,1,1,0,74,74,29,,,,976.8084436999925,None,975.6251250999921,976.8258969000017,s,1,悲观,l,1,0.5395571999979438,0.4282930000044871,ld,女,19,2024_Apr_21_1016,mian,2021.2.3,60.14082576046686,
,,,,,,0,0,pic/flanker5.png,pic/flanker1.png,s,l,pic/AffRest2.png,,,,,,,,,,,,,,,,,,,,,,,,,0,1,1,1,0,75,75,75,,,,979.8418428000004,None,978.6580346999981,979.8579396999994,s,1,嘲笑,k,0,0.4917871999932686,0.3940322999987984,ld,女,19,2024_Apr_21_1016,mian,2021.2.3,60.14082576046686,
,,,,,,0,1,pic/flanker6.png,pic/flanker2.png,a,k,pic/AffRest2.png,,,,,,,,,,,,,,,,,,,,,,,,,0,1,1,1,0,76,76,10,,,,982.7749987999996,None,981.5915021999972,982.7910479999991,a,1,富足,k,1,0.5195259000029182,0.3977528999967035,ld,女,19,2024_Apr_21_1016,mian,2021.2.3,60.14082576046686,
,,,,,,0,0,pic/flanker6.png,pic/flanker2.png,a,l,pic/AffRest2.png,,,,,,,,,,,,,,,,,,,,,,,,,0,1,1,1,0,77,77,33,,,,985.6413494000008,None,984.4578642999986,985.6580194999988,a,1,慌忙,l,1,0.6857090999983484,0.3352317000098992,ld,女,19,2024_Apr_21_1016,mian,2021.2.3,60.14082576046686,
,,,,,,1,0,pic/flanker5.png,pic/flanker3.png,a,l,pic/AffRest2.png,,,,,,,,,,,,,,,,,,,,,,,,,0,1,1,1,0,78,78,71,,,,988.6233978999953,None,987.4401289999951,988.6401322999882,a,1,焦躁,l,1,0.5276366000034614,0.544638199993642,ld,女,19,2024_Apr_21_1016,mian,2021.2.3,60.14082576046686,
,,,,,,0,1,pic/flanker5.png,pic/flanker1.png,s,k,pic/AffRest2.png,,,,,,,,,,,,,,,,,,,,,,,,,0,1,1,1,0,79,79,56,,,,991.7407203999901,None,990.5572097999975,991.7575244999898,s,1,鲜艳,k,1,0.5957685000030324,0.38532060000579804,ld,女,19,2024_Apr_21_1016,mian,2021.2.3,60.14082576046686,
,,,,,,,,,,,,pic/AffRest2.png,,,,,,,,,,,,,,,,,,,,,,,,,0,1,1,1,,,,,,,,,,,,,,,,,,,ld,女,19,2024_Apr_21_1016,mian,2021.2.3,60.14082576046686,
,,,,,,1,0,pic/flanker6.png,pic/flanker4.png,s,l,pic/AffRest3.png,,,,,,,,,,,,,,,,,,,,,,,,,0,2,2,2,0,0,0,77,,,,1006.7869835999882,None,1005.6056157999992,1006.8215032000007,s,1,争吵,l,1,0.3970860999979777,0.4154700000071898,ld,女,19,2024_Apr_21_1016,mian,2021.2.3,60.14082576046686,
,,,,,,0,0,pic/flanker5.png,pic/flanker1.png,s,l,pic/AffRest3.png,,,,,,,,,,,,,,,,,,,,,,,,,0,2,2,2,0,1,1,27,,,,1009.4883246999962,None,1008.303571899989,1009.5051383999962,s,1,厌恶,l,1,0.4142143999924883,0.3650593000056688,ld,女,19,2024_Apr_21_1016,mian,2021.2.3,60.14082576046686,
,,,,,,0,1,pic/flanker6.png,pic/flanker2.png,a,k,pic/AffRest3.png,,,,,,,,,,,,,,,,,,,,,,,,,0,2,2,2,0,2,2,50,,,,1012.2887628999888,None,1011.1033190000016,1012.3055173999892,a,1,敬佩,k,1,0.5833950999949593,0.3754530999867711,ld,女,19,2024_Apr_21_1016,mian,2021.2.3,60.14082576046686,
,,,,,,1,1,pic/flanker6.png,pic/flanker4.png,s,k,pic/AffRest3.png,,,,,,,,,,,,,,,,,,,,,,,,,0,2,2,2,0,3,3,70,,,,1015.2217526000022,None,1014.036402400001,1015.237836100001,s,1,前进,k,1,0.4419113999902038,0.432081000006292,ld,女,19,2024_Apr_21_1016,mian,2021.2.3,60.14082576046686,
,,,,,,1,1,pic/flanker5.png,pic/flanker3.png,a,k,pic/AffRest3.png,,,,,,,,,,,,,,,,,,,,,,,,,0,2,2,2,0,4,4,52,,,,1018.0034741999989,None,1016.819456600002,1018.0199370999908,a,1,圣洁,k,1,0.49414989999786485,0.3981052000017371,ld,女,19,2024_Apr_21_1016,mian,2021.2.3,60.14082576046686,
,,,,,,0,0,pic/flanker5.png,pic/flanker1.png,s,l,pic/AffRest3.png,,,,,,,,,,,,,,,,,,,,,,,,,0,2,2,2,0,5,5,11,,,,1020.9051464999939,None,1019.7213166000001,1020.9216713999922,s,1,浪费,l,1,0.5076821999973617,0.39124949999677483,ld,女,19,2024_Apr_21_1016,mian,2021.2.3,60.14082576046686,
,,,,,,0,1,pic/flanker6.png,pic/flanker2.png,a,k,pic/AffRest3.png,,,,,,,,,,,,,,,,,,,,,,,,,0,2,2,2,0,6,6,10,,,,1023.8019969000015,None,1022.6190568999882,1023.8188648999931,a,1,珍藏,k,1,0.6196182999992743,0.4348611000023084,ld,女,19,2024_Apr_21_1016,mian,2021.2.3,60.14082576046686,
,,,,,,0,0,pic/flanker5.png,pic/flanker1.png,s,l,pic/AffRest3.png,,,,,,,,,,,,,,,,,,,,,,,,,0,2,2,2,0,7,7,35,,,,1026.8681719000015,None,1025.703063699999,1026.9181909999897,s,1,烦恼,l,1,0.49768820000463165,0.3665359000005992,ld,女,19,2024_Apr_21_1016,mian,2021.2.3,60.14082576046686,
,,,,,,0,1,pic/flanker6.png,pic/flanker2.png,a,k,pic/AffRest3.png,,,,,,,,,,,,,,,,,,,,,,,,,0,2,2,2,0,8,8,66,,,,1029.752681699989,None,1028.569776599994,1029.769026199996,a,1,典雅,k,1,0.43077099999936763,0.3649201000080211,ld,女,19,2024_Apr_21_1016,mian,2021.2.3,60.14082576046686,
,,,,,,0,0,pic/flanker5.png,pic/flanker1.png,s,l,pic/AffRest3.png,,,,,,,,,,,,,,,,,,,,,,,,,0,2,2,2,0,9,9,59,,,,1032.6193961999961,None,1031.4346814000019,1032.6358483999938,s,1,罚款,l,1,0.5511799000087194,0.41934870000113733,ld,女,19,2024_Apr_21_1016,mian,2021.2.3,60.14082576046686,
,,,,,,0,0,pic/flanker6.png,pic/flanker2.png,a,l,pic/AffRest3.png,,,,,,,,,,,,,,,,,,,,,,,,,0,2,2,2,0,10,10,25,,,,1035.4843313999882,None,1034.3181823999912,1035.5174676999886,a,1,嘲笑,l,1,0.50186040000699,0.4064981999981683,ld,女,19,2024_Apr_21_1016,mian,2021.2.3,60.14082576046686,
,,,,,,0,0,pic/flanker5.png,pic/flanker1.png,s,l,pic/AffRest3.png,,,,,,,,,,,,,,,,,,,,,,,,,0,2,2,2,0,11,11,67,,,,1038.2700072000007,None,1037.0859742999892,1038.2853665000002,s,1,禁止,l,1,0.5076744999969378,0.37508969999908004,ld,女,19,2024_Apr_21_1016,mian,2021.2.3,60.14082576046686,
,,,,,,0,0,pic/flanker6.png,pic/flanker2.png,a,l,pic/AffRest3.png,,,,,,,,,,,,,,,,,,,,,,,,,0,2,2,2,0,12,12,65,,,,1041.151073599991,None,1039.9672510999953,1041.16739409999,a,1,黑暗,l,1,0.45008640000014566,0.31868139999278355,ld,女,19,2024_Apr_21_1016,mian,2021.2.3,60.14082576046686,
,,,,,,1,0,pic/flanker5.png,pic/flanker3.png,a,l,pic/AffRest3.png,,,,,,,,,,,,,,,,,,,,,,,,,0,2,2,2,0,13,13,71,,,,1043.9688981999934,None,1042.7855025999888,1043.9865852999937,a,1,消沉,l,1,0.45001719999709167,0.6082633000041824,ld,女,19,2024_Apr_21_1016,mian,2021.2.3,60.14082576046686,
,,,,,,0,0,pic/flanker5.png,pic/flanker1.png,s,l,pic/AffRest3.png,,,,,,,,,,,,,,,,,,,,,,,,,0,2,2,2,0,14,14,51,,,,1047.0187752999918,None,1045.8351473999937,1047.0353217999946,s,1,损害,l,1,0.433569400003762,0.3335836000042036,ld,女,19,2024_Apr_21_1016,mian,2021.2.3,60.14082576046686,
,,,,,,1,0,pic/flanker6.png,pic/flanker4.png,s,l,pic/AffRest3.png,,,,,,,,,,,,,,,,,,,,,,,,,0,2,2,2,0,15,15,69,,,,1049.6684995999967,None,1048.4848663000012,1049.6845539999922,s,1,丢失,l,1,0.38032559999555815,0.47306530000059865,ld,女,19,2024_Apr_21_1016,mian,2021.2.3,60.14082576046686,
,,,,,,0,0,pic/flanker5.png,pic/flanker1.png,s,l,pic/AffRest3.png,,,,,,,,,,,,,,,,,,,,,,,,,0,2,2,2,0,16,16,3,,,,1052.4179986999952,None,1051.2347549999977,1052.4342994999897,s,1,心慌,l,1,0.38431159999163356,0.34819099999731407,ld,女,19,2024_Apr_21_1016,mian,2021.2.3,60.14082576046686,
,,,,,,0,1,pic/flanker5.png,pic/flanker1.png,s,k,pic/AffRest3.png,,,,,,,,,,,,,,,,,,,,,,,,,0,2,2,2,0,17,17,8,,,,1055.1509012000024,None,1053.9683108999889,1055.1680849999975,s,1,羡慕,k,1,0.6046770999964792,0.33907360000011977,ld,女,19,2024_Apr_21_1016,mian,2021.2.3,60.14082576046686,
,,,,,,1,0,pic/flanker5.png,pic/flanker3.png,a,l,pic/AffRest3.png,,,,,,,,,,,,,,,,,,,,,,,,,0,2,2,2,0,18,18,79,,,,1058.1005633999885,None,1056.9172638000018,1058.1170298999932,a,1,排斥,l,1,0.44890139999915846,0.38639499999408145,ld,女,19,2024_Apr_21_1016,mian,2021.2.3,60.14082576046686,
,,,,,,1,1,pic/flanker6.png,pic/flanker4.png,s,k,pic/AffRest3.png,,,,,,,,,,,,,,,,,,,,,,,,,0,2,2,2,0,19,19,30,,,,1060.7838252999936,None,1059.6002432999958,1060.8006686000008,s,1,舒畅,l,0,0.40834799999720417,0.40169410000089556,ld,女,19,2024_Apr_21_1016,mian,2021.2.3,60.14082576046686,
,,,,,,1,0,pic/flanker6.png,pic/flanker4.png,s,l,pic/AffRest3.png,,,,,,,,,,,,,,,,,,,,,,,,,0,2,2,2,0,20,20,37,,,,1063.4328852999897,None,1062.2504592999903,1063.4501352999941,s,1,懒惰,l,1,0.5374827999912668,0.4325564999890048,ld,女,19,2024_Apr_21_1016,mian,2021.2.3,60.14082576046686,
,,,,,,0,0,pic/flanker5.png,pic/flanker1.png,s,l,pic/AffRest3.png,,,,,,,,,,,,,,,,,,,,,,,,,0,2,2,2,0,21,21,19,,,,1066.3651817999926,None,1065.1820336999954,1066.382202599998,s,1,撒谎,l,1,0.5077736000093864,0.4134470999997575,ld,女,19,2024_Apr_21_1016,mian,2021.2.3,60.14082576046686,
,,,,,,0,1,pic/flanker5.png,pic/flanker1.png,s,k,pic/AffRest3.png,,,,,,,,,,,,,,,,,,,,,,,,,0,2,2,2,0,22,22,64,,,,1069.2331129999948,None,1068.049644899991,1069.249677300002,s,1,爽朗,k,1,0.517183500007377,0.35744059999706224,ld,女,19,2024_Apr_21_1016,mian,2021.2.3,60.14082576046686,
,,,,,,1,1,pic/flanker5.png,pic/flanker3.png,a,k,pic/AffRest3.png,,,,,,,,,,,,,,,,,,,,,,,,,0,2,2,2,0,23,23,76,,,,1072.1491192999965,None,1070.9664155999926,1072.165485999998,a,1,顽强,k,1,0.7851287000084994,0.574325100009446,ld,女,19,2024_Apr_21_1016,mian,2021.2.3,60.14082576046686,
,,,,,,1,0,pic/flanker6.png,pic/flanker4.png,s,l,pic/AffRest3.png,,,,,,,,,,,,,,,,,,,,,,,,,0,2,2,2,0,24,24,45,,,,1075.4998206000018,None,1074.3161644999927,1075.5157173999905,s,1,穷苦,l,1,0.4686286000069231,0.429671200006851,ld,女,19,2024_Apr_21_1016,mian,2021.2.3,60.14082576046686,
,,,,,,1,1,pic/flanker5.png,pic/flanker3.png,a,k,pic/AffRest3.png,,,,,,,,,,,,,,,,,,,,,,,,,0,2,2,2,0,25,25,20,,,,1078.266428499992,None,1077.0815919000015,1078.282846599992,a,1,丰满,k,1,0.45711809999193065,0.43581409999751486,ld,女,19,2024_Apr_21_1016,mian,2021.2.3,60.14082576046686,
,,,,,,1,1,pic/flanker6.png,pic/flanker4.png,s,k,pic/AffRest3.png,,,,,,,,,,,,,,,,,,,,,,,,,0,2,2,2,0,26,26,6,,,,1081.0153480000008,None,1079.8316844999936,1081.0313739999983,s,1,振作,k,1,0.548023600000306,0.4573355000029551,ld,女,19,2024_Apr_21_1016,mian,2021.2.3,60.14082576046686,
,,,,,,1,1,pic/flanker5.png,pic/flanker3.png,a,k,pic/AffRest3.png,,,,,,,,,,,,,,,,,,,,,,,,,0,2,2,2,0,27,27,68,,,,1083.8973468999902,None,1082.7134165999887,1083.9131179999968,a,1,如愿,k,1,0.49858749999839347,0.5603282000083709,ld,女,19,2024_Apr_21_1016,mian,2021.2.3,60.14082576046686,
,,,,,,1,0,pic/flanker5.png,pic/flanker3.png,a,l,pic/AffRest3.png,,,,,,,,,,,,,,,,,,,,,,,,,0,2,2,2,0,28,28,31,,,,1086.8974578999914,None,1085.714530600002,1086.9144993999944,a,1,别扭,l,1,0.8220000000001164,0.4971475000056671,ld,女,19,2024_Apr_21_1016,mian,2021.2.3,60.14082576046686,
,,,,,,0,1,pic/flanker5.png,pic/flanker1.png,s,k,pic/AffRest3.png,,,,,,,,,,,,,,,,,,,,,,,,,0,2,2,2,0,29,29,24,,,,1090.0654680000007,None,1088.8808430999925,1090.0803959999903,s,1,公平,k,1,0.47749560000374913,0.4059494000102859,ld,女,19,2024_Apr_21_1016,mian,2021.2.3,60.14082576046686,
,,,,,,0,0,pic/flanker6.png,pic/flanker2.png,a,l,pic/AffRest3.png,,,,,,,,,,,,,,,,,,,,,,,,,0,2,2,2,0,30,30,73,,,,1092.864198700001,None,1091.6801921000006,1092.8801540999993,a,1,伤心,l,1,0.475342300007469,0.3617823000095086,ld,女,19,2024_Apr_21_1016,mian,2021.2.3,60.14082576046686,
,,,,,,0,0,pic/flanker6.png,pic/flanker2.png,a,l,pic/AffRest3.png,,,,,,,,,,,,,,,,,,,,,,,,,0,2,2,2,0,31,31,1,,,,1095.5472773999936,None,1094.3639591999963,1095.5638850999967,a,1,焦躁,l,1,0.5231033000018215,0.32069910000427626,ld,女,19,2024_Apr_21_1016,mian,2021.2.3,60.14082576046686,
,,,,,,1,0,pic/flanker5.png,pic/flanker3.png,a,l,pic/AffRest3.png,,,,,,,,,,,,,,,,,,,,,,,,,0,2,2,2,0,32,32,47,,,,1098.3635435999895,None,1097.1805409999943,1098.380256999997,a,1,缺乏,l,1,0.4187507999886293,0.4440747999906307,ld,女,19,2024_Apr_21_1016,mian,2021.2.3,60.14082576046686,
,,,,,,0,0,pic/flanker5.png,pic/flanker1.png,s,l,pic/AffRest3.png,,,,,,,,,,,,,,,,,,,,,,,,,0,2,2,2,0,33,33,75,,,,1101.2290782999917,None,1100.0462434999936,1101.2461905999953,s,1,逃避,l,1,0.47305089999281336,0.35237490000145044,ld,女,19,2024_Apr_21_1016,mian,2021.2.3,60.14082576046686,
,,,,,,0,1,pic/flanker6.png,pic/flanker2.png,a,k,pic/AffRest3.png,,,,,,,,,,,,,,,,,,,,,,,,,0,2,2,2,0,34,34,18,,,,1104.0631831999926,None,1102.879687099994,1104.0793698999914,a,1,富丽,k,1,0.5026917999930447,0.3588586999976542,ld,女,19,2024_Apr_21_1016,mian,2021.2.3,60.14082576046686,
,,,,,,0,1,pic/flanker5.png,pic/flanker1.png,s,k,pic/AffRest3.png,,,,,,,,,,,,,,,,,,,,,,,,,0,2,2,2,0,35,35,32,,,,1106.8630558000004,None,1105.6796756999975,1106.8791155999934,s,1,俊秀,k,1,0.48533869998937007,0.3375579999992624,ld,女,19,2024_Apr_21_1016,mian,2021.2.3,60.14082576046686,
,,,,,,0,0,pic/flanker6.png,pic/flanker2.png,a,l,pic/AffRest3.png,,,,,,,,,,,,,,,,,,,,,,,,,0,2,2,2,0,36,36,9,,,,1109.6623356999917,None,1108.480039499991,1109.6956721999886,a,1,怀疑,l,1,0.4510341999994125,0.32233339999220334,ld,女,19,2024_Apr_21_1016,mian,2021.2.3,60.14082576046686,
,,,,,,0,1,pic/flanker6.png,pic/flanker2.png,a,k,pic/AffRest3.png,,,,,,,,,,,,,,,,,,,,,,,,,0,2,2,2,0,37,37,2,,,,1112.4783644999989,None,1111.2950883000012,1112.4950255000003,a,1,生动,k,1,0.4283446999907028,0.3199712999921758,ld,女,19,2024_Apr_21_1016,mian,2021.2.3,60.14082576046686,
,,,,,,1,1,pic/flanker5.png,pic/flanker3.png,a,k,pic/AffRest3.png,,,,,,,,,,,,,,,,,,,,,,,,,0,2,2,2,0,38,38,60,,,,1115.111226299996,None,1113.9265901999897,1115.1269994999893,a,1,吉祥,k,1,0.47893979999935254,0.5325712999911048,ld,女,19,2024_Apr_21_1016,mian,2021.2.3,60.14082576046686,
,,,,,,1,1,pic/flanker5.png,pic/flanker3.png,a,k,pic/AffRest3.png,,,,,,,,,,,,,,,,,,,,,,,,,0,2,2,2,0,39,39,4,,,,1117.994314800002,None,1116.8110501999909,1118.0110578000022,a,1,雄厚,k,1,0.6087926000036532,1.229676200004178,ld,女,19,2024_Apr_21_1016,mian,2021.2.3,60.14082576046686,
,,,,,,1,1,pic/flanker5.png,pic/flanker3.png,a,k,pic/AffRest3.png,,,,,,,,,,,,,,,,,,,,,,,,,0,2,2,2,0,40,40,12,,,,1121.6616189999913,None,1120.4777319999994,1121.678178999995,a,1,畅销,k,1,0.4627407999942079,0.45326680000289343,ld,女,19,2024_Apr_21_1016,mian,2021.2.3,60.14082576046686,
,,,,,,1,1,pic/flanker5.png,pic/flanker3.png,a,k,pic/AffRest3.png,,,,,,,,,,,,,,,,,,,,,,,,,0,2,2,2,0,41,41,36,,,,1124.6110394999996,None,1123.4273049999902,1124.6271538,a,1,永恒,k,1,0.38500710000516847,0.397207600006368,ld,女,19,2024_Apr_21_1016,mian,2021.2.3,60.14082576046686,
,,,,,,0,1,pic/flanker6.png,pic/flanker2.png,a,k,pic/AffRest3.png,,,,,,,,,,,,,,,,,,,,,,,,,0,2,2,2,0,42,42,26,,,,1127.3768314999907,None,1126.193594899989,1127.393653799998,a,1,廉洁,k,1,0.4546291999868117,0.3315491000103066,ld,女,19,2024_Apr_21_1016,mian,2021.2.3,60.14082576046686,
,,,,,,0,1,pic/flanker5.png,pic/flanker1.png,s,k,pic/AffRest3.png,,,,,,,,,,,,,,,,,,,,,,,,,0,2,2,2,0,43,43,16,,,,1130.0427578999952,None,1128.859933300002,1130.060270099988,s,1,有利,k,1,0.37329529999988154,0.42109180000261404,ld,女,19,2024_Apr_21_1016,mian,2021.2.3,60.14082576046686,
,,,,,,0,1,pic/flanker6.png,pic/flanker2.png,a,k,pic/AffRest3.png,,,,,,,,,,,,,,,,,,,,,,,,,0,2,2,2,0,44,44,74,,,,1132.7766810999892,None,1131.5939726999932,1132.7940335999883,a,1,秀丽,k,1,0.43820960000448395,0.34296970001014415,ld,女,19,2024_Apr_21_1016,mian,2021.2.3,60.14082576046686,
,,,,,,0,0,pic/flanker6.png,pic/flanker2.png,a,l,pic/AffRest3.png,,,,,,,,,,,,,,,,,,,,,,,,,0,2,2,2,0,45,45,57,,,,1135.594034499998,None,1134.409642300001,1135.6096508999908,a,1,轻率,k,0,0.41100039999582805,0.3408651999925496,ld,女,19,2024_Apr_21_1016,mian,2021.2.3,60.14082576046686,
,,,,,,1,1,pic/flanker6.png,pic/flanker4.png,s,k,pic/AffRest3.png,,,,,,,,,,,,,,,,,,,,,,,,,0,2,2,2,0,46,46,54,,,,1138.3591530999984,None,1137.17594809999,1138.3757381999894,s,1,瑰丽,k,1,0.39792610000586137,0.48170760000357404,ld,女,19,2024_Apr_21_1016,mian,2021.2.3,60.14082576046686,
,,,,,,0,1,pic/flanker5.png,pic/flanker1.png,s,k,pic/AffRest3.png,,,,,,,,,,,,,,,,,,,,,,,,,0,2,2,2,0,47,47,56,,,,1141.0759411999898,None,1139.89305839999,1141.0927429000003,s,1,享受,k,1,0.5416923000011593,0.6863480000029085,ld,女,19,2024_Apr_21_1016,mian,2021.2.3,60.14082576046686,
,,,,,,1,0,pic/flanker5.png,pic/flanker3.png,a,l,pic/AffRest3.png,,,,,,,,,,,,,,,,,,,,,,,,,0,2,2,2,0,48,48,63,,,,1144.125768599988,None,1142.9435475999926,1144.1589184999902,a,1,胡涂,l,1,0.592698599997675,0.3750782999995863,ld,女,19,2024_Apr_21_1016,mian,2021.2.3,60.14082576046686,
,,,,,,0,0,pic/flanker6.png,pic/flanker2.png,a,l,pic/AffRest3.png,,,,,,,,,,,,,,,,,,,,,,,,,0,2,2,2,0,49,49,41,,,,1146.9424140999909,None,1145.7592308999883,1146.9585043999978,a,1,慌忙,l,1,0.490900300006615,0.3244927999912761,ld,女,19,2024_Apr_21_1016,mian,2021.2.3,60.14082576046686,
,,,,,,1,1,pic/flanker5.png,pic/flanker3.png,a,k,pic/AffRest3.png,,,,,,,,,,,,,,,,,,,,,,,,,0,2,2,2,0,50,50,28,,,,1149.8088733999903,None,1148.6253652000014,1149.8252265999909,a,1,富足,k,1,0.41297919998760335,0.416936200010241,ld,女,19,2024_Apr_21_1016,mian,2021.2.3,60.14082576046686,
,,,,,,1,1,pic/flanker5.png,pic/flanker3.png,a,k,pic/AffRest3.png,,,,,,,,,,,,,,,,,,,,,,,,,0,2,2,2,0,51,51,44,,,,1152.4579559999984,None,1151.2746503999952,1152.475745799995,a,1,赞成,k,1,0.4627586000133306,0.5213215000112541,ld,女,19,2024_Apr_21_1016,mian,2021.2.3,60.14082576046686,
,,,,,,1,1,pic/flanker6.png,pic/flanker4.png,s,k,pic/AffRest3.png,,,,,,,,,,,,,,,,,,,,,,,,,0,2,2,2,0,52,52,62,,,,1155.4907951999921,None,1154.3084549999912,1155.5078192999936,s,1,优雅,k,1,0.3893629999947734,0.4736988999939058,ld,女,19,2024_Apr_21_1016,mian,2021.2.3,60.14082576046686,
,,,,,,1,0,pic/flanker6.png,pic/flanker4.png,s,l,pic/AffRest3.png,,,,,,,,,,,,,,,,,,,,,,,,,0,2,2,2,0,53,53,29,,,,1158.3072018999956,None,1157.123814199993,1158.3238161999907,s,1,杂乱,l,1,0.5445390999957453,0.4570419999945443,ld,女,19,2024_Apr_21_1016,mian,2021.2.3,60.14082576046686,
,,,,,,0,1,pic/flanker6.png,pic/flanker2.png,a,k,pic/AffRest3.png,,,,,,,,,,,,,,,,,,,,,,,,,0,2,2,2,0,54,54,42,,,,1161.3073638999922,None,1160.1237251999992,1161.3252778999886,a,1,旺盛,k,1,0.5130482999957167,0.36941859999205917,ld,女,19,2024_Apr_21_1016,mian,2021.2.3,60.14082576046686,
,,,,,,1,0,pic/flanker5.png,pic/flanker3.png,a,l,pic/AffRest3.png,,,,,,,,,,,,,,,,,,,,,,,,,0,2,2,2,0,55,55,15,,,,1164.2239053999947,None,1163.0403644999897,1164.2405487999931,a,1,落后,l,1,0.49615049999556504,0.4229399000032572,ld,女,19,2024_Apr_21_1016,mian,2021.2.3,60.14082576046686,
,,,,,,0,1,pic/flanker5.png,pic/flanker1.png,s,k,pic/AffRest3.png,,,,,,,,,,,,,,,,,,,,,,,,,0,2,2,2,0,56,56,0,,,,1167.123393499991,None,1165.9409043999913,1167.140649699999,s,1,精致,k,1,0.4368211999972118,0.36610999998811167,ld,女,19,2024_Apr_21_1016,mian,2021.2.3,60.14082576046686,
,,,,,,1,1,pic/flanker6.png,pic/flanker4.png,s,k,pic/AffRest3.png,,,,,,,,,,,,,,,,,,,,,,,,,0,2,2,2,0,57,57,14,,,,1169.8232807000022,None,1168.6396853999904,1169.839687300002,s,1,豪放,k,1,0.3971737999963807,0.444097800005693,ld,女,19,2024_Apr_21_1016,mian,2021.2.3,60.14082576046686,
,,,,,,0,1,pic/flanker5.png,pic/flanker1.png,s,k,pic/AffRest3.png,,,,,,,,,,,,,,,,,,,,,,,,,0,2,2,2,0,58,58,72,,,,1172.5044431999995,None,1171.3220022000023,1172.5220100000006,s,1,鲜艳,k,1,0.4492666000005556,0.4274507999944035,ld,女,19,2024_Apr_21_1016,mian,2021.2.3,60.14082576046686,
,,,,,,1,1,pic/flanker6.png,pic/flanker4.png,s,k,pic/AffRest3.png,,,,,,,,,,,,,,,,,,,,,,,,,0,2,2,2,0,59,59,22,,,,1175.222158699995,None,1174.038857499996,1175.2389389000018,s,1,留恋,k,1,0.6595434000046225,0.4259868999943137,ld,女,19,2024_Apr_21_1016,mian,2021.2.3,60.14082576046686,
,,,,,,1,0,pic/flanker5.png,pic/flanker3.png,a,l,pic/AffRest3.png,,,,,,,,,,,,,,,,,,,,,,,,,0,2,2,2,0,60,60,23,,,,1178.1558946000005,None,1176.9730699999927,1178.172424999997,a,1,冷笑,l,1,0.48718169999483507,0.421942000000854,ld,女,19,2024_Apr_21_1016,mian,2021.2.3,60.14082576046686,
,,,,,,1,1,pic/flanker6.png,pic/flanker4.png,s,k,pic/AffRest3.png,,,,,,,,,,,,,,,,,,,,,,,,,0,2,2,2,0,61,61,78,,,,1181.0225814000005,None,1179.8385497999989,1181.0393483999942,s,1,卓越,k,1,0.5835368000116432,0.45130700001027435,ld,女,19,2024_Apr_21_1016,mian,2021.2.3,60.14082576046686,
,,,,,,1,0,pic/flanker6.png,pic/flanker4.png,s,l,pic/AffRest3.png,,,,,,,,,,,,,,,,,,,,,,,,,0,2,2,2,0,62,62,13,,,,1184.08869959999,None,1182.905324499996,1184.1050277999893,s,1,鲁莽,l,1,0.4889508000051137,0.43071380000037607,ld,女,19,2024_Apr_21_1016,mian,2021.2.3,60.14082576046686,
,,,,,,0,1,pic/flanker5.png,pic/flanker1.png,s,k,pic/AffRest3.png,,,,,,,,,,,,,,,,,,,,,,,,,0,2,2,2,0,63,63,40,,,,1186.9041227999987,None,1185.721177200001,1186.9202472999896,s,1,诚恳,k,1,0.4386254000128247,0.5120814999972936,ld,女,19,2024_Apr_21_1016,mian,2021.2.3,60.14082576046686,
,,,,,,0,1,pic/flanker6.png,pic/flanker2.png,a,k,pic/AffRest3.png,,,,,,,,,,,,,,,,,,,,,,,,,0,2,2,2,0,64,64,58,,,,1189.7550435000012,None,1188.5725057999953,1189.7712239999964,a,1,奉献,k,1,0.5571312999963993,0.3608085000014398,ld,女,19,2024_Apr_21_1016,mian,2021.2.3,60.14082576046686,
,,,,,,1,1,pic/flanker6.png,pic/flanker4.png,s,k,pic/AffRest3.png,,,,,,,,,,,,,,,,,,,,,,,,,0,2,2,2,0,65,65,46,,,,1192.5204960999981,None,1191.3372555999958,1192.5371604999964,s,1,正直,k,1,0.5221194000041578,0.42525249999016523,ld,女,19,2024_Apr_21_1016,mian,2021.2.3,60.14082576046686,
,,,,,,0,0,pic/flanker6.png,pic/flanker2.png,a,l,pic/AffRest3.png,,,,,,,,,,,,,,,,,,,,,,,,,0,2,2,2,0,66,66,33,,,,1195.4208302999905,None,1194.2368409999908,1195.4386040999962,a,1,失意,l,1,0.558773700002348,0.3722445999883348,ld,女,19,2024_Apr_21_1016,mian,2021.2.3,60.14082576046686,
,,,,,,1,0,pic/flanker5.png,pic/flanker3.png,a,l,pic/AffRest3.png,,,,,,,,,,,,,,,,,,,,,,,,,0,2,2,2,0,67,67,39,,,,1198.3367602999933,None,1197.1537969999918,1198.3536082999926,a,1,自卑,l,1,0.46257150000019465,0.4544195999915246,ld,女,19,2024_Apr_21_1016,mian,2021.2.3,60.14082576046686,
,,,,,,1,0,pic/flanker6.png,pic/flanker4.png,s,l,pic/AffRest3.png,,,,,,,,,,,,,,,,,,,,,,,,,0,2,2,2,0,68,68,21,,,,1201.1364052999998,None,1199.9531516999996,1201.1530346999934,s,1,郁闷,l,1,0.4844414999970468,0.6479824999987613,ld,女,19,2024_Apr_21_1016,mian,2021.2.3,60.14082576046686,
,,,,,,1,0,pic/flanker6.png,pic/flanker4.png,s,l,pic/AffRest3.png,,,,,,,,,,,,,,,,,,,,,,,,,0,2,2,2,0,69,69,53,,,,1204.2372860999894,None,1203.0532066000014,1204.2534296999947,s,1,沮丧,l,1,0.4827867999993032,0.41407080000499263,ld,女,19,2024_Apr_21_1016,mian,2021.2.3,60.14082576046686,
,,,,,,0,0,pic/flanker5.png,pic/flanker1.png,s,l,pic/AffRest3.png,,,,,,,,,,,,,,,,,,,,,,,,,0,2,2,2,0,70,70,43,,,,1207.0692453999945,None,1205.8860554999992,1207.0865054000024,s,1,闷热,l,1,0.5730363000038778,0.37618140000267886,ld,女,19,2024_Apr_21_1016,mian,2021.2.3,60.14082576046686,
,,,,,,0,1,pic/flanker5.png,pic/flanker1.png,s,k,pic/AffRest3.png,,,,,,,,,,,,,,,,,,,,,,,,,0,2,2,2,0,71,71,48,,,,1209.8688707999972,None,1208.686047700001,1209.8866761999961,s,1,清秀,k,1,0.48234959998808336,0.4011857000004966,ld,女,19,2024_Apr_21_1016,mian,2021.2.3,60.14082576046686,
,,,,,,1,1,pic/flanker6.png,pic/flanker4.png,s,k,pic/AffRest3.png,,,,,,,,,,,,,,,,,,,,,,,,,0,2,2,2,0,72,72,38,,,,1212.7356351999915,None,1211.5523160000012,1212.7523929000017,s,1,热切,k,1,0.5271846999967238,0.4224010000034468,ld,女,19,2024_Apr_21_1016,mian,2021.2.3,60.14082576046686,
,,,,,,1,0,pic/flanker6.png,pic/flanker4.png,s,l,pic/AffRest3.png,,,,,,,,,,,,,,,,,,,,,,,,,0,2,2,2,0,73,73,5,,,,1215.7184699999925,None,1214.5354627999914,1215.7361369999999,s,1,忧虑,l,1,0.49958020000485703,0.4270181999891065,ld,女,19,2024_Apr_21_1016,mian,2021.2.3,60.14082576046686,
,,,,,,0,0,pic/flanker6.png,pic/flanker2.png,a,l,pic/AffRest3.png,,,,,,,,,,,,,,,,,,,,,,,,,0,2,2,2,0,74,74,49,,,,1218.5856312999967,None,1217.4014197999932,1218.6027822999895,a,1,孤单,l,1,0.5399861999903806,0.42798530000436585,ld,女,19,2024_Apr_21_1016,mian,2021.2.3,60.14082576046686,
,,,,,,1,0,pic/flanker5.png,pic/flanker3.png,a,l,pic/AffRest3.png,,,,,,,,,,,,,,,,,,,,,,,,,0,2,2,2,0,75,75,7,,,,1221.5828303000017,None,1220.4001742999972,1221.600701999996,a,1,悲观,l,1,0.4790190000057919,0.41265469999052584,ld,女,19,2024_Apr_21_1016,mian,2021.2.3,60.14082576046686,
,,,,,,0,0,pic/flanker6.png,pic/flanker2.png,a,l,pic/AffRest3.png,,,,,,,,,,,,,,,,,,,,,,,,,0,2,2,2,0,76,76,17,,,,1224.401100499992,None,1223.217585499995,1224.4188743999985,a,1,假冒,l,1,0.47437840000202414,0.32244810000702273,ld,女,19,2024_Apr_21_1016,mian,2021.2.3,60.14082576046686,
,,,,,,0,1,pic/flanker6.png,pic/flanker2.png,a,k,pic/AffRest3.png,,,,,,,,,,,,,,,,,,,,,,,,,0,2,2,2,0,77,77,34,,,,1227.2512200999918,None,1226.067358299988,1227.2682979999954,a,1,充裕,k,1,0.5559517000074266,0.2887421000050381,ld,女,19,2024_Apr_21_1016,mian,2021.2.3,60.14082576046686,
,,,,,,1,0,pic/flanker5.png,pic/flanker3.png,a,l,pic/AffRest3.png,,,,,,,,,,,,,,,,,,,,,,,,,0,2,2,2,0,78,78,55,,,,1230.1005754999933,None,1228.916895699993,1230.1179558000003,a,1,堵塞,l,1,0.46553439999115653,0.4095668000081787,ld,女,19,2024_Apr_21_1016,mian,2021.2.3,60.14082576046686,
,,,,,,1,0,pic/flanker6.png,pic/flanker4.png,s,l,pic/AffRest3.png,,,,,,,,,,,,,,,,,,,,,,,,,0,2,2,2,0,79,79,61,,,,1232.9670055999886,None,1231.7833794999897,1232.9843256000022,s,1,处罚,l,1,0.5035829000116792,0.4067557999951532,ld,女,19,2024_Apr_21_1016,mian,2021.2.3,60.14082576046686,
,,,,,,,,,,,,pic/AffRest3.png,,,,,,,,,,,,,,,,,,,,,,,,,0,2,2,2,,,,,,,,,,,,,,,,,,,ld,女,19,2024_Apr_21_1016,mian,2021.2.3,60.14082576046686,
