target,反应类型,条件,truetarget,CorAns,Position,congruency,AffValue,flankerPic,targetPic,corAnsF,corAnsA,RestPic,returnPractice.thisRepN,returnPractice.thisTrialN,returnPractice.thisN,returnPractice.thisIndex,pracNum.thisRepN,pracNum.thisTrialN,pracNum.thisN,pracNum.thisIndex,NumBlock1.thisRepN,NumBlock1.thisTrialN,NumBlock1.thisN,NumBlock1.thisIndex,NumBlock2.thisRepN,NumBlock2.thisTrialN,NumBlock2.thisN,NumBlock2.thisIndex,returnPrac.thisRepN,returnPrac.thisTrialN,returnPrac.thisN,returnPrac.thisIndex,PracAff.thisRepN,PracAff.thisTrialN,PracAff.thisN,PracAff.thisIndex,AffBlocks.thisRepN,AffBlocks.thisTrialN,AffBlocks.thisN,AffBlocks.thisIndex,AffBlock1.thisRepN,AffBlock1.thisTrialN,AffBlock1.thisN,AffBlock1.thisIndex,respNum2word.keys,respNum2word.corr,respNum2word.rt,text.started,text.stopped,blank.started,blank.stopped,respFlanker.keys,respFlanker.corr,respFlanker.rt,thisWord,respAffWord.keys,respAffWord.corr,respAffWord.rt,姓名,性别,年龄（周岁）,date,expName,psychopyVersion,frameRate,
2A,1,1,A,a,"[0.2, 0.2]",,,,,,,,0,0,0,0,0,0,0,0,,,,,,,,,,,,,,,,,,,,,,,,,None,0,,,,,,,,,,,,,lth,m,22,2024_Apr_15_1707,mian,2021.2.3,60.40365345458794,
A9,1,2,A,a,"[-0.2, 0.2]",,,,,,,,0,0,0,0,0,1,1,1,,,,,,,,,,,,,,,,,,,,,,,,,a,1,1.216700299999502,,,,,,,,,,,,lth,m,22,2024_Apr_15_1707,mian,2021.2.3,60.40365345458794,
7e,2,1,7.0,a,"[-0.2, -0.2]",,,,,,,,0,0,0,0,0,2,2,2,,,,,,,,,,,,,,,,,,,,,,,,,a,1,1.8003086000007897,,,,,,,,,,,,lth,m,22,2024_Apr_15_1707,mian,2021.2.3,60.40365345458794,
9H,2,2,9.0,a,"[0.2, -0.2]",,,,,,,,0,0,0,0,0,3,3,3,,,,,,,,,,,,,,,,,,,,,,,,,a,1,0.9689909000007901,,,,,,,,,,,,lth,m,22,2024_Apr_15_1707,mian,2021.2.3,60.40365345458794,
h4,1,1,h,l,"[0.2, 0.2]",,,,,,,,0,0,0,0,0,4,4,4,,,,,,,,,,,,,,,,,,,,,,,,,l,1,0.7841158999999607,,,,,,,,,,,,lth,m,22,2024_Apr_15_1707,mian,2021.2.3,60.40365345458794,
4H,1,2,H,a,"[-0.2, 0.2]",,,,,,,,0,0,0,0,0,5,5,5,,,,,,,,,,,,,,,,,,,,,,,,,a,1,1.261489999999867,,,,,,,,,,,,lth,m,22,2024_Apr_15_1707,mian,2021.2.3,60.40365345458794,
F8,2,1,8.0,l,"[-0.2, -0.2]",,,,,,,,0,0,0,0,0,6,6,6,,,,,,,,,,,,,,,,,,,,,,,,,l,1,0.7648703000004389,,,,,,,,,,,,lth,m,22,2024_Apr_15_1707,mian,2021.2.3,60.40365345458794,
h7,2,2,7.0,a,"[0.2, -0.2]",,,,,,,,0,0,0,0,0,7,7,7,,,,,,,,,,,,,,,,,,,,,,,,,a,1,0.5794852999997602,,,,,,,,,,,,lth,m,22,2024_Apr_15_1707,mian,2021.2.3,60.40365345458794,
5e,1,1,e,l,"[0.2, 0.2]",,,,,,,,0,0,0,0,0,8,8,8,,,,,,,,,,,,,,,,,,,,,,,,,l,1,2.7458776000003127,,,,,,,,,,,,lth,m,22,2024_Apr_15_1707,mian,2021.2.3,60.40365345458794,
e8,1,2,e,l,"[-0.2, 0.2]",,,,,,,,0,0,0,0,0,9,9,9,,,,,,,,,,,,,,,,,,,,,,,,,l,1,0.5345001000005141,,,,,,,,,,,,lth,m,22,2024_Apr_15_1707,mian,2021.2.3,60.40365345458794,
4E,2,1,4.0,l,"[-0.2, -0.2]",,,,,,,,0,0,0,0,0,10,10,10,,,,,,,,,,,,,,,,,,,,,,,,,l,1,2.195051699999567,,,,,,,,,,,,lth,m,22,2024_Apr_15_1707,mian,2021.2.3,60.40365345458794,
5H,2,2,5.0,a,"[0.2, -0.2]",,,,,,,,0,0,0,0,0,11,11,11,,,,,,,,,,,,,,,,,,,,,,,,,a,1,0.5629558999999063,,,,,,,,,,,,lth,m,22,2024_Apr_15_1707,mian,2021.2.3,60.40365345458794,
9E,1,1,E,a,"[0.2, 0.2]",,,,,,,,0,0,0,0,0,12,12,12,,,,,,,,,,,,,,,,,,,,,,,,,a,1,0.8227178999995886,,,,,,,,,,,,lth,m,22,2024_Apr_15_1707,mian,2021.2.3,60.40365345458794,
h9,1,2,h,l,"[-0.2, 0.2]",,,,,,,,0,0,0,0,0,13,13,13,,,,,,,,,,,,,,,,,,,,,,,,,l,1,0.6351175999998304,,,,,,,,,,,,lth,m,22,2024_Apr_15_1707,mian,2021.2.3,60.40365345458794,
2a,2,1,2.0,l,"[-0.2, -0.2]",,,,,,,,0,0,0,0,0,14,14,14,,,,,,,,,,,,,,,,,,,,,,,,,l,1,2.45899240000017,,,,,,,,,,,,lth,m,22,2024_Apr_15_1707,mian,2021.2.3,60.40365345458794,
e5,2,2,5.0,a,"[0.2, -0.2]",,,,,,,,0,0,0,0,0,15,15,15,,,,,,,,,,,,,,,,,,,,,,,,,a,1,0.7083327999998801,,,,,,,,,,,,lth,m,22,2024_Apr_15_1707,mian,2021.2.3,60.40365345458794,
A5,1,1,A,a,"[0.2, 0.2]",,,,,,,,0,0,0,0,0,16,16,16,,,,,,,,,,,,,,,,,,,,,,,,,a,1,1.9969333999997616,,,,,,,,,,,,lth,m,22,2024_Apr_15_1707,mian,2021.2.3,60.40365345458794,
a6,1,2,a,l,"[-0.2, 0.2]",,,,,,,,0,0,0,0,0,17,17,17,,,,,,,,,,,,,,,,,,,,,,,,,l,1,0.642616199999793,,,,,,,,,,,,lth,m,22,2024_Apr_15_1707,mian,2021.2.3,60.40365345458794,
2F,2,1,2.0,l,"[-0.2, -0.2]",,,,,,,,0,0,0,0,0,18,18,18,,,,,,,,,,,,,,,,,,,,,,,,,l,1,1.4509903999996823,,,,,,,,,,,,lth,m,22,2024_Apr_15_1707,mian,2021.2.3,60.40365345458794,
e4,2,2,4.0,l,"[0.2, -0.2]",,,,,,,,0,0,0,0,0,19,19,19,,,,,,,,,,,,,,,,,,,,,,,,,l,1,0.8420276999995622,,,,,,,,,,,,lth,m,22,2024_Apr_15_1707,mian,2021.2.3,60.40365345458794,
,,,,,,,,,,,,,0,0,0,0,,,,,,,,,,,,,,,,,,,,,,,,,,,,,,,,,,,,,,,,,,,lth,m,22,2024_Apr_15_1707,mian,2021.2.3,60.40365345458794,
7h,1,1,h,l,"[0.2, 0.2]",,,,,,,,,,,,,,,,0,0,0,0,,,,,,,,,,,,,,,,,,,,,l,1,1.6162232000006043,,,,,,,,,,,,lth,m,22,2024_Apr_15_1707,mian,2021.2.3,60.40365345458794,
8F,1,2,F,a,"[-0.2, 0.2]",,,,,,,,,,,,,,,,0,1,1,1,,,,,,,,,,,,,,,,,,,,,a,1,0.6642282999991949,,,,,,,,,,,,lth,m,22,2024_Apr_15_1707,mian,2021.2.3,60.40365345458794,
8h,2,1,8.0,l,"[-0.2, -0.2]",,,,,,,,,,,,,,,,0,2,2,2,,,,,,,,,,,,,,,,,,,,,l,1,1.6044620000002396,,,,,,,,,,,,lth,m,22,2024_Apr_15_1707,mian,2021.2.3,60.40365345458794,
a2,2,2,2.0,l,"[0.2, -0.2]",,,,,,,,,,,,,,,,0,3,3,3,,,,,,,,,,,,,,,,,,,,,l,1,0.6455502999997407,,,,,,,,,,,,lth,m,22,2024_Apr_15_1707,mian,2021.2.3,60.40365345458794,
8f,1,1,f,l,"[0.2, 0.2]",,,,,,,,,,,,,,,,0,4,4,4,,,,,,,,,,,,,,,,,,,,,l,1,0.5992753000000448,,,,,,,,,,,,lth,m,22,2024_Apr_15_1707,mian,2021.2.3,60.40365345458794,
6a,1,2,a,l,"[-0.2, 0.2]",,,,,,,,,,,,,,,,0,5,5,5,,,,,,,,,,,,,,,,,,,,,l,1,2.0008012999996936,,,,,,,,,,,,lth,m,22,2024_Apr_15_1707,mian,2021.2.3,60.40365345458794,
h6,2,1,6.0,l,"[-0.2, -0.2]",,,,,,,,,,,,,,,,0,6,6,6,,,,,,,,,,,,,,,,,,,,,l,1,0.9552058999997826,,,,,,,,,,,,lth,m,22,2024_Apr_15_1707,mian,2021.2.3,60.40365345458794,
f9,2,2,9.0,a,"[0.2, -0.2]",,,,,,,,,,,,,,,,0,7,7,7,,,,,,,,,,,,,,,,,,,,,a,1,0.4784914000001663,,,,,,,,,,,,lth,m,22,2024_Apr_15_1707,mian,2021.2.3,60.40365345458794,
E4,1,1,E,a,"[0.2, 0.2]",,,,,,,,,,,,,,,,0,8,8,8,,,,,,,,,,,,,,,,,,,,,a,1,0.9670047999998133,,,,,,,,,,,,lth,m,22,2024_Apr_15_1707,mian,2021.2.3,60.40365345458794,
6e,1,2,e,l,"[-0.2, 0.2]",,,,,,,,,,,,,,,,0,9,9,9,,,,,,,,,,,,,,,,,,,,,l,1,0.6627066000000923,,,,,,,,,,,,lth,m,22,2024_Apr_15_1707,mian,2021.2.3,60.40365345458794,
5G,2,1,5.0,a,"[-0.2, -0.2]",,,,,,,,,,,,,,,,0,10,10,10,,,,,,,,,,,,,,,,,,,,,a,1,2.0050209000000905,,,,,,,,,,,,lth,m,22,2024_Apr_15_1707,mian,2021.2.3,60.40365345458794,
h3,2,2,3.0,a,"[0.2, -0.2]",,,,,,,,,,,,,,,,0,11,11,11,,,,,,,,,,,,,,,,,,,,,a,1,0.6005785999996078,,,,,,,,,,,,lth,m,22,2024_Apr_15_1707,mian,2021.2.3,60.40365345458794,
9e,1,1,e,l,"[0.2, 0.2]",,,,,,,,,,,,,,,,0,12,12,12,,,,,,,,,,,,,,,,,,,,,l,1,1.255744400000367,,,,,,,,,,,,lth,m,22,2024_Apr_15_1707,mian,2021.2.3,60.40365345458794,
a8,1,2,a,l,"[-0.2, 0.2]",,,,,,,,,,,,,,,,0,13,13,13,,,,,,,,,,,,,,,,,,,,,l,1,1.0854632000000493,,,,,,,,,,,,lth,m,22,2024_Apr_15_1707,mian,2021.2.3,60.40365345458794,
e8,2,1,8.0,l,"[-0.2, -0.2]",,,,,,,,,,,,,,,,0,14,14,14,,,,,,,,,,,,,,,,,,,,,l,1,1.2660375000004933,,,,,,,,,,,,lth,m,22,2024_Apr_15_1707,mian,2021.2.3,60.40365345458794,
3f,2,2,3.0,a,"[0.2, -0.2]",,,,,,,,,,,,,,,,0,15,15,15,,,,,,,,,,,,,,,,,,,,,a,1,2.9140434999999343,,,,,,,,,,,,lth,m,22,2024_Apr_15_1707,mian,2021.2.3,60.40365345458794,
7f,1,1,f,l,"[0.2, 0.2]",,,,,,,,,,,,,,,,0,16,16,16,,,,,,,,,,,,,,,,,,,,,l,1,2.4202620999994906,,,,,,,,,,,,lth,m,22,2024_Apr_15_1707,mian,2021.2.3,60.40365345458794,
a7,1,2,a,l,"[-0.2, 0.2]",,,,,,,,,,,,,,,,0,17,17,17,,,,,,,,,,,,,,,,,,,,,l,1,0.5455084999994142,,,,,,,,,,,,lth,m,22,2024_Apr_15_1707,mian,2021.2.3,60.40365345458794,
5A,2,1,5.0,a,"[-0.2, -0.2]",,,,,,,,,,,,,,,,0,18,18,18,,,,,,,,,,,,,,,,,,,,,a,1,0.8218632999996771,,,,,,,,,,,,lth,m,22,2024_Apr_15_1707,mian,2021.2.3,60.40365345458794,
8g,2,2,8.0,l,"[0.2, -0.2]",,,,,,,,,,,,,,,,0,19,19,19,,,,,,,,,,,,,,,,,,,,,l,1,0.5257120999995095,,,,,,,,,,,,lth,m,22,2024_Apr_15_1707,mian,2021.2.3,60.40365345458794,
9a,1,1,a,l,"[0.2, 0.2]",,,,,,,,,,,,,,,,0,20,20,20,,,,,,,,,,,,,,,,,,,,,a,0,2.5995906999996805,,,,,,,,,,,,lth,m,22,2024_Apr_15_1707,mian,2021.2.3,60.40365345458794,
f7,1,2,f,l,"[-0.2, 0.2]",,,,,,,,,,,,,,,,0,21,21,21,,,,,,,,,,,,,,,,,,,,,l,1,1.0636727999999493,,,,,,,,,,,,lth,m,22,2024_Apr_15_1707,mian,2021.2.3,60.40365345458794,
g9,2,1,9.0,a,"[-0.2, -0.2]",,,,,,,,,,,,,,,,0,22,22,22,,,,,,,,,,,,,,,,,,,,,l,0,1.2642297000002145,,,,,,,,,,,,lth,m,22,2024_Apr_15_1707,mian,2021.2.3,60.40365345458794,
3h,2,2,3.0,a,"[0.2, -0.2]",,,,,,,,,,,,,,,,0,23,23,23,,,,,,,,,,,,,,,,,,,,,a,1,3.254441500000212,,,,,,,,,,,,lth,m,22,2024_Apr_15_1707,mian,2021.2.3,60.40365345458794,
E6,1,1,E,a,"[0.2, 0.2]",,,,,,,,,,,,,,,,0,24,24,24,,,,,,,,,,,,,,,,,,,,,a,1,1.5043557999997574,,,,,,,,,,,,lth,m,22,2024_Apr_15_1707,mian,2021.2.3,60.40365345458794,
F6,1,2,F,a,"[-0.2, 0.2]",,,,,,,,,,,,,,,,0,25,25,25,,,,,,,,,,,,,,,,,,,,,a,1,0.43610420000004524,,,,,,,,,,,,lth,m,22,2024_Apr_15_1707,mian,2021.2.3,60.40365345458794,
3A,2,1,3.0,a,"[-0.2, -0.2]",,,,,,,,,,,,,,,,0,26,26,26,,,,,,,,,,,,,,,,,,,,,a,1,1.3348464999999123,,,,,,,,,,,,lth,m,22,2024_Apr_15_1707,mian,2021.2.3,60.40365345458794,
8H,2,2,8.0,l,"[0.2, -0.2]",,,,,,,,,,,,,,,,0,27,27,27,,,,,,,,,,,,,,,,,,,,,l,1,0.5582946000004085,,,,,,,,,,,,lth,m,22,2024_Apr_15_1707,mian,2021.2.3,60.40365345458794,
5a,1,1,a,l,"[0.2, 0.2]",,,,,,,,,,,,,,,,0,28,28,28,,,,,,,,,,,,,,,,,,,,,l,1,1.5978087000003143,,,,,,,,,,,,lth,m,22,2024_Apr_15_1707,mian,2021.2.3,60.40365345458794,
2h,1,2,h,l,"[-0.2, 0.2]",,,,,,,,,,,,,,,,0,29,29,29,,,,,,,,,,,,,,,,,,,,,l,1,0.7719149000004109,,,,,,,,,,,,lth,m,22,2024_Apr_15_1707,mian,2021.2.3,60.40365345458794,
e5,2,1,5.0,a,"[-0.2, -0.2]",,,,,,,,,,,,,,,,0,30,30,30,,,,,,,,,,,,,,,,,,,,,a,1,3.2441174999994473,,,,,,,,,,,,lth,m,22,2024_Apr_15_1707,mian,2021.2.3,60.40365345458794,
a3,2,2,3.0,a,"[0.2, -0.2]",,,,,,,,,,,,,,,,0,31,31,31,,,,,,,,,,,,,,,,,,,,,a,1,0.5319867999996859,,,,,,,,,,,,lth,m,22,2024_Apr_15_1707,mian,2021.2.3,60.40365345458794,
f3,1,1,f,l,"[0.2, 0.2]",,,,,,,,,,,,,,,,0,32,32,32,,,,,,,,,,,,,,,,,,,,,l,1,1.2052629999998317,,,,,,,,,,,,lth,m,22,2024_Apr_15_1707,mian,2021.2.3,60.40365345458794,
2E,1,2,E,a,"[-0.2, 0.2]",,,,,,,,,,,,,,,,0,33,33,33,,,,,,,,,,,,,,,,,,,,,a,1,0.5170955999992657,,,,,,,,,,,,lth,m,22,2024_Apr_15_1707,mian,2021.2.3,60.40365345458794,
2H,2,1,2.0,l,"[-0.2, -0.2]",,,,,,,,,,,,,,,,0,34,34,34,,,,,,,,,,,,,,,,,,,,,l,1,1.0644042000003537,,,,,,,,,,,,lth,m,22,2024_Apr_15_1707,mian,2021.2.3,60.40365345458794,
H8,2,2,8.0,l,"[0.2, -0.2]",,,,,,,,,,,,,,,,0,35,35,35,,,,,,,,,,,,,,,,,,,,,l,1,1.153345000000627,,,,,,,,,,,,lth,m,22,2024_Apr_15_1707,mian,2021.2.3,60.40365345458794,
9g,1,1,g,l,"[0.2, 0.2]",,,,,,,,,,,,,,,,0,36,36,36,,,,,,,,,,,,,,,,,,,,,l,1,1.8122592999998233,,,,,,,,,,,,lth,m,22,2024_Apr_15_1707,mian,2021.2.3,60.40365345458794,
5h,1,2,h,l,"[-0.2, 0.2]",,,,,,,,,,,,,,,,0,37,37,37,,,,,,,,,,,,,,,,,,,,,l,1,0.5083271000003151,,,,,,,,,,,,lth,m,22,2024_Apr_15_1707,mian,2021.2.3,60.40365345458794,
e4,2,1,4.0,l,"[-0.2, -0.2]",,,,,,,,,,,,,,,,0,38,38,38,,,,,,,,,,,,,,,,,,,,,l,1,2.104910899999595,,,,,,,,,,,,lth,m,22,2024_Apr_15_1707,mian,2021.2.3,60.40365345458794,
9h,2,2,9.0,a,"[0.2, -0.2]",,,,,,,,,,,,,,,,0,39,39,39,,,,,,,,,,,,,,,,,,,,,a,1,0.4614553999999771,,,,,,,,,,,,lth,m,22,2024_Apr_15_1707,mian,2021.2.3,60.40365345458794,
G3,1,1,G,a,"[0.2, 0.2]",,,,,,,,,,,,,,,,0,40,40,40,,,,,,,,,,,,,,,,,,,,,a,1,2.0860243999995873,,,,,,,,,,,,lth,m,22,2024_Apr_15_1707,mian,2021.2.3,60.40365345458794,
9A,1,2,A,a,"[-0.2, 0.2]",,,,,,,,,,,,,,,,0,41,41,41,,,,,,,,,,,,,,,,,,,,,a,1,0.5357546000004731,,,,,,,,,,,,lth,m,22,2024_Apr_15_1707,mian,2021.2.3,60.40365345458794,
H5,2,1,5.0,a,"[-0.2, -0.2]",,,,,,,,,,,,,,,,0,42,42,42,,,,,,,,,,,,,,,,,,,,,a,1,1.1662587999999232,,,,,,,,,,,,lth,m,22,2024_Apr_15_1707,mian,2021.2.3,60.40365345458794,
4e,2,2,4.0,l,"[0.2, -0.2]",,,,,,,,,,,,,,,,0,43,43,43,,,,,,,,,,,,,,,,,,,,,l,1,2.6885536999998294,,,,,,,,,,,,lth,m,22,2024_Apr_15_1707,mian,2021.2.3,60.40365345458794,
E2,1,1,E,a,"[0.2, 0.2]",,,,,,,,,,,,,,,,0,44,44,44,,,,,,,,,,,,,,,,,,,,,a,1,1.3309803999991345,,,,,,,,,,,,lth,m,22,2024_Apr_15_1707,mian,2021.2.3,60.40365345458794,
A5,1,2,A,a,"[-0.2, 0.2]",,,,,,,,,,,,,,,,0,45,45,45,,,,,,,,,,,,,,,,,,,,,a,1,1.8666993999995611,,,,,,,,,,,,lth,m,22,2024_Apr_15_1707,mian,2021.2.3,60.40365345458794,
2A,2,1,2.0,l,"[-0.2, -0.2]",,,,,,,,,,,,,,,,0,46,46,46,,,,,,,,,,,,,,,,,,,,,a,0,1.6383885999994163,,,,,,,,,,,,lth,m,22,2024_Apr_15_1707,mian,2021.2.3,60.40365345458794,
6G,2,2,6.0,l,"[0.2, -0.2]",,,,,,,,,,,,,,,,0,47,47,47,,,,,,,,,,,,,,,,,,,,,l,1,2.740864800000054,,,,,,,,,,,,lth,m,22,2024_Apr_15_1707,mian,2021.2.3,60.40365345458794,
H3,1,1,H,a,"[0.2, 0.2]",,,,,,,,,,,,,,,,0,48,48,48,,,,,,,,,,,,,,,,,,,,,a,1,1.677784800000154,,,,,,,,,,,,lth,m,22,2024_Apr_15_1707,mian,2021.2.3,60.40365345458794,
H2,1,2,H,a,"[-0.2, 0.2]",,,,,,,,,,,,,,,,0,49,49,49,,,,,,,,,,,,,,,,,,,,,a,1,0.41468499999973574,,,,,,,,,,,,lth,m,22,2024_Apr_15_1707,mian,2021.2.3,60.40365345458794,
e9,2,1,9.0,a,"[-0.2, -0.2]",,,,,,,,,,,,,,,,0,50,50,50,,,,,,,,,,,,,,,,,,,,,a,1,2.7845862000003763,,,,,,,,,,,,lth,m,22,2024_Apr_15_1707,mian,2021.2.3,60.40365345458794,
2G,2,2,2.0,l,"[0.2, -0.2]",,,,,,,,,,,,,,,,0,51,51,51,,,,,,,,,,,,,,,,,,,,,l,1,0.6546249000002717,,,,,,,,,,,,lth,m,22,2024_Apr_15_1707,mian,2021.2.3,60.40365345458794,
4f,1,1,f,l,"[0.2, 0.2]",,,,,,,,,,,,,,,,0,52,52,52,,,,,,,,,,,,,,,,,,,,,l,1,1.7490984999994907,,,,,,,,,,,,lth,m,22,2024_Apr_15_1707,mian,2021.2.3,60.40365345458794,
H6,1,2,H,a,"[-0.2, 0.2]",,,,,,,,,,,,,,,,0,53,53,53,,,,,,,,,,,,,,,,,,,,,a,1,0.5613304000007702,,,,,,,,,,,,lth,m,22,2024_Apr_15_1707,mian,2021.2.3,60.40365345458794,
A4,2,1,4.0,l,"[-0.2, -0.2]",,,,,,,,,,,,,,,,0,54,54,54,,,,,,,,,,,,,,,,,,,,,l,1,2.3981886999999915,,,,,,,,,,,,lth,m,22,2024_Apr_15_1707,mian,2021.2.3,60.40365345458794,
3F,2,2,3.0,a,"[0.2, -0.2]",,,,,,,,,,,,,,,,0,55,55,55,,,,,,,,,,,,,,,,,,,,,a,1,0.7647703000002366,,,,,,,,,,,,lth,m,22,2024_Apr_15_1707,mian,2021.2.3,60.40365345458794,
7e,1,1,e,l,"[0.2, 0.2]",,,,,,,,,,,,,,,,0,56,56,56,,,,,,,,,,,,,,,,,,,,,a,0,3.1385155000007217,,,,,,,,,,,,lth,m,22,2024_Apr_15_1707,mian,2021.2.3,60.40365345458794,
F9,1,2,F,a,"[-0.2, 0.2]",,,,,,,,,,,,,,,,0,57,57,57,,,,,,,,,,,,,,,,,,,,,a,1,1.2993209999995088,,,,,,,,,,,,lth,m,22,2024_Apr_15_1707,mian,2021.2.3,60.40365345458794,
e2,2,1,2.0,l,"[-0.2, -0.2]",,,,,,,,,,,,,,,,0,58,58,58,,,,,,,,,,,,,,,,,,,,,l,1,0.9209454000001642,,,,,,,,,,,,lth,m,22,2024_Apr_15_1707,mian,2021.2.3,60.40365345458794,
5F,2,2,5.0,a,"[0.2, -0.2]",,,,,,,,,,,,,,,,0,59,59,59,,,,,,,,,,,,,,,,,,,,,a,1,1.4319361999996545,,,,,,,,,,,,lth,m,22,2024_Apr_15_1707,mian,2021.2.3,60.40365345458794,
f6,1,1,f,l,"[0.2, 0.2]",,,,,,,,,,,,,,,,0,60,60,60,,,,,,,,,,,,,,,,,,,,,l,1,3.577721699999529,,,,,,,,,,,,lth,m,22,2024_Apr_15_1707,mian,2021.2.3,60.40365345458794,
7G,1,2,G,a,"[-0.2, 0.2]",,,,,,,,,,,,,,,,0,61,61,61,,,,,,,,,,,,,,,,,,,,,a,1,0.8300559999997859,,,,,,,,,,,,lth,m,22,2024_Apr_15_1707,mian,2021.2.3,60.40365345458794,
e6,2,1,6.0,l,"[-0.2, -0.2]",,,,,,,,,,,,,,,,0,62,62,62,,,,,,,,,,,,,,,,,,,,,l,1,0.9169143999997686,,,,,,,,,,,,lth,m,22,2024_Apr_15_1707,mian,2021.2.3,60.40365345458794,
3G,2,2,3.0,a,"[0.2, -0.2]",,,,,,,,,,,,,,,,0,63,63,63,,,,,,,,,,,,,,,,,,,,,a,1,0.7304803000006359,,,,,,,,,,,,lth,m,22,2024_Apr_15_1707,mian,2021.2.3,60.40365345458794,
5E,1,1,E,a,"[0.2, 0.2]",,,,,,,,,,,,,,,,0,64,64,64,,,,,,,,,,,,,,,,,,,,,l,0,0.9556204000000434,,,,,,,,,,,,lth,m,22,2024_Apr_15_1707,mian,2021.2.3,60.40365345458794,
A6,1,2,A,a,"[-0.2, 0.2]",,,,,,,,,,,,,,,,0,65,65,65,,,,,,,,,,,,,,,,,,,,,a,1,1.4512552999995023,,,,,,,,,,,,lth,m,22,2024_Apr_15_1707,mian,2021.2.3,60.40365345458794,
E3,2,1,3.0,a,"[-0.2, -0.2]",,,,,,,,,,,,,,,,0,66,66,66,,,,,,,,,,,,,,,,,,,,,l,0,4.161762300000191,,,,,,,,,,,,lth,m,22,2024_Apr_15_1707,mian,2021.2.3,60.40365345458794,
2f,2,2,2.0,l,"[0.2, -0.2]",,,,,,,,,,,,,,,,0,67,67,67,,,,,,,,,,,,,,,,,,,,,l,1,2.15422480000052,,,,,,,,,,,,lth,m,22,2024_Apr_15_1707,mian,2021.2.3,60.40365345458794,
g3,1,1,g,l,"[0.2, 0.2]",,,,,,,,,,,,,,,,0,68,68,68,,,,,,,,,,,,,,,,,,,,,None,0,,,,,,,,,,,,,lth,m,22,2024_Apr_15_1707,mian,2021.2.3,60.40365345458794,
E8,1,2,E,a,"[-0.2, 0.2]",,,,,,,,,,,,,,,,0,69,69,69,,,,,,,,,,,,,,,,,,,,,a,1,0.5233533999999054,,,,,,,,,,,,lth,m,22,2024_Apr_15_1707,mian,2021.2.3,60.40365345458794,
6g,2,1,6.0,l,"[-0.2, -0.2]",,,,,,,,,,,,,,,,0,70,70,70,,,,,,,,,,,,,,,,,,,,,l,1,3.603212099999837,,,,,,,,,,,,lth,m,22,2024_Apr_15_1707,mian,2021.2.3,60.40365345458794,
5H,2,2,5.0,a,"[0.2, -0.2]",,,,,,,,,,,,,,,,0,71,71,71,,,,,,,,,,,,,,,,,,,,,a,1,1.089191199999732,,,,,,,,,,,,lth,m,22,2024_Apr_15_1707,mian,2021.2.3,60.40365345458794,
4A,1,1,A,a,"[0.2, 0.2]",,,,,,,,,,,,,,,,0,72,72,72,,,,,,,,,,,,,,,,,,,,,a,1,0.7557606000000305,,,,,,,,,,,,lth,m,22,2024_Apr_15_1707,mian,2021.2.3,60.40365345458794,
7F,1,2,F,a,"[-0.2, 0.2]",,,,,,,,,,,,,,,,0,73,73,73,,,,,,,,,,,,,,,,,,,,,None,0,,,,,,,,,,,,,lth,m,22,2024_Apr_15_1707,mian,2021.2.3,60.40365345458794,
6H,2,1,6.0,l,"[-0.2, -0.2]",,,,,,,,,,,,,,,,0,74,74,74,,,,,,,,,,,,,,,,,,,,,l,1,1.2582620000002862,,,,,,,,,,,,lth,m,22,2024_Apr_15_1707,mian,2021.2.3,60.40365345458794,
3a,2,2,3.0,a,"[0.2, -0.2]",,,,,,,,,,,,,,,,0,75,75,75,,,,,,,,,,,,,,,,,,,,,a,1,1.5178586000001815,,,,,,,,,,,,lth,m,22,2024_Apr_15_1707,mian,2021.2.3,60.40365345458794,
9F,1,1,F,a,"[0.2, 0.2]",,,,,,,,,,,,,,,,0,76,76,76,,,,,,,,,,,,,,,,,,,,,a,1,0.9544546000006449,,,,,,,,,,,,lth,m,22,2024_Apr_15_1707,mian,2021.2.3,60.40365345458794,
G7,1,2,G,a,"[-0.2, 0.2]",,,,,,,,,,,,,,,,0,77,77,77,,,,,,,,,,,,,,,,,,,,,a,1,0.5781886000004306,,,,,,,,,,,,lth,m,22,2024_Apr_15_1707,mian,2021.2.3,60.40365345458794,
a6,2,1,6.0,l,"[-0.2, -0.2]",,,,,,,,,,,,,,,,0,78,78,78,,,,,,,,,,,,,,,,,,,,,l,1,3.7057013999992705,,,,,,,,,,,,lth,m,22,2024_Apr_15_1707,mian,2021.2.3,60.40365345458794,
4h,2,2,4.0,l,"[0.2, -0.2]",,,,,,,,,,,,,,,,0,79,79,79,,,,,,,,,,,,,,,,,,,,,l,1,0.5747093999998469,,,,,,,,,,,,lth,m,22,2024_Apr_15_1707,mian,2021.2.3,60.40365345458794,
6A,1,1,A,a,"[0.2, 0.2]",,,,,,,,,,,,,,,,,,,,0,0,0,0,,,,,,,,,,,,,,,,,a,1,1.4720718999997189,,,,,,,,,,,,lth,m,22,2024_Apr_15_1707,mian,2021.2.3,60.40365345458794,
4H,1,2,H,a,"[-0.2, 0.2]",,,,,,,,,,,,,,,,,,,,0,1,1,1,,,,,,,,,,,,,,,,,a,1,0.6199451999991652,,,,,,,,,,,,lth,m,22,2024_Apr_15_1707,mian,2021.2.3,60.40365345458794,
3H,2,1,3.0,a,"[-0.2, -0.2]",,,,,,,,,,,,,,,,,,,,0,2,2,2,,,,,,,,,,,,,,,,,a,1,1.3421130999995512,,,,,,,,,,,,lth,m,22,2024_Apr_15_1707,mian,2021.2.3,60.40365345458794,
a9,2,2,9.0,a,"[0.2, -0.2]",,,,,,,,,,,,,,,,,,,,0,3,3,3,,,,,,,,,,,,,,,,,a,1,0.736547999999857,,,,,,,,,,,,lth,m,22,2024_Apr_15_1707,mian,2021.2.3,60.40365345458794,
E7,1,1,E,a,"[0.2, 0.2]",,,,,,,,,,,,,,,,,,,,0,4,4,4,,,,,,,,,,,,,,,,,a,1,0.8421301999997013,,,,,,,,,,,,lth,m,22,2024_Apr_15_1707,mian,2021.2.3,60.40365345458794,
6h,1,2,h,l,"[-0.2, 0.2]",,,,,,,,,,,,,,,,,,,,0,5,5,5,,,,,,,,,,,,,,,,,l,1,0.5011457000000519,,,,,,,,,,,,lth,m,22,2024_Apr_15_1707,mian,2021.2.3,60.40365345458794,
8A,2,1,8.0,l,"[-0.2, -0.2]",,,,,,,,,,,,,,,,,,,,0,6,6,6,,,,,,,,,,,,,,,,,l,1,1.2952899999991132,,,,,,,,,,,,lth,m,22,2024_Apr_15_1707,mian,2021.2.3,60.40365345458794,
f5,2,2,5.0,a,"[0.2, -0.2]",,,,,,,,,,,,,,,,,,,,0,7,7,7,,,,,,,,,,,,,,,,,a,1,0.47774870000012015,,,,,,,,,,,,lth,m,22,2024_Apr_15_1707,mian,2021.2.3,60.40365345458794,
2a,1,1,a,l,"[0.2, 0.2]",,,,,,,,,,,,,,,,,,,,0,8,8,8,,,,,,,,,,,,,,,,,l,1,2.754388299999846,,,,,,,,,,,,lth,m,22,2024_Apr_15_1707,mian,2021.2.3,60.40365345458794,
F7,1,2,F,a,"[-0.2, 0.2]",,,,,,,,,,,,,,,,,,,,0,9,9,9,,,,,,,,,,,,,,,,,a,1,0.5789190999994389,,,,,,,,,,,,lth,m,22,2024_Apr_15_1707,mian,2021.2.3,60.40365345458794,
h2,2,1,2.0,l,"[-0.2, -0.2]",,,,,,,,,,,,,,,,,,,,0,10,10,10,,,,,,,,,,,,,,,,,l,1,1.154341999999815,,,,,,,,,,,,lth,m,22,2024_Apr_15_1707,mian,2021.2.3,60.40365345458794,
F5,2,2,5.0,a,"[0.2, -0.2]",,,,,,,,,,,,,,,,,,,,0,11,11,11,,,,,,,,,,,,,,,,,a,1,0.4241099999999278,,,,,,,,,,,,lth,m,22,2024_Apr_15_1707,mian,2021.2.3,60.40365345458794,
A9,1,1,A,a,"[0.2, 0.2]",,,,,,,,,,,,,,,,,,,,0,12,12,12,,,,,,,,,,,,,,,,,a,1,0.9266207000000577,,,,,,,,,,,,lth,m,22,2024_Apr_15_1707,mian,2021.2.3,60.40365345458794,
3e,1,2,e,l,"[-0.2, 0.2]",,,,,,,,,,,,,,,,,,,,0,13,13,13,,,,,,,,,,,,,,,,,l,1,0.39133290000063425,,,,,,,,,,,,lth,m,22,2024_Apr_15_1707,mian,2021.2.3,60.40365345458794,
f8,2,1,8.0,l,"[-0.2, -0.2]",,,,,,,,,,,,,,,,,,,,0,14,14,14,,,,,,,,,,,,,,,,,l,1,1.044010000000526,,,,,,,,,,,,lth,m,22,2024_Apr_15_1707,mian,2021.2.3,60.40365345458794,
G2,2,2,2.0,l,"[0.2, -0.2]",,,,,,,,,,,,,,,,,,,,0,15,15,15,,,,,,,,,,,,,,,,,l,1,0.4689380000008896,,,,,,,,,,,,lth,m,22,2024_Apr_15_1707,mian,2021.2.3,60.40365345458794,
F2,1,1,F,a,"[0.2, 0.2]",,,,,,,,,,,,,,,,,,,,0,16,16,16,,,,,,,,,,,,,,,,,a,1,0.9692234000003737,,,,,,,,,,,,lth,m,22,2024_Apr_15_1707,mian,2021.2.3,60.40365345458794,
5e,1,2,e,l,"[-0.2, 0.2]",,,,,,,,,,,,,,,,,,,,0,17,17,17,,,,,,,,,,,,,,,,,l,1,0.6736107999995511,,,,,,,,,,,,lth,m,22,2024_Apr_15_1707,mian,2021.2.3,60.40365345458794,
A3,2,1,3.0,a,"[-0.2, -0.2]",,,,,,,,,,,,,,,,,,,,0,18,18,18,,,,,,,,,,,,,,,,,a,1,0.9773692999997365,,,,,,,,,,,,lth,m,22,2024_Apr_15_1707,mian,2021.2.3,60.40365345458794,
4g,2,2,4.0,l,"[0.2, -0.2]",,,,,,,,,,,,,,,,,,,,0,19,19,19,,,,,,,,,,,,,,,,,a,0,1.5281395000001794,,,,,,,,,,,,lth,m,22,2024_Apr_15_1707,mian,2021.2.3,60.40365345458794,
h7,1,1,h,l,"[0.2, 0.2]",,,,,,,,,,,,,,,,,,,,0,20,20,20,,,,,,,,,,,,,,,,,l,1,0.8118616000001566,,,,,,,,,,,,lth,m,22,2024_Apr_15_1707,mian,2021.2.3,60.40365345458794,
3g,1,2,g,l,"[-0.2, 0.2]",,,,,,,,,,,,,,,,,,,,0,21,21,21,,,,,,,,,,,,,,,,,l,1,0.6729499000002761,,,,,,,,,,,,lth,m,22,2024_Apr_15_1707,mian,2021.2.3,60.40365345458794,
8a,2,1,8.0,l,"[-0.2, -0.2]",,,,,,,,,,,,,,,,,,,,0,22,22,22,,,,,,,,,,,,,,,,,a,0,1.2676880999997593,,,,,,,,,,,,lth,m,22,2024_Apr_15_1707,mian,2021.2.3,60.40365345458794,
4E,2,2,4.0,l,"[0.2, -0.2]",,,,,,,,,,,,,,,,,,,,0,23,23,23,,,,,,,,,,,,,,,,,l,1,1.1575020000000222,,,,,,,,,,,,lth,m,22,2024_Apr_15_1707,mian,2021.2.3,60.40365345458794,
E5,1,1,E,a,"[0.2, 0.2]",,,,,,,,,,,,,,,,,,,,0,24,24,24,,,,,,,,,,,,,,,,,a,1,1.6534934000001158,,,,,,,,,,,,lth,m,22,2024_Apr_15_1707,mian,2021.2.3,60.40365345458794,
g6,1,2,g,l,"[-0.2, 0.2]",,,,,,,,,,,,,,,,,,,,0,25,25,25,,,,,,,,,,,,,,,,,l,1,0.4479164000003948,,,,,,,,,,,,lth,m,22,2024_Apr_15_1707,mian,2021.2.3,60.40365345458794,
2e,2,1,2.0,l,"[-0.2, -0.2]",,,,,,,,,,,,,,,,,,,,0,26,26,26,,,,,,,,,,,,,,,,,l,1,0.8870163999999932,,,,,,,,,,,,lth,m,22,2024_Apr_15_1707,mian,2021.2.3,60.40365345458794,
h8,2,2,8.0,l,"[0.2, -0.2]",,,,,,,,,,,,,,,,,,,,0,27,27,27,,,,,,,,,,,,,,,,,l,1,0.4640980000003765,,,,,,,,,,,,lth,m,22,2024_Apr_15_1707,mian,2021.2.3,60.40365345458794,
G6,1,1,G,a,"[0.2, 0.2]",,,,,,,,,,,,,,,,,,,,0,28,28,28,,,,,,,,,,,,,,,,,a,1,1.4986920000001192,,,,,,,,,,,,lth,m,22,2024_Apr_15_1707,mian,2021.2.3,60.40365345458794,
a4,1,2,a,l,"[-0.2, 0.2]",,,,,,,,,,,,,,,,,,,,0,29,29,29,,,,,,,,,,,,,,,,,l,1,0.5988607999997839,,,,,,,,,,,,lth,m,22,2024_Apr_15_1707,mian,2021.2.3,60.40365345458794,
9H,2,1,9.0,a,"[-0.2, -0.2]",,,,,,,,,,,,,,,,,,,,0,30,30,30,,,,,,,,,,,,,,,,,l,0,1.4078719999997702,,,,,,,,,,,,lth,m,22,2024_Apr_15_1707,mian,2021.2.3,60.40365345458794,
7H,2,2,7.0,a,"[0.2, -0.2]",,,,,,,,,,,,,,,,,,,,0,31,31,31,,,,,,,,,,,,,,,,,a,1,0.6290719999997236,,,,,,,,,,,,lth,m,22,2024_Apr_15_1707,mian,2021.2.3,60.40365345458794,
9f,1,1,f,l,"[0.2, 0.2]",,,,,,,,,,,,,,,,,,,,0,32,32,32,,,,,,,,,,,,,,,,,l,1,1.8789852999998402,,,,,,,,,,,,lth,m,22,2024_Apr_15_1707,mian,2021.2.3,60.40365345458794,
8E,1,2,E,a,"[-0.2, 0.2]",,,,,,,,,,,,,,,,,,,,0,33,33,33,,,,,,,,,,,,,,,,,a,1,0.5769150000005538,,,,,,,,,,,,lth,m,22,2024_Apr_15_1707,mian,2021.2.3,60.40365345458794,
A2,2,1,2.0,l,"[-0.2, -0.2]",,,,,,,,,,,,,,,,,,,,0,34,34,34,,,,,,,,,,,,,,,,,l,1,0.7504000000008091,,,,,,,,,,,,lth,m,22,2024_Apr_15_1707,mian,2021.2.3,60.40365345458794,
H7,2,2,7.0,a,"[0.2, -0.2]",,,,,,,,,,,,,,,,,,,,0,35,35,35,,,,,,,,,,,,,,,,,a,1,0.8057748000001084,,,,,,,,,,,,lth,m,22,2024_Apr_15_1707,mian,2021.2.3,60.40365345458794,
h9,1,1,h,l,"[0.2, 0.2]",,,,,,,,,,,,,,,,,,,,0,36,36,36,,,,,,,,,,,,,,,,,l,1,2.1591449000006833,,,,,,,,,,,,lth,m,22,2024_Apr_15_1707,mian,2021.2.3,60.40365345458794,
8G,1,2,G,a,"[-0.2, 0.2]",,,,,,,,,,,,,,,,,,,,0,37,37,37,,,,,,,,,,,,,,,,,a,1,0.751583600000231,,,,,,,,,,,,lth,m,22,2024_Apr_15_1707,mian,2021.2.3,60.40365345458794,
H4,2,1,4.0,l,"[-0.2, -0.2]",,,,,,,,,,,,,,,,,,,,0,38,38,38,,,,,,,,,,,,,,,,,l,1,1.9136478999998872,,,,,,,,,,,,lth,m,22,2024_Apr_15_1707,mian,2021.2.3,60.40365345458794,
A8,2,2,8.0,l,"[0.2, -0.2]",,,,,,,,,,,,,,,,,,,,0,39,39,39,,,,,,,,,,,,,,,,,l,1,0.34974330000022746,,,,,,,,,,,,lth,m,22,2024_Apr_15_1707,mian,2021.2.3,60.40365345458794,
g7,1,1,g,l,"[0.2, 0.2]",,,,,,,,,,,,,,,,,,,,0,40,40,40,,,,,,,,,,,,,,,,,l,1,0.8760785000004034,,,,,,,,,,,,lth,m,22,2024_Apr_15_1707,mian,2021.2.3,60.40365345458794,
H9,1,2,H,a,"[-0.2, 0.2]",,,,,,,,,,,,,,,,,,,,0,41,41,41,,,,,,,,,,,,,,,,,a,1,0.5676204999999754,,,,,,,,,,,,lth,m,22,2024_Apr_15_1707,mian,2021.2.3,60.40365345458794,
9E,2,1,9.0,a,"[-0.2, -0.2]",,,,,,,,,,,,,,,,,,,,0,42,42,42,,,,,,,,,,,,,,,,,a,1,1.0589558000001489,,,,,,,,,,,,lth,m,22,2024_Apr_15_1707,mian,2021.2.3,60.40365345458794,
a5,2,2,5.0,a,"[0.2, -0.2]",,,,,,,,,,,,,,,,,,,,0,43,43,43,,,,,,,,,,,,,,,,,a,1,2.9816737000001012,,,,,,,,,,,,lth,m,22,2024_Apr_15_1707,mian,2021.2.3,60.40365345458794,
3E,1,1,E,a,"[0.2, 0.2]",,,,,,,,,,,,,,,,,,,,0,44,44,44,,,,,,,,,,,,,,,,,l,0,0.9571421000000555,,,,,,,,,,,,lth,m,22,2024_Apr_15_1707,mian,2021.2.3,60.40365345458794,
6f,1,2,f,l,"[-0.2, 0.2]",,,,,,,,,,,,,,,,,,,,0,45,45,45,,,,,,,,,,,,,,,,,l,1,0.588782099999662,,,,,,,,,,,,lth,m,22,2024_Apr_15_1707,mian,2021.2.3,60.40365345458794,
g8,2,1,8.0,l,"[-0.2, -0.2]",,,,,,,,,,,,,,,,,,,,0,46,46,46,,,,,,,,,,,,,,,,,l,1,1.9143485000004148,,,,,,,,,,,,lth,m,22,2024_Apr_15_1707,mian,2021.2.3,60.40365345458794,
4F,2,2,4.0,l,"[0.2, -0.2]",,,,,,,,,,,,,,,,,,,,0,47,47,47,,,,,,,,,,,,,,,,,l,1,0.4018839999998818,,,,,,,,,,,,lth,m,22,2024_Apr_15_1707,mian,2021.2.3,60.40365345458794,
4a,1,1,a,l,"[0.2, 0.2]",,,,,,,,,,,,,,,,,,,,0,48,48,48,,,,,,,,,,,,,,,,,l,1,1.3282487999995283,,,,,,,,,,,,lth,m,22,2024_Apr_15_1707,mian,2021.2.3,60.40365345458794,
e3,1,2,e,l,"[-0.2, 0.2]",,,,,,,,,,,,,,,,,,,,0,49,49,49,,,,,,,,,,,,,,,,,l,1,0.4451489000002766,,,,,,,,,,,,lth,m,22,2024_Apr_15_1707,mian,2021.2.3,60.40365345458794,
5g,2,1,5.0,a,"[-0.2, -0.2]",,,,,,,,,,,,,,,,,,,,0,50,50,50,,,,,,,,,,,,,,,,,a,1,1.984329699999762,,,,,,,,,,,,lth,m,22,2024_Apr_15_1707,mian,2021.2.3,60.40365345458794,
f4,2,2,4.0,l,"[0.2, -0.2]",,,,,,,,,,,,,,,,,,,,0,51,51,51,,,,,,,,,,,,,,,,,l,1,0.49723379999977624,,,,,,,,,,,,lth,m,22,2024_Apr_15_1707,mian,2021.2.3,60.40365345458794,
6E,1,1,E,a,"[0.2, 0.2]",,,,,,,,,,,,,,,,,,,,0,52,52,52,,,,,,,,,,,,,,,,,l,0,0.6337995000003502,,,,,,,,,,,,lth,m,22,2024_Apr_15_1707,mian,2021.2.3,60.40365345458794,
7A,1,2,A,a,"[-0.2, 0.2]",,,,,,,,,,,,,,,,,,,,0,53,53,53,,,,,,,,,,,,,,,,,a,1,0.557478099999571,,,,,,,,,,,,lth,m,22,2024_Apr_15_1707,mian,2021.2.3,60.40365345458794,
F4,2,1,4.0,l,"[-0.2, -0.2]",,,,,,,,,,,,,,,,,,,,0,54,54,54,,,,,,,,,,,,,,,,,l,1,2.9646902000004047,,,,,,,,,,,,lth,m,22,2024_Apr_15_1707,mian,2021.2.3,60.40365345458794,
2g,2,2,2.0,l,"[0.2, -0.2]",,,,,,,,,,,,,,,,,,,,0,55,55,55,,,,,,,,,,,,,,,,,l,1,0.5529057000003377,,,,,,,,,,,,lth,m,22,2024_Apr_15_1707,mian,2021.2.3,60.40365345458794,
7E,1,1,E,a,"[0.2, 0.2]",,,,,,,,,,,,,,,,,,,,0,56,56,56,,,,,,,,,,,,,,,,,a,1,0.7379507000005106,,,,,,,,,,,,lth,m,22,2024_Apr_15_1707,mian,2021.2.3,60.40365345458794,
G4,1,2,G,a,"[-0.2, 0.2]",,,,,,,,,,,,,,,,,,,,0,57,57,57,,,,,,,,,,,,,,,,,a,1,0.472990999999638,,,,,,,,,,,,lth,m,22,2024_Apr_15_1707,mian,2021.2.3,60.40365345458794,
2F,2,1,2.0,l,"[-0.2, -0.2]",,,,,,,,,,,,,,,,,,,,0,58,58,58,,,,,,,,,,,,,,,,,l,1,0.6230315999991944,,,,,,,,,,,,lth,m,22,2024_Apr_15_1707,mian,2021.2.3,60.40365345458794,
E9,2,2,9.0,a,"[0.2, -0.2]",,,,,,,,,,,,,,,,,,,,0,59,59,59,,,,,,,,,,,,,,,,,a,1,0.6034638000000996,,,,,,,,,,,,lth,m,22,2024_Apr_15_1707,mian,2021.2.3,60.40365345458794,
5f,1,1,f,l,"[0.2, 0.2]",,,,,,,,,,,,,,,,,,,,0,60,60,60,,,,,,,,,,,,,,,,,l,1,0.941879500000141,,,,,,,,,,,,lth,m,22,2024_Apr_15_1707,mian,2021.2.3,60.40365345458794,
e7,1,2,e,l,"[-0.2, 0.2]",,,,,,,,,,,,,,,,,,,,0,61,61,61,,,,,,,,,,,,,,,,,l,1,1.4946972999996433,,,,,,,,,,,,lth,m,22,2024_Apr_15_1707,mian,2021.2.3,60.40365345458794,
f2,2,1,2.0,l,"[-0.2, -0.2]",,,,,,,,,,,,,,,,,,,,0,62,62,62,,,,,,,,,,,,,,,,,l,1,0.9398592000006829,,,,,,,,,,,,lth,m,22,2024_Apr_15_1707,mian,2021.2.3,60.40365345458794,
G9,2,2,9.0,a,"[0.2, -0.2]",,,,,,,,,,,,,,,,,,,,0,63,63,63,,,,,,,,,,,,,,,,,a,1,0.4797974000002796,,,,,,,,,,,,lth,m,22,2024_Apr_15_1707,mian,2021.2.3,60.40365345458794,
7g,1,1,g,l,"[0.2, 0.2]",,,,,,,,,,,,,,,,,,,,0,64,64,64,,,,,,,,,,,,,,,,,l,1,0.6165920000003098,,,,,,,,,,,,lth,m,22,2024_Apr_15_1707,mian,2021.2.3,60.40365345458794,
F8,1,2,F,a,"[-0.2, 0.2]",,,,,,,,,,,,,,,,,,,,0,65,65,65,,,,,,,,,,,,,,,,,a,1,0.5419335999995383,,,,,,,,,,,,lth,m,22,2024_Apr_15_1707,mian,2021.2.3,60.40365345458794,
A7,2,1,7.0,a,"[-0.2, -0.2]",,,,,,,,,,,,,,,,,,,,0,66,66,66,,,,,,,,,,,,,,,,,a,1,2.368518500000391,,,,,,,,,,,,lth,m,22,2024_Apr_15_1707,mian,2021.2.3,60.40365345458794,
4G,2,2,4.0,l,"[0.2, -0.2]",,,,,,,,,,,,,,,,,,,,0,67,67,67,,,,,,,,,,,,,,,,,l,1,0.6627637000001414,,,,,,,,,,,,lth,m,22,2024_Apr_15_1707,mian,2021.2.3,60.40365345458794,
g2,1,1,g,l,"[0.2, 0.2]",,,,,,,,,,,,,,,,,,,,0,68,68,68,,,,,,,,,,,,,,,,,a,0,1.957771700000194,,,,,,,,,,,,lth,m,22,2024_Apr_15_1707,mian,2021.2.3,60.40365345458794,
g4,1,2,g,l,"[-0.2, 0.2]",,,,,,,,,,,,,,,,,,,,0,69,69,69,,,,,,,,,,,,,,,,,l,1,0.6945269999996526,,,,,,,,,,,,lth,m,22,2024_Apr_15_1707,mian,2021.2.3,60.40365345458794,
7a,2,1,7.0,a,"[-0.2, -0.2]",,,,,,,,,,,,,,,,,,,,0,70,70,70,,,,,,,,,,,,,,,,,a,1,1.1898748000003252,,,,,,,,,,,,lth,m,22,2024_Apr_15_1707,mian,2021.2.3,60.40365345458794,
8e,2,2,8.0,l,"[0.2, -0.2]",,,,,,,,,,,,,,,,,,,,0,71,71,71,,,,,,,,,,,,,,,,,l,1,0.5458564000000479,,,,,,,,,,,,lth,m,22,2024_Apr_15_1707,mian,2021.2.3,60.40365345458794,
h4,1,1,h,l,"[0.2, 0.2]",,,,,,,,,,,,,,,,,,,,0,72,72,72,,,,,,,,,,,,,,,,,l,1,1.8721292999998695,,,,,,,,,,,,lth,m,22,2024_Apr_15_1707,mian,2021.2.3,60.40365345458794,
G8,1,2,G,a,"[-0.2, 0.2]",,,,,,,,,,,,,,,,,,,,0,73,73,73,,,,,,,,,,,,,,,,,a,1,0.5378473999999187,,,,,,,,,,,,lth,m,22,2024_Apr_15_1707,mian,2021.2.3,60.40365345458794,
6F,2,1,6.0,l,"[-0.2, -0.2]",,,,,,,,,,,,,,,,,,,,0,74,74,74,,,,,,,,,,,,,,,,,l,1,3.255704700000024,,,,,,,,,,,,lth,m,22,2024_Apr_15_1707,mian,2021.2.3,60.40365345458794,
g5,2,2,5.0,a,"[0.2, -0.2]",,,,,,,,,,,,,,,,,,,,0,75,75,75,,,,,,,,,,,,,,,,,a,1,0.5852961999999025,,,,,,,,,,,,lth,m,22,2024_Apr_15_1707,mian,2021.2.3,60.40365345458794,
G5,1,1,G,a,"[0.2, 0.2]",,,,,,,,,,,,,,,,,,,,0,76,76,76,,,,,,,,,,,,,,,,,a,1,1.380721800000174,,,,,,,,,,,,lth,m,22,2024_Apr_15_1707,mian,2021.2.3,60.40365345458794,
h5,1,2,h,l,"[-0.2, 0.2]",,,,,,,,,,,,,,,,,,,,0,77,77,77,,,,,,,,,,,,,,,,,l,1,0.42937889999939216,,,,,,,,,,,,lth,m,22,2024_Apr_15_1707,mian,2021.2.3,60.40365345458794,
9G,2,1,9.0,a,"[-0.2, -0.2]",,,,,,,,,,,,,,,,,,,,0,78,78,78,,,,,,,,,,,,,,,,,a,1,1.7581300000001647,,,,,,,,,,,,lth,m,22,2024_Apr_15_1707,mian,2021.2.3,60.40365345458794,
F3,2,2,3.0,a,"[0.2, -0.2]",,,,,,,,,,,,,,,,,,,,0,79,79,79,,,,,,,,,,,,,,,,,a,1,2.8469306000006327,,,,,,,,,,,,lth,m,22,2024_Apr_15_1707,mian,2021.2.3,60.40365345458794,
,,,,,,0,0,pic/flanker5.png,pic/flanker1.png,s,l,,,,,,,,,,,,,,,,,,0,0,0,0,0,0,0,3,,,,,,,,,,,,580.5903642000003,None,579.3921227999999,580.6066676999999,s,1,1.1009224000008544,悲观,l,1,1.1477193000000625,lth,m,22,2024_Apr_15_1707,mian,2021.2.3,60.40365345458794,
,,,,,,0,1,pic/flanker6.png,pic/flanker2.png,a,k,,,,,,,,,,,,,,,,,,0,0,0,0,0,1,1,2,,,,,,,,,,,,584.8094747000005,None,583.6255158000004,584.8262118000002,a,1,0.9524449999998978,俊秀,k,1,1.0353414000001067,lth,m,22,2024_Apr_15_1707,mian,2021.2.3,60.40365345458794,
,,,,,,1,1,pic/flanker5.png,pic/flanker3.png,a,k,,,,,,,,,,,,,,,,,,0,0,0,0,0,2,2,4,,,,,,,,,,,,588.6285164999999,None,587.4441386999997,588.6443429000001,a,1,1.2720580999994127,敬佩,k,1,1.2393656999993254,lth,m,22,2024_Apr_15_1707,mian,2021.2.3,60.40365345458794,
,,,,,,1,0,pic/flanker5.png,pic/flanker3.png,a,l,,,,,,,,,,,,,,,,,,0,0,0,0,0,3,3,7,,,,,,,,,,,,592.9631742000001,None,591.7791355999998,592.9803705000004,a,1,0.952965899999981,堵塞,l,1,1.2983402999998361,lth,m,22,2024_Apr_15_1707,mian,2021.2.3,60.40365345458794,
,,,,,,1,0,pic/flanker6.png,pic/flanker4.png,s,l,,,,,,,,,,,,,,,,,,0,0,0,0,0,4,4,5,,,,,,,,,,,,597.0993088000005,None,595.9149619,597.1158928000004,s,1,0.7714460999995936,损害,l,1,1.0257605999995576,lth,m,22,2024_Apr_15_1707,mian,2021.2.3,60.40365345458794,
,,,,,,1,1,pic/flanker6.png,pic/flanker4.png,s,k,,,,,,,,,,,,,,,,,,0,0,0,0,0,5,5,6,,,,,,,,,,,,600.7673139999997,None,599.5833759999996,600.7840507999999,s,1,0.9904751999993096,廉洁,k,1,1.041081700000177,lth,m,22,2024_Apr_15_1707,mian,2021.2.3,60.40365345458794,
,,,,,,0,0,pic/flanker6.png,pic/flanker2.png,a,l,,,,,,,,,,,,,,,,,,0,0,0,0,0,6,6,1,,,,,,,,,,,,604.6197247999999,None,603.4355339000003,604.6363203999999,a,1,0.45264399999996385,沮丧,l,1,0.7362466000004133,lth,m,22,2024_Apr_15_1707,mian,2021.2.3,60.40365345458794,
,,,,,,0,1,pic/flanker5.png,pic/flanker1.png,s,k,,,,,,,,,,,,,,,,,,0,0,0,0,0,7,7,0,,,,,,,,,,,,607.6879736999999,None,606.5038949999998,607.7050779000001,s,1,0.6019153999995979,羡慕,k,1,0.6197647999997571,lth,m,22,2024_Apr_15_1707,mian,2021.2.3,60.40365345458794,
,,,,,,,,,,,,,,,,,,,,,,,,,,,,,0,0,0,0,,,,,,,,,,,,,,,,,,,,,,,,,,,lth,m,22,2024_Apr_15_1707,mian,2021.2.3,60.40365345458794,
,,,,,,0,0,pic/flanker6.png,pic/flanker2.png,a,l,pic/AffRest1.png,,,,,,,,,,,,,,,,,,,,,,,,,0,0,0,0,0,0,0,17,,,,622.3120255000003,None,621.1135297000001,622.3287701999998,a,1,0.49850789999982226,争吵,l,1,0.8529367000001002,lth,m,22,2024_Apr_15_1707,mian,2021.2.3,60.40365345458794,
,,,,,,0,1,pic/flanker5.png,pic/flanker1.png,s,k,pic/AffRest1.png,,,,,,,,,,,,,,,,,,,,,,,,,0,0,0,0,0,1,1,48,,,,625.6971733999999,None,624.5131309999997,625.7133421999997,s,1,0.5074188999997205,鲜艳,k,1,0.5355273000004672,lth,m,22,2024_Apr_15_1707,mian,2021.2.3,60.40365345458794,
,,,,,,0,1,pic/flanker5.png,pic/flanker1.png,s,k,pic/AffRest1.png,,,,,,,,,,,,,,,,,,,,,,,,,0,0,0,0,0,2,2,64,,,,628.5653222999999,None,627.3815758000001,628.5820933000005,s,1,0.5056726000002527,雄厚,k,1,0.6531602999993993,lth,m,22,2024_Apr_15_1707,mian,2021.2.3,60.40365345458794,
,,,,,,1,0,pic/flanker6.png,pic/flanker4.png,s,l,pic/AffRest1.png,,,,,,,,,,,,,,,,,,,,,,,,,0,0,0,0,0,3,3,13,,,,631.7667880999998,None,630.5824764999998,631.7835935000003,s,1,0.5723775999995269,闷热,l,1,0.753081499999098,lth,m,22,2024_Apr_15_1707,mian,2021.2.3,60.40365345458794,
,,,,,,1,0,pic/flanker6.png,pic/flanker4.png,s,l,pic/AffRest1.png,,,,,,,,,,,,,,,,,,,,,,,,,0,0,0,0,0,4,4,53,,,,635.1181207999998,None,633.9337756000004,635.1349049,s,1,1.2325111000000106,怀疑,k,0,1.273861599999691,lth,m,22,2024_Apr_15_1707,mian,2021.2.3,60.40365345458794,
,,,,,,1,1,pic/flanker5.png,pic/flanker3.png,a,k,pic/AffRest1.png,,,,,,,,,,,,,,,,,,,,,,,,,0,0,0,0,0,5,5,52,,,,639.6536396000001,None,638.4726086999999,639.6877381000004,a,1,0.6259493999996266,丰满,k,1,0.861883300000045,lth,m,22,2024_Apr_15_1707,mian,2021.2.3,60.40365345458794,
,,,,,,1,0,pic/flanker5.png,pic/flanker3.png,a,l,pic/AffRest1.png,,,,,,,,,,,,,,,,,,,,,,,,,0,0,0,0,0,6,6,15,,,,643.0230094999997,None,641.8384867000004,643.0392007999999,a,1,0.7866138999997929,损害,l,1,0.636120099999971,lth,m,22,2024_Apr_15_1707,mian,2021.2.3,60.40365345458794,
,,,,,,1,0,pic/flanker5.png,pic/flanker3.png,a,l,pic/AffRest1.png,,,,,,,,,,,,,,,,,,,,,,,,,0,0,0,0,0,7,7,71,,,,646.2747903999998,None,645.0898293,646.2918142999997,a,1,0.6036294999994425,孤单,l,1,1.335151300000689,lth,m,22,2024_Apr_15_1707,mian,2021.2.3,60.40365345458794,
,,,,,,1,1,pic/flanker6.png,pic/flanker4.png,s,k,pic/AffRest1.png,,,,,,,,,,,,,,,,,,,,,,,,,0,0,0,0,0,8,8,6,,,,650.0930422000001,None,648.9088524999997,650.1092152000001,s,1,0.9851721000004545,廉洁,k,1,0.581324300000233,lth,m,22,2024_Apr_15_1707,mian,2021.2.3,60.40365345458794,
,,,,,,1,1,pic/flanker6.png,pic/flanker4.png,s,k,pic/AffRest1.png,,,,,,,,,,,,,,,,,,,,,,,,,0,0,0,0,0,9,9,70,,,,653.5449663999998,None,652.3606399,653.5613912999997,s,1,0.6587719000008292,留恋,l,0,1.358515200000511,lth,m,22,2024_Apr_15_1707,mian,2021.2.3,60.40365345458794,
,,,,,,1,0,pic/flanker5.png,pic/flanker3.png,a,l,pic/AffRest1.png,,,,,,,,,,,,,,,,,,,,,,,,,0,0,0,0,0,10,10,23,,,,657.4289607999999,None,656.2446481999996,657.4456608999999,a,1,0.5225424999998722,嘲笑,l,1,0.685996499999419,lth,m,22,2024_Apr_15_1707,mian,2021.2.3,60.40365345458794,
,,,,,,1,1,pic/flanker5.png,pic/flanker3.png,a,k,pic/AffRest1.png,,,,,,,,,,,,,,,,,,,,,,,,,0,0,0,0,0,11,11,28,,,,660.6816719999997,None,659.497292,660.6990422999997,a,1,0.4886870000000272,珍藏,k,1,0.576196400000299,lth,m,22,2024_Apr_15_1707,mian,2021.2.3,60.40365345458794,
,,,,,,1,0,pic/flanker6.png,pic/flanker4.png,s,l,pic/AffRest1.png,,,,,,,,,,,,,,,,,,,,,,,,,0,0,0,0,0,12,12,45,,,,663.5826716000001,None,662.3984502000003,663.6000671000002,s,1,0.6059040000000095,浪费,l,1,0.6003270999999586,lth,m,22,2024_Apr_15_1707,mian,2021.2.3,60.40365345458794,
,,,,,,1,0,pic/flanker6.png,pic/flanker4.png,s,l,pic/AffRest1.png,,,,,,,,,,,,,,,,,,,,,,,,,0,0,0,0,0,13,13,77,,,,666.7181111,None,665.5330522000004,666.7351503999998,s,1,0.8007905999993454,杂乱,l,1,0.7778225000001839,lth,m,22,2024_Apr_15_1707,mian,2021.2.3,60.40365345458794,
,,,,,,1,0,pic/flanker6.png,pic/flanker4.png,s,l,pic/AffRest1.png,,,,,,,,,,,,,,,,,,,,,,,,,0,0,0,0,0,14,14,5,,,,670.336069,None,669.1518666000002,670.3525031999998,s,1,0.4939637000006769,轻率,l,1,0.8670830000000933,lth,m,22,2024_Apr_15_1707,mian,2021.2.3,60.40365345458794,
,,,,,,0,0,pic/flanker5.png,pic/flanker1.png,s,l,pic/AffRest1.png,,,,,,,,,,,,,,,,,,,,,,,,,0,0,0,0,0,15,15,27,,,,673.5708001000003,None,672.3869574999999,673.5877262000004,s,1,0.37709410000024945,黑暗,l,1,0.6759342000004835,lth,m,22,2024_Apr_15_1707,mian,2021.2.3,60.40365345458794,
,,,,,,0,1,pic/flanker6.png,pic/flanker2.png,a,k,pic/AffRest1.png,,,,,,,,,,,,,,,,,,,,,,,,,0,0,0,0,0,16,16,26,,,,676.4732678999999,None,675.2890010000001,676.4891348000001,a,1,0.37164409999968484,生动,k,1,0.6326913000002605,lth,m,22,2024_Apr_15_1707,mian,2021.2.3,60.40365345458794,
,,,,,,0,1,pic/flanker5.png,pic/flanker1.png,s,k,pic/AffRest1.png,,,,,,,,,,,,,,,,,,,,,,,,,0,0,0,0,0,17,17,24,,,,679.4240897999998,None,678.2396230000004,679.4406207000002,s,1,0.43921510000018316,富足,k,1,0.49282839999978023,lth,m,22,2024_Apr_15_1707,mian,2021.2.3,60.40365345458794,
,,,,,,0,1,pic/flanker6.png,pic/flanker2.png,a,k,pic/AffRest1.png,,,,,,,,,,,,,,,,,,,,,,,,,0,0,0,0,0,18,18,50,,,,682.2252958999998,None,681.0415811000003,682.2420588000004,a,1,0.4507311999996091,舒畅,k,1,0.6924260999994658,lth,m,22,2024_Apr_15_1707,mian,2021.2.3,60.40365345458794,
,,,,,,0,1,pic/flanker6.png,pic/flanker2.png,a,k,pic/AffRest1.png,,,,,,,,,,,,,,,,,,,,,,,,,0,0,0,0,0,19,19,42,,,,685.3445499999998,None,684.1594752999999,685.3614901999999,a,1,0.2929676000003383,享受,k,1,0.7116283999994266,lth,m,22,2024_Apr_15_1707,mian,2021.2.3,60.40365345458794,
,,,,,,1,0,pic/flanker5.png,pic/flanker3.png,a,l,pic/AffRest1.png,,,,,,,,,,,,,,,,,,,,,,,,,0,0,0,0,0,20,20,79,,,,688.2795267000001,None,687.0943395000004,688.2963589000001,a,1,0.5462406999995437,烦恼,k,0,0.6911798999999519,lth,m,22,2024_Apr_15_1707,mian,2021.2.3,60.40365345458794,
,,,,,,0,0,pic/flanker5.png,pic/flanker1.png,s,l,pic/AffRest1.png,,,,,,,,,,,,,,,,,,,,,,,,,0,0,0,0,0,21,21,11,,,,691.4973866,None,690.3026952,691.5142532,s,1,1.0141478000005009,消沉,l,1,0.7946442000002207,lth,m,22,2024_Apr_15_1707,mian,2021.2.3,60.40365345458794,
,,,,,,0,0,pic/flanker5.png,pic/flanker1.png,s,l,pic/AffRest1.png,,,,,,,,,,,,,,,,,,,,,,,,,0,0,0,0,0,22,22,35,,,,695.2985363999996,None,694.1187762999998,695.3321112000003,s,1,0.3978085999997347,堵塞,l,1,0.80010029999994,lth,m,22,2024_Apr_15_1707,mian,2021.2.3,60.40365345458794,
,,,,,,1,0,pic/flanker5.png,pic/flanker3.png,a,l,pic/AffRest1.png,,,,,,,,,,,,,,,,,,,,,,,,,0,0,0,0,0,23,23,55,,,,698.3345233,None,697.1495088000001,698.3517787999999,a,1,0.6116738999999143,缺乏,l,1,0.7322531999998318,lth,m,22,2024_Apr_15_1707,mian,2021.2.3,60.40365345458794,
,,,,,,0,1,pic/flanker6.png,pic/flanker2.png,a,k,pic/AffRest1.png,,,,,,,,,,,,,,,,,,,,,,,,,0,0,0,0,0,24,24,2,,,,701.652497,None,700.4678832,701.6693432000002,a,1,0.3631304000000455,秀丽,k,1,0.5180626000001212,lth,m,22,2024_Apr_15_1707,mian,2021.2.3,60.40365345458794,
,,,,,,1,0,pic/flanker5.png,pic/flanker3.png,a,l,pic/AffRest1.png,,,,,,,,,,,,,,,,,,,,,,,,,0,0,0,0,0,25,25,7,,,,704.4707727000005,None,703.2868569000002,704.4874136999997,a,1,0.4891538000001674,穷苦,l,1,0.6390865999992457,lth,m,22,2024_Apr_15_1707,mian,2021.2.3,60.40365345458794,
,,,,,,0,1,pic/flanker5.png,pic/flanker1.png,s,k,pic/AffRest1.png,,,,,,,,,,,,,,,,,,,,,,,,,0,0,0,0,0,26,26,72,,,,707.4215529000003,None,706.2375524999998,707.4386075000002,s,1,0.6167567000002236,旺盛,k,1,0.5573036999994656,lth,m,22,2024_Apr_15_1707,mian,2021.2.3,60.40365345458794,
,,,,,,1,1,pic/flanker5.png,pic/flanker3.png,a,k,pic/AffRest1.png,,,,,,,,,,,,,,,,,,,,,,,,,0,0,0,0,0,27,27,4,,,,710.4069515000001,None,709.2224083000001,710.4243219999998,a,1,0.5090673999993669,豪放,k,1,0.7838050000000294,lth,m,22,2024_Apr_15_1707,mian,2021.2.3,60.40365345458794,
,,,,,,0,0,pic/flanker6.png,pic/flanker2.png,a,l,pic/AffRest1.png,,,,,,,,,,,,,,,,,,,,,,,,,0,0,0,0,0,28,28,25,,,,713.6082212000001,None,712.4240127000003,713.6243605999998,a,1,0.41181310000047233,厌恶,l,1,0.6586508999998841,lth,m,22,2024_Apr_15_1707,mian,2021.2.3,60.40365345458794,
,,,,,,0,0,pic/flanker6.png,pic/flanker2.png,a,l,pic/AffRest1.png,,,,,,,,,,,,,,,,,,,,,,,,,0,0,0,0,0,29,29,57,,,,716.5920567000003,None,715.4087992000004,716.6087736999998,a,1,0.3719496000003346,鲁莽,l,1,1.1322386000001643,lth,m,22,2024_Apr_15_1707,mian,2021.2.3,60.40365345458794,
,,,,,,0,1,pic/flanker6.png,pic/flanker2.png,a,k,pic/AffRest1.png,,,,,,,,,,,,,,,,,,,,,,,,,0,0,0,0,0,30,30,18,,,,720.1446925,None,718.9610579999999,720.1620327999999,a,1,0.35480850000021746,羡慕,k,1,0.699281900000642,lth,m,22,2024_Apr_15_1707,mian,2021.2.3,60.40365345458794,
,,,,,,1,0,pic/flanker5.png,pic/flanker3.png,a,l,pic/AffRest1.png,,,,,,,,,,,,,,,,,,,,,,,,,0,0,0,0,0,31,31,47,,,,723.1796640000002,None,721.9954245999998,723.1961898999998,a,1,0.5151918999999907,郁闷,l,1,0.6502377999995588,lth,m,22,2024_Apr_15_1707,mian,2021.2.3,60.40365345458794,
,,,,,,1,1,pic/flanker6.png,pic/flanker4.png,s,k,pic/AffRest1.png,,,,,,,,,,,,,,,,,,,,,,,,,0,0,0,0,0,32,32,38,,,,726.1639246000004,None,724.9827730999996,726.1977661999999,s,1,0.6136101000001872,俊秀,k,1,0.5470789999999397,lth,m,22,2024_Apr_15_1707,mian,2021.2.3,60.40365345458794,
,,,,,,0,0,pic/flanker5.png,pic/flanker1.png,s,l,pic/AffRest1.png,,,,,,,,,,,,,,,,,,,,,,,,,0,0,0,0,0,33,33,51,,,,729.2833739999996,None,728.0985038999997,729.3002847999996,s,1,0.4261043000005884,罚款,l,1,0.9494168000001082,lth,m,22,2024_Apr_15_1707,mian,2021.2.3,60.40365345458794,
,,,,,,0,0,pic/flanker5.png,pic/flanker1.png,s,l,pic/AffRest1.png,,,,,,,,,,,,,,,,,,,,,,,,,0,0,0,0,0,34,34,43,,,,732.5181150999997,None,731.3336853000001,732.5355275000002,s,1,0.588723700000628,懒惰,l,1,1.0921908999998777,lth,m,22,2024_Apr_15_1707,mian,2021.2.3,60.40365345458794,
,,,,,,1,0,pic/flanker6.png,pic/flanker4.png,s,l,pic/AffRest1.png,,,,,,,,,,,,,,,,,,,,,,,,,0,0,0,0,0,35,35,69,,,,736.1532754999998,None,734.9711263999998,736.1863132999997,s,1,0.5341034000002765,假冒,l,1,0.7049677000004522,lth,m,22,2024_Apr_15_1707,mian,2021.2.3,60.40365345458794,
,,,,,,0,0,pic/flanker5.png,pic/flanker1.png,s,l,pic/AffRest1.png,,,,,,,,,,,,,,,,,,,,,,,,,0,0,0,0,0,36,36,3,,,,739.4381906999997,None,738.2535808000002,739.4541404000001,s,1,0.5162168999995629,落后,l,1,0.6271793000005346,lth,m,22,2024_Apr_15_1707,mian,2021.2.3,60.40365345458794,
,,,,,,1,0,pic/flanker5.png,pic/flanker3.png,a,l,pic/AffRest1.png,,,,,,,,,,,,,,,,,,,,,,,,,0,0,0,0,0,37,37,63,,,,742.4564923999997,None,741.2722229000001,742.4733317,a,1,0.9505692000002455,悲观,l,1,0.5919727000000421,lth,m,22,2024_Apr_15_1707,mian,2021.2.3,60.40365345458794,
,,,,,,0,1,pic/flanker6.png,pic/flanker2.png,a,k,pic/AffRest1.png,,,,,,,,,,,,,,,,,,,,,,,,,0,0,0,0,0,38,38,58,,,,745.8743050000003,None,744.6901183,745.8911267000003,a,1,0.4594417999996949,畅销,k,1,1.040518200000406,lth,m,22,2024_Apr_15_1707,mian,2021.2.3,60.40365345458794,
,,,,,,1,1,pic/flanker5.png,pic/flanker3.png,a,k,pic/AffRest1.png,,,,,,,,,,,,,,,,,,,,,,,,,0,0,0,0,0,39,39,36,,,,749.3444276999999,None,748.1586096999999,749.3599709999999,a,1,0.7800860999996075,敬佩,k,1,0.538220999999794,lth,m,22,2024_Apr_15_1707,mian,2021.2.3,60.40365345458794,
,,,,,,1,1,pic/flanker5.png,pic/flanker3.png,a,k,pic/AffRest1.png,,,,,,,,,,,,,,,,,,,,,,,,,0,0,0,0,0,40,40,60,,,,752.6451053000001,None,751.4604580000005,752.6616768000004,a,1,0.45149039999978413,正直,k,1,0.5370702000000165,lth,m,22,2024_Apr_15_1707,mian,2021.2.3,60.40365345458794,
,,,,,,0,0,pic/flanker6.png,pic/flanker2.png,a,l,pic/AffRest1.png,,,,,,,,,,,,,,,,,,,,,,,,,0,0,0,0,0,41,41,65,,,,755.5137170999997,None,754.3285865999997,755.5303635999999,a,1,0.37958849999995437,撒谎,l,1,0.7847551999993811,lth,m,22,2024_Apr_15_1707,mian,2021.2.3,60.40365345458794,
,,,,,,0,0,pic/flanker5.png,pic/flanker1.png,s,l,pic/AffRest1.png,,,,,,,,,,,,,,,,,,,,,,,,,0,0,0,0,0,42,42,19,,,,758.5478721999998,None,757.3635431000002,758.5638713999997,s,1,0.4173436999999467,排斥,l,1,0.6505182999999306,lth,m,22,2024_Apr_15_1707,mian,2021.2.3,60.40365345458794,
,,,,,,0,1,pic/flanker6.png,pic/flanker2.png,a,k,pic/AffRest1.png,,,,,,,,,,,,,,,,,,,,,,,,,0,0,0,0,0,43,43,74,,,,761.4660964000004,None,760.2683457000003,761.4831305999996,a,1,0.3029086999995343,吉祥,k,1,0.6700313999999707,lth,m,22,2024_Apr_15_1707,mian,2021.2.3,60.40365345458794,
,,,,,,0,0,pic/flanker6.png,pic/flanker2.png,a,l,pic/AffRest1.png,,,,,,,,,,,,,,,,,,,,,,,,,0,0,0,0,0,44,44,49,,,,764.3672182999999,None,763.1836174999999,764.3844087999996,a,1,0.330647300000237,逃避,l,1,1.7179912999999942,lth,m,22,2024_Apr_15_1707,mian,2021.2.3,60.40365345458794,
,,,,,,0,0,pic/flanker6.png,pic/flanker2.png,a,l,pic/AffRest1.png,,,,,,,,,,,,,,,,,,,,,,,,,0,0,0,0,0,45,45,9,,,,768.3859855999999,None,767.2024680000004,768.4027022999999,a,1,0.4638077000008707,丢失,l,1,0.7983832999998413,lth,m,22,2024_Apr_15_1707,mian,2021.2.3,60.40365345458794,
,,,,,,0,1,pic/flanker5.png,pic/flanker1.png,s,k,pic/AffRest1.png,,,,,,,,,,,,,,,,,,,,,,,,,0,0,0,0,0,46,46,40,,,,771.6705664000001,None,770.4872971000004,771.6881789999998,s,1,0.5448040000001129,振作,k,1,0.5816076999999495,lth,m,22,2024_Apr_15_1707,mian,2021.2.3,60.40365345458794,
,,,,,,0,0,pic/flanker6.png,pic/flanker2.png,a,l,pic/AffRest1.png,,,,,,,,,,,,,,,,,,,,,,,,,0,0,0,0,0,47,47,1,,,,774.7729231000003,None,773.5886373000003,774.7898286,a,1,0.4208273000003828,失意,l,1,0.7654449999999997,lth,m,22,2024_Apr_15_1707,mian,2021.2.3,60.40365345458794,
,,,,,,1,1,pic/flanker5.png,pic/flanker3.png,a,k,pic/AffRest1.png,,,,,,,,,,,,,,,,,,,,,,,,,0,0,0,0,0,48,48,76,,,,777.9242235000002,None,776.7402026,777.9407247999998,a,1,0.5217154000001756,赞成,k,1,0.6710234000001947,lth,m,22,2024_Apr_15_1707,mian,2021.2.3,60.40365345458794,
,,,,,,1,1,pic/flanker5.png,pic/flanker3.png,a,k,pic/AffRest1.png,,,,,,,,,,,,,,,,,,,,,,,,,0,0,0,0,0,49,49,44,,,,780.9430087000001,None,779.7585618000003,780.9590737999997,a,1,0.5243634999997084,前进,k,1,0.5393006999993304,lth,m,22,2024_Apr_15_1707,mian,2021.2.3,60.40365345458794,
,,,,,,1,0,pic/flanker5.png,pic/flanker3.png,a,l,pic/AffRest1.png,,,,,,,,,,,,,,,,,,,,,,,,,0,0,0,0,0,50,50,39,,,,783.8782868999997,None,782.6927278000003,783.8945706000004,a,1,0.48287880000043515,慌忙,l,1,0.8970300000000861,lth,m,22,2024_Apr_15_1707,mian,2021.2.3,60.40365345458794,
,,,,,,0,0,pic/flanker6.png,pic/flanker2.png,a,l,pic/AffRest1.png,,,,,,,,,,,,,,,,,,,,,,,,,0,0,0,0,0,51,51,73,,,,787.2486005000001,None,786.0614427999999,787.2623024000004,a,1,0.4063907999998264,别扭,l,1,0.7603082000005088,lth,m,22,2024_Apr_15_1707,mian,2021.2.3,60.40365345458794,
,,,,,,0,1,pic/flanker6.png,pic/flanker2.png,a,k,pic/AffRest1.png,,,,,,,,,,,,,,,,,,,,,,,,,0,0,0,0,0,52,52,34,,,,790.4805245999996,None,789.2969534000003,790.4981630000002,a,1,0.3169953999995414,顽强,k,1,1.176886000000195,lth,m,22,2024_Apr_15_1707,mian,2021.2.3,60.40365345458794,
,,,,,,1,0,pic/flanker6.png,pic/flanker4.png,s,l,pic/AffRest1.png,,,,,,,,,,,,,,,,,,,,,,,,,0,0,0,0,0,53,53,37,,,,793.9163532000002,None,792.7327501,793.9326824999998,s,1,0.5376775999993697,伤心,l,1,0.6101441999999224,lth,m,22,2024_Apr_15_1707,mian,2021.2.3,60.40365345458794,
,,,,,,1,1,pic/flanker6.png,pic/flanker4.png,s,k,pic/AffRest1.png,,,,,,,,,,,,,,,,,,,,,,,,,0,0,0,0,0,54,54,30,,,,797.1007786999999,None,795.9167291000003,797.1174708999997,s,1,0.6126280999997107,爽朗,k,1,0.5390836999995372,lth,m,22,2024_Apr_15_1707,mian,2021.2.3,60.40365345458794,
,,,,,,1,1,pic/flanker6.png,pic/flanker4.png,s,k,pic/AffRest1.png,,,,,,,,,,,,,,,,,,,,,,,,,0,0,0,0,0,55,55,54,,,,800.0525927999997,None,798.8685185000004,800.0694120999997,s,1,0.5718943000001673,精致,k,1,0.5623879000004308,lth,m,22,2024_Apr_15_1707,mian,2021.2.3,60.40365345458794,
,,,,,,1,0,pic/flanker5.png,pic/flanker3.png,a,l,pic/AffRest1.png,,,,,,,,,,,,,,,,,,,,,,,,,0,0,0,0,0,56,56,31,,,,803.2206249000001,None,802.0364016000003,803.2372336999997,a,1,0.664912600000207,禁止,l,1,0.6218088999994507,lth,m,22,2024_Apr_15_1707,mian,2021.2.3,60.40365345458794,
,,,,,,1,1,pic/flanker6.png,pic/flanker4.png,s,k,pic/AffRest1.png,,,,,,,,,,,,,,,,,,,,,,,,,0,0,0,0,0,57,57,62,,,,806.3886109000005,None,805.2055034000005,806.4057431000001,s,1,0.5126123999998526,典雅,k,1,0.5344598000001497,lth,m,22,2024_Apr_15_1707,mian,2021.2.3,60.40365345458794,
,,,,,,1,1,pic/flanker6.png,pic/flanker4.png,s,k,pic/AffRest1.png,,,,,,,,,,,,,,,,,,,,,,,,,0,0,0,0,0,58,58,14,,,,809.3737871000003,None,808.1899388000002,809.3910655,s,1,0.6124310000004698,圣洁,k,1,0.5825676000004023,lth,m,22,2024_Apr_15_1707,mian,2021.2.3,60.40365345458794,
,,,,,,0,1,pic/flanker5.png,pic/flanker1.png,s,k,pic/AffRest1.png,,,,,,,,,,,,,,,,,,,,,,,,,0,0,0,0,0,59,59,0,,,,812.5446940000002,None,811.3583005999999,812.5592396000002,s,1,0.5179661000001943,公平,k,1,0.5216025999998237,lth,m,22,2024_Apr_15_1707,mian,2021.2.3,60.40365345458794,
,,,,,,1,0,pic/flanker6.png,pic/flanker4.png,s,l,pic/AffRest1.png,,,,,,,,,,,,,,,,,,,,,,,,,0,0,0,0,0,60,60,21,,,,815.6272922999997,None,814.4429587000004,815.6441169,s,1,0.7238494999992326,冷笑,l,1,0.7159131999997044,lth,m,22,2024_Apr_15_1707,mian,2021.2.3,60.40365345458794,
,,,,,,1,1,pic/flanker5.png,pic/flanker3.png,a,k,pic/AffRest1.png,,,,,,,,,,,,,,,,,,,,,,,,,0,0,0,0,0,61,61,20,,,,818.9445664000004,None,817.7609212999996,818.9622049,a,1,0.44957700000031764,充裕,k,1,0.62169780000022,lth,m,22,2024_Apr_15_1707,mian,2021.2.3,60.40365345458794,
,,,,,,0,0,pic/flanker5.png,pic/flanker1.png,s,l,pic/AffRest1.png,,,,,,,,,,,,,,,,,,,,,,,,,0,0,0,0,0,62,62,75,,,,821.8802255999999,None,820.6964230000003,821.8974028000002,s,1,0.5114471999995658,沮丧,l,1,0.9524379999993471,lth,m,22,2024_Apr_15_1707,mian,2021.2.3,60.40365345458794,
,,,,,,0,0,pic/flanker6.png,pic/flanker2.png,a,l,pic/AffRest1.png,,,,,,,,,,,,,,,,,,,,,,,,,0,0,0,0,0,63,63,41,,,,825.3655527999999,None,824.1812749000001,825.3821502999999,a,1,0.39492450000034296,忧虑,k,0,0.9003837000000203,lth,m,22,2024_Apr_15_1707,mian,2021.2.3,60.40365345458794,
,,,,,,1,1,pic/flanker6.png,pic/flanker4.png,s,k,pic/AffRest1.png,,,,,,,,,,,,,,,,,,,,,,,,,0,0,0,0,0,64,64,78,,,,828.5839140999997,None,827.402094,828.6193958000003,s,1,0.4971677000003183,有利,k,1,0.636330000000271,lth,m,22,2024_Apr_15_1707,mian,2021.2.3,60.40365345458794,
,,,,,,0,0,pic/flanker6.png,pic/flanker2.png,a,l,pic/AffRest1.png,,,,,,,,,,,,,,,,,,,,,,,,,0,0,0,0,0,65,65,33,,,,831.7519611999996,None,830.5674400999997,831.7687142000004,a,1,0.5101949999998396,焦躁,l,1,0.9508724999996048,lth,m,22,2024_Apr_15_1707,mian,2021.2.3,60.40365345458794,
,,,,,,1,1,pic/flanker5.png,pic/flanker3.png,a,k,pic/AffRest1.png,,,,,,,,,,,,,,,,,,,,,,,,,0,0,0,0,0,66,66,12,,,,835.0209887000001,None,833.8364006000002,835.0373459000002,a,1,0.5301533000001655,奉献,k,1,0.6150078000000576,lth,m,22,2024_Apr_15_1707,mian,2021.2.3,60.40365345458794,
,,,,,,1,1,pic/flanker6.png,pic/flanker4.png,s,k,pic/AffRest1.png,,,,,,,,,,,,,,,,,,,,,,,,,0,0,0,0,0,67,67,22,,,,838.0887517000001,None,836.9041847999997,838.1049732000001,s,1,0.49283850000028906,永恒,k,1,0.9543273999997837,lth,m,22,2024_Apr_15_1707,mian,2021.2.3,60.40365345458794,
,,,,,,0,0,pic/flanker5.png,pic/flanker1.png,s,l,pic/AffRest1.png,,,,,,,,,,,,,,,,,,,,,,,,,0,0,0,0,0,68,68,59,,,,841.5564912999998,None,840.3731799999996,841.5732017999999,s,1,0.41648540000005596,心慌,l,1,1.1310532999996212,lth,m,22,2024_Apr_15_1707,mian,2021.2.3,60.40365345458794,
,,,,,,0,1,pic/flanker5.png,pic/flanker1.png,s,k,pic/AffRest1.png,,,,,,,,,,,,,,,,,,,,,,,,,0,0,0,0,0,69,69,32,,,,844.9587761000003,None,843.7738624000003,844.974843,s,1,0.41451060000053985,富丽,k,1,0.5534642999991775,lth,m,22,2024_Apr_15_1707,mian,2021.2.3,60.40365345458794,
,,,,,,0,1,pic/flanker5.png,pic/flanker1.png,s,k,pic/AffRest1.png,,,,,,,,,,,,,,,,,,,,,,,,,0,0,0,0,0,70,70,56,,,,847.7597077999999,None,846.5755999000003,847.7766799999999,s,1,0.4278461000003517,清秀,k,1,0.5057079999996859,lth,m,22,2024_Apr_15_1707,mian,2021.2.3,60.40365345458794,
,,,,,,0,0,pic/flanker5.png,pic/flanker1.png,s,l,pic/AffRest1.png,,,,,,,,,,,,,,,,,,,,,,,,,0,0,0,0,0,71,71,67,,,,850.6323105000001,None,849.4437360000002,850.6445516000003,s,1,0.3715965999999753,自卑,l,1,0.6724099000002752,lth,m,22,2024_Apr_15_1707,mian,2021.2.3,60.40365345458794,
,,,,,,0,1,pic/flanker5.png,pic/flanker1.png,s,k,pic/AffRest1.png,,,,,,,,,,,,,,,,,,,,,,,,,0,0,0,0,0,72,72,8,,,,853.5633589999998,None,852.3781736999999,853.5799389000003,s,1,0.442479800000001,如愿,k,1,0.5811972999999853,lth,m,22,2024_Apr_15_1707,mian,2021.2.3,60.40365345458794,
,,,,,,1,0,pic/flanker6.png,pic/flanker4.png,s,l,pic/AffRest1.png,,,,,,,,,,,,,,,,,,,,,,,,,0,0,0,0,0,73,73,29,,,,856.4143479000004,None,855.2305698999999,856.4315342999998,s,1,0.5454965999997512,处罚,l,1,0.5838287999995373,lth,m,22,2024_Apr_15_1707,mian,2021.2.3,60.40365345458794,
,,,,,,0,1,pic/flanker6.png,pic/flanker2.png,a,k,pic/AffRest1.png,,,,,,,,,,,,,,,,,,,,,,,,,0,0,0,0,0,74,74,66,,,,859.4326491000002,None,858.2487818,859.4513502,a,1,0.33501890000025014,诚恳,k,1,0.7964189000003898,lth,m,22,2024_Apr_15_1707,mian,2021.2.3,60.40365345458794,
,,,,,,0,1,pic/flanker5.png,pic/flanker1.png,s,k,pic/AffRest1.png,,,,,,,,,,,,,,,,,,,,,,,,,0,0,0,0,0,75,75,16,,,,862.4510272999996,None,861.2672221000003,862.4679389000003,s,1,0.3327095000004192,热切,k,1,0.8900720999999976,lth,m,22,2024_Apr_15_1707,mian,2021.2.3,60.40365345458794,
,,,,,,0,1,pic/flanker6.png,pic/flanker2.png,a,k,pic/AffRest1.png,,,,,,,,,,,,,,,,,,,,,,,,,0,0,0,0,0,76,76,10,,,,865.5519743000004,None,864.3682829999998,865.5688802000004,a,1,0.3626734999998007,卓越,k,1,0.5562757999996393,lth,m,22,2024_Apr_15_1707,mian,2021.2.3,60.40365345458794,
,,,,,,1,0,pic/flanker6.png,pic/flanker4.png,s,l,pic/AffRest1.png,,,,,,,,,,,,,,,,,,,,,,,,,0,0,0,0,0,77,77,61,,,,868.4539272000002,None,867.2703087999998,868.4712428000003,s,1,0.536050100000466,胡涂,l,1,0.6123106000004555,lth,m,22,2024_Apr_15_1707,mian,2021.2.3,60.40365345458794,
,,,,,,1,1,pic/flanker6.png,pic/flanker4.png,s,k,pic/AffRest1.png,,,,,,,,,,,,,,,,,,,,,,,,,0,0,0,0,0,78,78,46,,,,871.6391617999998,None,870.4557492000004,871.6559335000002,s,1,0.5737538999992466,优雅,k,1,0.6645336999999927,lth,m,22,2024_Apr_15_1707,mian,2021.2.3,60.40365345458794,
,,,,,,1,1,pic/flanker5.png,pic/flanker3.png,a,k,pic/AffRest1.png,,,,,,,,,,,,,,,,,,,,,,,,,0,0,0,0,0,79,79,68,,,,874.7569933000004,None,873.5727360999999,874.7731715,a,1,0.6249022000001787,瑰丽,k,1,0.6071497000002637,lth,m,22,2024_Apr_15_1707,mian,2021.2.3,60.40365345458794,
,,,,,,,,,,,,pic/AffRest1.png,,,,,,,,,,,,,,,,,,,,,,,,,0,0,0,0,,,,,,,,,,,,,,,,,,,lth,m,22,2024_Apr_15_1707,mian,2021.2.3,60.40365345458794,
,,,,,,0,0,pic/flanker6.png,pic/flanker2.png,a,l,pic/AffRest2.png,,,,,,,,,,,,,,,,,,,,,,,,,0,1,1,1,0,0,0,25,,,,901.2368564999997,None,900.0533005999996,901.2535286000002,a,1,1.1192238000003272,烦恼,l,1,0.92111019999993,lth,m,22,2024_Apr_15_1707,mian,2021.2.3,60.40365345458794,
,,,,,,1,1,pic/flanker6.png,pic/flanker4.png,s,k,pic/AffRest2.png,,,,,,,,,,,,,,,,,,,,,,,,,0,1,1,1,0,1,1,54,,,,905.3564950999998,None,904.1713962000003,905.3723547999998,s,1,0.500217299999349,充裕,k,1,0.4836670000004233,lth,m,22,2024_Apr_15_1707,mian,2021.2.3,60.40365345458794,
,,,,,,1,1,pic/flanker6.png,pic/flanker4.png,s,k,pic/AffRest2.png,,,,,,,,,,,,,,,,,,,,,,,,,0,1,1,1,0,2,2,22,,,,908.2074909000003,None,907.0231653000001,908.2240289000001,s,1,0.5291636000001745,丰满,k,1,0.4899948000002041,lth,m,22,2024_Apr_15_1707,mian,2021.2.3,60.40365345458794,
,,,,,,1,1,pic/flanker5.png,pic/flanker3.png,a,k,pic/AffRest2.png,,,,,,,,,,,,,,,,,,,,,,,,,0,1,1,1,0,3,3,4,,,,911.2422020000004,None,910.0579779,911.2587234000002,a,1,0.9265707000004113,敬佩,k,1,0.5483094000001074,lth,m,22,2024_Apr_15_1707,mian,2021.2.3,60.40365345458794,
,,,,,,1,0,pic/flanker5.png,pic/flanker3.png,a,l,pic/AffRest2.png,,,,,,,,,,,,,,,,,,,,,,,,,0,1,1,1,0,4,4,39,,,,914.5103971999997,None,913.3264885999997,914.5271534000003,a,1,0.45615540000017063,懒惰,k,0,0.520056299999851,lth,m,22,2024_Apr_15_1707,mian,2021.2.3,60.40365345458794,
,,,,,,0,0,pic/flanker5.png,pic/flanker1.png,s,l,pic/AffRest2.png,,,,,,,,,,,,,,,,,,,,,,,,,0,1,1,1,0,5,5,19,,,,917.4116950999996,None,916.2276904,917.4285982000001,s,1,0.9781172000002698,闷热,l,1,1.270206799999869,lth,m,22,2024_Apr_15_1707,mian,2021.2.3,60.40365345458794,
,,,,,,0,0,pic/flanker5.png,pic/flanker1.png,s,l,pic/AffRest2.png,,,,,,,,,,,,,,,,,,,,,,,,,0,1,1,1,0,6,6,43,,,,921.6816658999996,None,920.4972619999999,921.6976278000002,s,1,0.5600224999998318,嘲笑,l,1,0.9172230000003765,lth,m,22,2024_Apr_15_1707,mian,2021.2.3,60.40365345458794,
,,,,,,0,0,pic/flanker5.png,pic/flanker1.png,s,l,pic/AffRest2.png,,,,,,,,,,,,,,,,,,,,,,,,,0,1,1,1,0,7,7,67,,,,925.1325065999999,None,923.9483843999997,925.1487176999999,s,1,0.6407058999993751,杂乱,l,1,0.6011588000001211,lth,m,22,2024_Apr_15_1707,mian,2021.2.3,60.40365345458794,
,,,,,,0,1,pic/flanker6.png,pic/flanker2.png,a,k,pic/AffRest2.png,,,,,,,,,,,,,,,,,,,,,,,,,0,1,1,1,0,8,8,58,,,,928.4012097000004,None,927.2167338999998,928.4174825999999,a,1,0.5380272000002151,珍藏,k,1,0.5030906000001778,lth,m,22,2024_Apr_15_1707,mian,2021.2.3,60.40365345458794,
,,,,,,1,1,pic/flanker6.png,pic/flanker4.png,s,k,pic/AffRest2.png,,,,,,,,,,,,,,,,,,,,,,,,,0,1,1,1,0,9,9,78,,,,931.3529283999997,None,930.1688062000003,931.3689873000003,s,1,0.5482584999999744,顽强,k,1,0.7911158999995678,lth,m,22,2024_Apr_15_1707,mian,2021.2.3,60.40365345458794,
,,,,,,0,1,pic/flanker5.png,pic/flanker1.png,s,k,pic/AffRest2.png,,,,,,,,,,,,,,,,,,,,,,,,,0,1,1,1,0,10,10,40,,,,934.6536581999999,None,933.4695830000001,934.6706554000002,s,1,0.3902060000000347,优雅,k,1,0.4279907000000094,lth,m,22,2024_Apr_15_1707,mian,2021.2.3,60.40365345458794,
,,,,,,1,1,pic/flanker5.png,pic/flanker3.png,a,k,pic/AffRest2.png,,,,,,,,,,,,,,,,,,,,,,,,,0,1,1,1,0,11,11,36,,,,937.4891539,None,936.3051103999996,937.5059262000004,a,1,0.4922863000001598,如愿,k,1,0.5076723000001948,lth,m,22,2024_Apr_15_1707,mian,2021.2.3,60.40365345458794,
,,,,,,0,1,pic/flanker6.png,pic/flanker2.png,a,k,pic/AffRest2.png,,,,,,,,,,,,,,,,,,,,,,,,,0,1,1,1,0,12,12,66,,,,940.4581475000005,None,939.2729362,940.4744970000002,a,1,0.4032984999994369,圣洁,k,1,0.4505321000006006,lth,m,22,2024_Apr_15_1707,mian,2021.2.3,60.40365345458794,
,,,,,,1,0,pic/flanker6.png,pic/flanker4.png,s,l,pic/AffRest2.png,,,,,,,,,,,,,,,,,,,,,,,,,0,1,1,1,0,13,13,5,,,,943.1422104000003,None,941.9576078999999,943.1591712,s,1,0.47689490000084334,自卑,l,1,0.5835888000001432,lth,m,22,2024_Apr_15_1707,mian,2021.2.3,60.40365345458794,
,,,,,,1,0,pic/flanker5.png,pic/flanker3.png,a,l,pic/AffRest2.png,,,,,,,,,,,,,,,,,,,,,,,,,0,1,1,1,0,14,14,47,,,,946.1771994999999,None,944.9924234999999,946.1936414000002,a,1,0.5424487999998746,忧虑,k,0,0.5650806000003286,lth,m,22,2024_Apr_15_1707,mian,2021.2.3,60.40365345458794,
,,,,,,0,1,pic/flanker6.png,pic/flanker2.png,a,k,pic/AffRest2.png,,,,,,,,,,,,,,,,,,,,,,,,,0,1,1,1,0,15,15,74,,,,949.2613733999997,None,948.0767118000003,949.2780074000002,a,1,0.3934846000001926,豪放,k,1,0.5018565000000308,lth,m,22,2024_Apr_15_1707,mian,2021.2.3,60.40365345458794,
,,,,,,0,0,pic/flanker5.png,pic/flanker1.png,s,l,pic/AffRest2.png,,,,,,,,,,,,,,,,,,,,,,,,,0,1,1,1,0,16,16,75,,,,952.0134617000003,None,950.8288371999997,952.0301276,s,1,0.5877436000000671,轻率,l,1,0.7316798000001654,lth,m,22,2024_Apr_15_1707,mian,2021.2.3,60.40365345458794,
,,,,,,1,0,pic/flanker6.png,pic/flanker4.png,s,l,pic/AffRest2.png,,,,,,,,,,,,,,,,,,,,,,,,,0,1,1,1,0,17,17,69,,,,955.3649842000004,None,954.1803307999999,955.3815311999997,s,1,0.45839429999978165,孤单,l,1,0.9142124999998487,lth,m,22,2024_Apr_15_1707,mian,2021.2.3,60.40365345458794,
,,,,,,1,0,pic/flanker5.png,pic/flanker3.png,a,l,pic/AffRest2.png,,,,,,,,,,,,,,,,,,,,,,,,,0,1,1,1,0,18,18,15,,,,958.5499926000002,None,957.3650483000001,958.5667378999997,a,1,0.49687230000017735,胡涂,l,1,0.8444758999994519,lth,m,22,2024_Apr_15_1707,mian,2021.2.3,60.40365345458794,
,,,,,,1,0,pic/flanker6.png,pic/flanker4.png,s,l,pic/AffRest2.png,,,,,,,,,,,,,,,,,,,,,,,,,0,1,1,1,0,19,19,77,,,,961.7354898000003,None,960.5512863000004,961.7522934999997,s,1,0.49646470000061527,厌恶,l,1,0.6724365000000034,lth,m,22,2024_Apr_15_1707,mian,2021.2.3,60.40365345458794,
,,,,,,1,1,pic/flanker5.png,pic/flanker3.png,a,k,pic/AffRest2.png,,,,,,,,,,,,,,,,,,,,,,,,,0,1,1,1,0,20,20,76,,,,964.8690360999999,None,963.6850336999996,964.8856758000002,a,1,0.5454286000003776,留恋,k,1,0.9093792000003305,lth,m,22,2024_Apr_15_1707,mian,2021.2.3,60.40365345458794,
,,,,,,1,0,pic/flanker6.png,pic/flanker4.png,s,l,pic/AffRest2.png,,,,,,,,,,,,,,,,,,,,,,,,,0,1,1,1,0,21,21,45,,,,968.3040081999998,None,967.1200288999999,968.3206455999998,s,1,0.5638824000006935,缺乏,l,1,0.5707481999997981,lth,m,22,2024_Apr_15_1707,mian,2021.2.3,60.40365345458794,
,,,,,,1,1,pic/flanker6.png,pic/flanker4.png,s,k,pic/AffRest2.png,,,,,,,,,,,,,,,,,,,,,,,,,0,1,1,1,0,22,22,62,,,,971.5056058,None,970.3216856999998,971.5222713000003,s,1,0.5254979000001185,俊秀,k,1,0.5572899999997389,lth,m,22,2024_Apr_15_1707,mian,2021.2.3,60.40365345458794,
,,,,,,1,1,pic/flanker6.png,pic/flanker4.png,s,k,pic/AffRest2.png,,,,,,,,,,,,,,,,,,,,,,,,,0,1,1,1,0,23,23,14,,,,974.4907245000004,None,973.3109200999997,974.5238774,s,1,0.5415221999992355,旺盛,k,1,0.5326139999997395,lth,m,22,2024_Apr_15_1707,mian,2021.2.3,60.40365345458794,
,,,,,,1,1,pic/flanker6.png,pic/flanker4.png,s,k,pic/AffRest2.png,,,,,,,,,,,,,,,,,,,,,,,,,0,1,1,1,0,24,24,70,,,,977.4429441000002,None,976.2580281,977.4599735000002,s,1,0.5913166000000274,吉祥,k,1,0.5180100999996284,lth,m,22,2024_Apr_15_1707,mian,2021.2.3,60.40365345458794,
,,,,,,0,1,pic/flanker5.png,pic/flanker1.png,s,k,pic/AffRest2.png,,,,,,,,,,,,,,,,,,,,,,,,,0,1,1,1,0,25,25,0,,,,980.5619710999999,None,979.3762405999996,980.5782001999996,s,1,0.4610666999997193,富丽,k,1,0.4270933999996487,lth,m,22,2024_Apr_15_1707,mian,2021.2.3,60.40365345458794,
,,,,,,0,0,pic/flanker6.png,pic/flanker2.png,a,l,pic/AffRest2.png,,,,,,,,,,,,,,,,,,,,,,,,,0,1,1,1,0,26,26,65,,,,983.3625695999999,None,982.1780268000002,983.3788203000004,a,1,0.4455662999998822,黑暗,l,1,0.5843917000001966,lth,m,22,2024_Apr_15_1707,mian,2021.2.3,60.40365345458794,
,,,,,,0,1,pic/flanker6.png,pic/flanker2.png,a,k,pic/AffRest2.png,,,,,,,,,,,,,,,,,,,,,,,,,0,1,1,1,0,27,27,10,,,,986.3641937000002,None,985.1798212000003,986.3810100999999,a,1,0.45143149999967136,精致,k,1,0.5296330999999554,lth,m,22,2024_Apr_15_1707,mian,2021.2.3,60.40365345458794,
,,,,,,1,1,pic/flanker5.png,pic/flanker3.png,a,k,pic/AffRest2.png,,,,,,,,,,,,,,,,,,,,,,,,,0,1,1,1,0,28,28,12,,,,989.2485022999999,None,988.0643364999996,989.2652759000002,a,1,0.5348196000004464,秀丽,k,1,0.5478063000000475,lth,m,22,2024_Apr_15_1707,mian,2021.2.3,60.40365345458794,
,,,,,,1,0,pic/flanker5.png,pic/flanker3.png,a,l,pic/AffRest2.png,,,,,,,,,,,,,,,,,,,,,,,,,0,1,1,1,0,29,29,63,,,,992.3668041000001,None,991.1826288000002,992.3839224000003,a,1,1.2191206999996211,郁闷,l,1,0.7222224999995888,lth,m,22,2024_Apr_15_1707,mian,2021.2.3,60.40365345458794,
,,,,,,1,0,pic/flanker5.png,pic/flanker3.png,a,l,pic/AffRest2.png,,,,,,,,,,,,,,,,,,,,,,,,,0,1,1,1,0,30,30,55,,,,996.2362923999999,None,995.0515775000003,996.2531018,a,1,0.6244599000001472,假冒,l,1,0.5819574999995893,lth,m,22,2024_Apr_15_1707,mian,2021.2.3,60.40365345458794,
,,,,,,0,0,pic/flanker6.png,pic/flanker2.png,a,l,pic/AffRest2.png,,,,,,,,,,,,,,,,,,,,,,,,,0,1,1,1,0,31,31,73,,,,999.4042651,None,998.2192900999999,999.4210271000002,a,1,0.49514649999946414,丢失,l,1,0.6295119999995222,lth,m,22,2024_Apr_15_1707,mian,2021.2.3,60.40365345458794,
,,,,,,1,1,pic/flanker6.png,pic/flanker4.png,s,k,pic/AffRest2.png,,,,,,,,,,,,,,,,,,,,,,,,,0,1,1,1,0,32,32,46,,,,1002.5215957999999,None,1001.3378548000001,1002.5384981999996,s,1,0.9905851000003167,热切,k,1,0.5190643000005366,lth,m,22,2024_Apr_15_1707,mian,2021.2.3,60.40365345458794,
,,,,,,0,1,pic/flanker5.png,pic/flanker1.png,s,k,pic/AffRest2.png,,,,,,,,,,,,,,,,,,,,,,,,,0,1,1,1,0,33,33,48,,,,1005.8573739000003,None,1004.6721913000001,1005.8740673000002,s,1,0.4519780999999057,廉洁,k,1,0.5265009999993708,lth,m,22,2024_Apr_15_1707,mian,2021.2.3,60.40365345458794,
,,,,,,0,0,pic/flanker6.png,pic/flanker2.png,a,l,pic/AffRest2.png,,,,,,,,,,,,,,,,,,,,,,,,,0,1,1,1,0,34,34,17,,,,1008.8597103000002,None,1007.6741972,1008.8756364000001,a,1,0.4046221999997215,慌忙,l,1,0.5520317999998952,lth,m,22,2024_Apr_15_1707,mian,2021.2.3,60.40365345458794,
,,,,,,1,1,pic/flanker5.png,pic/flanker3.png,a,k,pic/AffRest2.png,,,,,,,,,,,,,,,,,,,,,,,,,0,1,1,1,0,35,35,28,,,,1011.6264645000001,None,1010.4423663999996,1011.6438997000005,a,1,1.133347899999535,赞成,k,1,0.5735045000001264,lth,m,22,2024_Apr_15_1707,mian,2021.2.3,60.40365345458794,
,,,,,,0,1,pic/flanker5.png,pic/flanker1.png,s,k,pic/AffRest2.png,,,,,,,,,,,,,,,,,,,,,,,,,0,1,1,1,0,36,36,16,,,,1015.2450721000005,None,1014.0608818000001,1015.2621412999997,s,1,0.6387475999999879,雄厚,k,1,0.49260750000030384,lth,m,22,2024_Apr_15_1707,mian,2021.2.3,60.40365345458794,
,,,,,,0,1,pic/flanker6.png,pic/flanker2.png,a,k,pic/AffRest2.png,,,,,,,,,,,,,,,,,,,,,,,,,0,1,1,1,0,37,37,26,,,,1018.1805115999996,None,1016.9960001999998,1018.1967645000004,a,1,0.4930189999995491,卓越,k,1,0.674875300000167,lth,m,22,2024_Apr_15_1707,mian,2021.2.3,60.40365345458794,
,,,,,,1,0,pic/flanker6.png,pic/flanker4.png,s,l,pic/AffRest2.png,,,,,,,,,,,,,,,,,,,,,,,,,0,1,1,1,0,38,38,13,,,,1021.3657306000005,None,1020.1807928999997,1021.3816975,s,1,0.5047604999999749,禁止,l,1,0.6376847999999882,lth,m,22,2024_Apr_15_1707,mian,2021.2.3,60.40365345458794,
,,,,,,0,0,pic/flanker6.png,pic/flanker2.png,a,l,pic/AffRest2.png,,,,,,,,,,,,,,,,,,,,,,,,,0,1,1,1,0,39,39,41,,,,1024.3676471999997,None,1023.1822850999997,1024.3836122000002,a,1,0.3679631999993944,争吵,l,1,1.2650844999998299,lth,m,22,2024_Apr_15_1707,mian,2021.2.3,60.40365345458794,
,,,,,,1,1,pic/flanker5.png,pic/flanker3.png,a,k,pic/AffRest2.png,,,,,,,,,,,,,,,,,,,,,,,,,0,1,1,1,0,40,40,44,,,,1027.8187310000003,None,1026.6336823000001,1027.8352796999998,a,1,0.550351399999272,诚恳,k,1,0.7493555000000924,lth,m,22,2024_Apr_15_1707,mian,2021.2.3,60.40365345458794,
,,,,,,1,1,pic/flanker5.png,pic/flanker3.png,a,k,pic/AffRest2.png,,,,,,,,,,,,,,,,,,,,,,,,,0,1,1,1,0,41,41,20,,,,1031.0034585000003,None,1029.8189500999997,1031.0203911999997,a,1,0.4855945999997857,瑰丽,k,1,0.5151513999999224,lth,m,22,2024_Apr_15_1707,mian,2021.2.3,60.40365345458794,
,,,,,,0,0,pic/flanker6.png,pic/flanker2.png,a,l,pic/AffRest2.png,,,,,,,,,,,,,,,,,,,,,,,,,0,1,1,1,0,42,42,1,,,,1034.0054382999997,None,1032.8206492999998,1034.0220829999998,a,1,0.38160439999956,消沉,l,1,0.6528036999998221,lth,m,22,2024_Apr_15_1707,mian,2021.2.3,60.40365345458794,
,,,,,,0,0,pic/flanker6.png,pic/flanker2.png,a,l,pic/AffRest2.png,,,,,,,,,,,,,,,,,,,,,,,,,0,1,1,1,0,43,43,33,,,,1037.0566760000002,None,1035.8725341999998,1037.0734510000002,a,1,0.2810905999995157,排斥,l,1,0.7293431999996756,lth,m,22,2024_Apr_15_1707,mian,2021.2.3,60.40365345458794,
,,,,,,0,1,pic/flanker5.png,pic/flanker1.png,s,k,pic/AffRest2.png,,,,,,,,,,,,,,,,,,,,,,,,,0,1,1,1,0,44,44,56,,,,1039.9420902000002,None,1038.7570601999996,1039.9585243000001,s,1,0.5968474999999671,享受,k,1,0.4622295999997732,lth,m,22,2024_Apr_15_1707,mian,2021.2.3,60.40365345458794,
,,,,,,0,0,pic/flanker5.png,pic/flanker1.png,s,l,pic/AffRest2.png,,,,,,,,,,,,,,,,,,,,,,,,,0,1,1,1,0,45,45,3,,,,1042.8262836000004,None,1041.6413662000004,1042.8434994999998,s,1,0.6462282000002233,失意,l,1,0.6805254000000787,lth,m,22,2024_Apr_15_1707,mian,2021.2.3,60.40365345458794,
,,,,,,1,0,pic/flanker5.png,pic/flanker3.png,a,l,pic/AffRest2.png,,,,,,,,,,,,,,,,,,,,,,,,,0,1,1,1,0,46,46,31,,,,1046.1785269000002,None,1044.9938831999998,1046.1947811999999,a,1,0.7570244999997158,损害,l,1,0.6805555000000822,lth,m,22,2024_Apr_15_1707,mian,2021.2.3,60.40365345458794,
,,,,,,1,1,pic/flanker6.png,pic/flanker4.png,s,k,pic/AffRest2.png,,,,,,,,,,,,,,,,,,,,,,,,,0,1,1,1,0,47,47,6,,,,1049.6462926000004,None,1048.4624341999997,1049.6634632000005,s,1,0.5247902000000977,典雅,k,1,0.5663284000002022,lth,m,22,2024_Apr_15_1707,mian,2021.2.3,60.40365345458794,
,,,,,,1,0,pic/flanker6.png,pic/flanker4.png,s,l,pic/AffRest2.png,,,,,,,,,,,,,,,,,,,,,,,,,0,1,1,1,0,48,48,37,,,,1052.5488414000001,None,1051.3633960999996,1052.5651017,s,1,0.5423240999998598,沮丧,l,1,0.5616894999993747,lth,m,22,2024_Apr_15_1707,mian,2021.2.3,60.40365345458794,
,,,,,,0,1,pic/flanker5.png,pic/flanker1.png,s,k,pic/AffRest2.png,,,,,,,,,,,,,,,,,,,,,,,,,0,1,1,1,0,49,49,24,,,,1055.5828800999998,None,1054.3988301999998,1055.5994971,s,1,0.43367159999979776,正直,k,1,0.6039437999997972,lth,m,22,2024_Apr_15_1707,mian,2021.2.3,60.40365345458794,
,,,,,,0,0,pic/flanker6.png,pic/flanker2.png,a,l,pic/AffRest2.png,,,,,,,,,,,,,,,,,,,,,,,,,0,1,1,1,0,50,50,49,,,,1058.5842077999996,None,1057.3999046999998,1058.6006469000004,a,1,0.4325779999999213,处罚,l,1,0.5918526000004931,lth,m,22,2024_Apr_15_1707,mian,2021.2.3,60.40365345458794,
,,,,,,0,0,pic/flanker5.png,pic/flanker1.png,s,l,pic/AffRest2.png,,,,,,,,,,,,,,,,,,,,,,,,,0,1,1,1,0,51,51,11,,,,1061.4857975000004,None,1060.3014059999996,1061.5024144999998,s,1,0.41983559999971476,别扭,l,1,0.7959194999993997,lth,m,22,2024_Apr_15_1707,mian,2021.2.3,60.40365345458794,
,,,,,,0,1,pic/flanker6.png,pic/flanker2.png,a,k,pic/AffRest2.png,,,,,,,,,,,,,,,,,,,,,,,,,0,1,1,1,0,52,52,42,,,,1064.5033565000003,None,1063.3191094000003,1064.5199510000002,a,1,0.3533580000002985,舒畅,k,1,0.6068833999997878,lth,m,22,2024_Apr_15_1707,mian,2021.2.3,60.40365345458794,
,,,,,,0,1,pic/flanker5.png,pic/flanker1.png,s,k,pic/AffRest2.png,,,,,,,,,,,,,,,,,,,,,,,,,0,1,1,1,0,53,53,32,,,,1067.3215174999996,None,1066.1380422000002,1067.3385135999997,s,1,0.36392160000013973,爽朗,k,1,0.4797710000002553,lth,m,22,2024_Apr_15_1707,mian,2021.2.3,60.40365345458794,
,,,,,,0,0,pic/flanker6.png,pic/flanker2.png,a,l,pic/AffRest2.png,,,,,,,,,,,,,,,,,,,,,,,,,0,1,1,1,0,54,54,9,,,,1070.1734777000001,None,1068.9906591,1070.1902293000003,a,1,0.3731607999998232,穷苦,l,1,0.5738722999994934,lth,m,22,2024_Apr_15_1707,mian,2021.2.3,60.40365345458794,
,,,,,,0,1,pic/flanker5.png,pic/flanker1.png,s,k,pic/AffRest2.png,,,,,,,,,,,,,,,,,,,,,,,,,0,1,1,1,0,55,55,64,,,,1073.1247776,None,1071.9405319999996,1073.1410932,s,1,0.41292650000013964,振作,k,1,0.5087573000000702,lth,m,22,2024_Apr_15_1707,mian,2021.2.3,60.40365345458794,
,,,,,,0,1,pic/flanker6.png,pic/flanker2.png,a,k,pic/AffRest2.png,,,,,,,,,,,,,,,,,,,,,,,,,0,1,1,1,0,56,56,2,,,,1075.9097966999998,None,1074.7252854999997,1075.9270496,a,1,0.2836355999997977,公平,k,1,0.5995715000008204,lth,m,22,2024_Apr_15_1707,mian,2021.2.3,60.40365345458794,
,,,,,,0,1,pic/flanker6.png,pic/flanker2.png,a,k,pic/AffRest2.png,,,,,,,,,,,,,,,,,,,,,,,,,0,1,1,1,0,57,57,34,,,,1078.7786380999996,None,1077.5941068000002,1078.7952725000005,a,1,0.33823860000029526,清秀,k,1,0.6103771999996752,lth,m,22,2024_Apr_15_1707,mian,2021.2.3,60.40365345458794,
,,,,,,1,1,pic/flanker5.png,pic/flanker3.png,a,k,pic/AffRest2.png,,,,,,,,,,,,,,,,,,,,,,,,,0,1,1,1,0,58,58,52,,,,1081.5967443,None,1080.4110254999996,1081.6131054999996,a,1,0.696836600000097,鲜艳,k,1,0.5068676999999298,lth,m,22,2024_Apr_15_1707,mian,2021.2.3,60.40365345458794,
,,,,,,0,0,pic/flanker5.png,pic/flanker1.png,s,l,pic/AffRest2.png,,,,,,,,,,,,,,,,,,,,,,,,,0,1,1,1,0,59,59,27,,,,1084.6638689000001,None,1083.4799233000003,1084.6809826999997,s,1,0.5064152999993894,鲁莽,l,1,0.8150711999996929,lth,m,22,2024_Apr_15_1707,mian,2021.2.3,60.40365345458794,
,,,,,,0,0,pic/flanker5.png,pic/flanker1.png,s,l,pic/AffRest2.png,,,,,,,,,,,,,,,,,,,,,,,,,0,1,1,1,0,60,60,51,,,,1087.7992167000002,None,1086.6138088999996,1087.8157901000004,s,1,0.5542192999992039,罚款,l,1,0.5847835000004125,lth,m,22,2024_Apr_15_1707,mian,2021.2.3,60.40365345458794,
,,,,,,1,0,pic/flanker5.png,pic/flanker3.png,a,l,pic/AffRest2.png,,,,,,,,,,,,,,,,,,,,,,,,,0,1,1,1,0,61,61,71,,,,1090.7673762000004,None,1089.5833069,1090.7841096000002,a,1,0.637485000000197,冷笑,l,1,0.6110742000000755,lth,m,22,2024_Apr_15_1707,mian,2021.2.3,60.40365345458794,
,,,,,,1,1,pic/flanker6.png,pic/flanker4.png,s,k,pic/AffRest2.png,,,,,,,,,,,,,,,,,,,,,,,,,0,1,1,1,0,62,62,38,,,,1094.0355105999997,None,1092.8509990000002,1094.0523002,s,1,0.5615727999993396,永恒,k,1,0.636762500000259,lth,m,22,2024_Apr_15_1707,mian,2021.2.3,60.40365345458794,
,,,,,,1,0,pic/flanker6.png,pic/flanker4.png,s,l,pic/AffRest2.png,,,,,,,,,,,,,,,,,,,,,,,,,0,1,1,1,0,63,63,21,,,,1097.2039727000001,None,1096.0192948000004,1097.2201771999999,s,1,0.5067775999996229,怀疑,l,1,0.541089500000453,lth,m,22,2024_Apr_15_1707,mian,2021.2.3,60.40365345458794,
,,,,,,1,0,pic/flanker6.png,pic/flanker4.png,s,l,pic/AffRest2.png,,,,,,,,,,,,,,,,,,,,,,,,,0,1,1,1,0,64,64,53,,,,1100.1561815000005,None,1098.9707175000003,1100.1726942000005,s,1,0.6225131999999576,浪费,l,1,0.6919434000001274,lth,m,22,2024_Apr_15_1707,mian,2021.2.3,60.40365345458794,
,,,,,,0,1,pic/flanker5.png,pic/flanker1.png,s,k,pic/AffRest2.png,,,,,,,,,,,,,,,,,,,,,,,,,0,1,1,1,0,65,65,8,,,,1103.4239974000002,None,1102.2393924999997,1103.4409122999996,s,1,0.43826830000034533,前进,k,1,0.5387633999998798,lth,m,22,2024_Apr_15_1707,mian,2021.2.3,60.40365345458794,
,,,,,,0,0,pic/flanker5.png,pic/flanker1.png,s,l,pic/AffRest2.png,,,,,,,,,,,,,,,,,,,,,,,,,0,1,1,1,0,66,66,59,,,,1106.375438,None,1105.1907191,1106.3920469000004,s,1,0.3202186000007714,逃避,l,1,0.5233874000005017,lth,m,22,2024_Apr_15_1707,mian,2021.2.3,60.40365345458794,
,,,,,,1,0,pic/flanker5.png,pic/flanker3.png,a,l,pic/AffRest2.png,,,,,,,,,,,,,,,,,,,,,,,,,0,1,1,1,0,67,67,7,,,,1109.1274655999996,None,1107.9426469999999,1109.1441568999999,a,1,1.0680218999996214,焦躁,l,1,0.744774800000414,lth,m,22,2024_Apr_15_1707,mian,2021.2.3,60.40365345458794,
,,,,,,1,0,pic/flanker6.png,pic/flanker4.png,s,l,pic/AffRest2.png,,,,,,,,,,,,,,,,,,,,,,,,,0,1,1,1,0,68,68,61,,,,1112.9122607999998,None,1111.7275004000003,1112.9286825999998,s,1,0.5091647999997804,伤心,l,1,0.5197744999995848,lth,m,22,2024_Apr_15_1707,mian,2021.2.3,60.40365345458794,
,,,,,,0,1,pic/flanker5.png,pic/flanker1.png,s,k,pic/AffRest2.png,,,,,,,,,,,,,,,,,,,,,,,,,0,1,1,1,0,69,69,72,,,,1115.7631732,None,1114.5788400000001,1115.7801704000003,s,1,0.5689046999996208,畅销,k,1,0.5317029000007096,lth,m,22,2024_Apr_15_1707,mian,2021.2.3,60.40365345458794,
,,,,,,1,1,pic/flanker5.png,pic/flanker3.png,a,k,pic/AffRest2.png,,,,,,,,,,,,,,,,,,,,,,,,,0,1,1,1,0,70,70,60,,,,1118.8652264000002,None,1117.680378,1118.8825503999997,a,1,0.7505474999998114,羡慕,k,1,0.6343250999998418,lth,m,22,2024_Apr_15_1707,mian,2021.2.3,60.40365345458794,
,,,,,,1,1,pic/flanker5.png,pic/flanker3.png,a,k,pic/AffRest2.png,,,,,,,,,,,,,,,,,,,,,,,,,0,1,1,1,0,71,71,68,,,,1122.1168270999997,None,1120.9320484,1122.1334194,a,1,0.46883470000011584,有利,k,1,0.47992919999978767,lth,m,22,2024_Apr_15_1707,mian,2021.2.3,60.40365345458794,
,,,,,,1,0,pic/flanker5.png,pic/flanker3.png,a,l,pic/AffRest2.png,,,,,,,,,,,,,,,,,,,,,,,,,0,1,1,1,0,72,72,23,,,,1125.0682466999997,None,1123.8835013999997,1125.0845467,a,1,0.49241710000023886,心慌,l,1,0.5476194000002579,lth,m,22,2024_Apr_15_1707,mian,2021.2.3,60.40365345458794,
,,,,,,1,0,pic/flanker6.png,pic/flanker4.png,s,l,pic/AffRest2.png,,,,,,,,,,,,,,,,,,,,,,,,,0,1,1,1,0,73,73,29,,,,1128.0529211000003,None,1126.8686970999997,1128.0697115000003,s,1,0.5083504000003813,堵塞,l,1,0.5008239999997386,lth,m,22,2024_Apr_15_1707,mian,2021.2.3,60.40365345458794,
,,,,,,0,0,pic/flanker5.png,pic/flanker1.png,s,l,pic/AffRest2.png,,,,,,,,,,,,,,,,,,,,,,,,,0,1,1,1,0,74,74,35,,,,1131.0212591,None,1129.8366771,1131.0378975000003,s,1,0.5169120999998995,撒谎,l,1,0.6447979000004125,lth,m,22,2024_Apr_15_1707,mian,2021.2.3,60.40365345458794,
,,,,,,1,0,pic/flanker5.png,pic/flanker3.png,a,l,pic/AffRest2.png,,,,,,,,,,,,,,,,,,,,,,,,,0,1,1,1,0,75,75,79,,,,1133.9888371999996,None,1132.8050696999999,1134.0060537,a,1,0.41409420000036334,悲观,l,1,0.5991340000000491,lth,m,22,2024_Apr_15_1707,mian,2021.2.3,60.40365345458794,
,,,,,,1,1,pic/flanker6.png,pic/flanker4.png,s,k,pic/AffRest2.png,,,,,,,,,,,,,,,,,,,,,,,,,0,1,1,1,0,76,76,30,,,,1136.8909646000002,None,1135.7065464999996,1136.9076696000002,s,1,0.5119444000001749,富足,k,1,0.5569089000000531,lth,m,22,2024_Apr_15_1707,mian,2021.2.3,60.40365345458794,
,,,,,,0,1,pic/flanker6.png,pic/flanker2.png,a,k,pic/AffRest2.png,,,,,,,,,,,,,,,,,,,,,,,,,0,1,1,1,0,77,77,18,,,,1139.876405,None,1138.6919917000005,1139.8929234999996,a,1,0.3971559999999954,奉献,k,1,0.5100812000000587,lth,m,22,2024_Apr_15_1707,mian,2021.2.3,60.40365345458794,
,,,,,,0,0,pic/flanker6.png,pic/flanker2.png,a,l,pic/AffRest2.png,,,,,,,,,,,,,,,,,,,,,,,,,0,1,1,1,0,78,78,57,,,,1142.6943308999998,None,1141.5098109,1142.7105739999997,a,1,0.3582661000000371,落后,l,1,0.5244321999998647,lth,m,22,2024_Apr_15_1707,mian,2021.2.3,60.40365345458794,
,,,,,,0,1,pic/flanker6.png,pic/flanker2.png,a,k,pic/AffRest2.png,,,,,,,,,,,,,,,,,,,,,,,,,0,1,1,1,0,79,79,50,,,,1145.4285074,None,1144.2439526999997,1145.4464717,a,1,0.4231957000001785,生动,k,1,0.5820597000001726,lth,m,22,2024_Apr_15_1707,mian,2021.2.3,60.40365345458794,
,,,,,,,,,,,,pic/AffRest2.png,,,,,,,,,,,,,,,,,,,,,,,,,0,1,1,1,,,,,,,,,,,,,,,,,,,lth,m,22,2024_Apr_15_1707,mian,2021.2.3,60.40365345458794,
,,,,,,1,0,pic/flanker5.png,pic/flanker3.png,a,l,pic/AffRest3.png,,,,,,,,,,,,,,,,,,,,,,,,,0,2,2,2,0,0,0,23,,,,1169.0742068999998,None,1167.8837716999997,1169.0902331999996,a,1,0.4671158999999534,排斥,l,1,0.5278346000004603,lth,m,22,2024_Apr_15_1707,mian,2021.2.3,60.40365345458794,
,,,,,,1,0,pic/flanker5.png,pic/flanker3.png,a,l,pic/AffRest3.png,,,,,,,,,,,,,,,,,,,,,,,,,0,2,2,2,0,1,1,31,,,,1172.0421444000003,None,1170.8581780000004,1172.0588464000002,a,1,0.5935491000000184,穷苦,l,1,0.4188871000005747,lth,m,22,2024_Apr_15_1707,mian,2021.2.3,60.40365345458794,
,,,,,,1,0,pic/flanker5.png,pic/flanker3.png,a,l,pic/AffRest3.png,,,,,,,,,,,,,,,,,,,,,,,,,0,2,2,2,0,2,2,7,,,,1174.9264259000001,None,1173.7424956000004,1174.943056,a,1,0.5149805000000924,落后,l,1,0.40867749999961234,lth,m,22,2024_Apr_15_1707,mian,2021.2.3,60.40365345458794,
,,,,,,0,1,pic/flanker5.png,pic/flanker1.png,s,k,pic/AffRest3.png,,,,,,,,,,,,,,,,,,,,,,,,,0,2,2,2,0,3,3,24,,,,1177.8615186999996,None,1176.6771208,1177.8785043999997,s,1,0.3633031999997911,雄厚,k,1,0.607139300000199,lth,m,22,2024_Apr_15_1707,mian,2021.2.3,60.40365345458794,
,,,,,,1,0,pic/flanker6.png,pic/flanker4.png,s,l,pic/AffRest3.png,,,,,,,,,,,,,,,,,,,,,,,,,0,2,2,2,0,4,4,45,,,,1180.7299366999996,None,1179.5463464000004,1180.7470519999997,s,1,0.5132937999997012,烦恼,l,1,0.5268967000001794,lth,m,22,2024_Apr_15_1707,mian,2021.2.3,60.40365345458794,
,,,,,,0,1,pic/flanker6.png,pic/flanker2.png,a,k,pic/AffRest3.png,,,,,,,,,,,,,,,,,,,,,,,,,0,2,2,2,0,5,5,74,,,,1183.6815195999998,None,1182.496814,1183.6984244000005,a,1,0.3100875999998607,典雅,k,1,0.48682949999965786,lth,m,22,2024_Apr_15_1707,mian,2021.2.3,60.40365345458794,
,,,,,,1,0,pic/flanker5.png,pic/flanker3.png,a,l,pic/AffRest3.png,,,,,,,,,,,,,,,,,,,,,,,,,0,2,2,2,0,6,6,79,,,,1186.4999884,None,1185.3150376000003,1186.5164947000003,a,1,0.4130929000002652,怀疑,l,1,0.5587039000001823,lth,m,22,2024_Apr_15_1707,mian,2021.2.3,60.40365345458794,
,,,,,,0,0,pic/flanker5.png,pic/flanker1.png,s,l,pic/AffRest3.png,,,,,,,,,,,,,,,,,,,,,,,,,0,2,2,2,0,7,7,11,,,,1189.3504488999997,None,1188.1664179,1189.3674231000005,s,1,0.4477437999994436,消沉,l,1,0.5559509999993679,lth,m,22,2024_Apr_15_1707,mian,2021.2.3,60.40365345458794,
,,,,,,1,0,pic/flanker5.png,pic/flanker3.png,a,l,pic/AffRest3.png,,,,,,,,,,,,,,,,,,,,,,,,,0,2,2,2,0,8,8,15,,,,1192.2361664,None,1191.0512013999996,1192.2531706,a,1,0.49205350000011094,罚款,l,1,0.38263329999972484,lth,m,22,2024_Apr_15_1707,mian,2021.2.3,60.40365345458794,
,,,,,,0,1,pic/flanker5.png,pic/flanker1.png,s,k,pic/AffRest3.png,,,,,,,,,,,,,,,,,,,,,,,,,0,2,2,2,0,9,9,8,,,,1195.1371288999999,None,1193.9531133,1195.153343,s,1,0.36579210000036255,如愿,k,1,0.5895550999994157,lth,m,22,2024_Apr_15_1707,mian,2021.2.3,60.40365345458794,
,,,,,,1,0,pic/flanker6.png,pic/flanker4.png,s,l,pic/AffRest3.png,,,,,,,,,,,,,,,,,,,,,,,,,0,2,2,2,0,10,10,77,,,,1197.9054714000004,None,1196.7204856999997,1197.9221666000003,s,1,0.5857796000000235,沮丧,l,1,0.46084309999969264,lth,m,22,2024_Apr_15_1707,mian,2021.2.3,60.40365345458794,
,,,,,,1,1,pic/flanker6.png,pic/flanker4.png,s,k,pic/AffRest3.png,,,,,,,,,,,,,,,,,,,,,,,,,0,2,2,2,0,11,11,6,,,,1200.8233964,None,1199.6393638,1200.8403184,s,1,0.6268876000003729,爽朗,k,1,0.5123770999998669,lth,m,22,2024_Apr_15_1707,mian,2021.2.3,60.40365345458794,
,,,,,,0,1,pic/flanker6.png,pic/flanker2.png,a,k,pic/AffRest3.png,,,,,,,,,,,,,,,,,,,,,,,,,0,2,2,2,0,12,12,2,,,,1203.9084177000004,None,1202.7242941000004,1203.9248072,a,1,0.40745309999965684,珍藏,k,1,0.49614650000057736,lth,m,22,2024_Apr_15_1707,mian,2021.2.3,60.40365345458794,
,,,,,,1,1,pic/flanker5.png,pic/flanker3.png,a,k,pic/AffRest3.png,,,,,,,,,,,,,,,,,,,,,,,,,0,2,2,2,0,13,13,36,,,,1206.7597734,None,1205.5755738999997,1206.7766680000004,a,1,0.47873249999975087,享受,k,1,0.5647509999998874,lth,m,22,2024_Apr_15_1707,mian,2021.2.3,60.40365345458794,
,,,,,,0,1,pic/flanker5.png,pic/flanker1.png,s,k,pic/AffRest3.png,,,,,,,,,,,,,,,,,,,,,,,,,0,2,2,2,0,14,14,48,,,,1209.6108416999996,None,1208.4268027999997,1209.6273793,s,1,0.3412303000004613,畅销,k,1,0.5313570999996955,lth,m,22,2024_Apr_15_1707,mian,2021.2.3,60.40365345458794,
,,,,,,1,0,pic/flanker5.png,pic/flanker3.png,a,l,pic/AffRest3.png,,,,,,,,,,,,,,,,,,,,,,,,,0,2,2,2,0,15,15,47,,,,1212.3452432000004,None,1211.1616234000003,1212.3626855000002,a,1,0.4754964999992808,厌恶,l,1,0.396654999999555,lth,m,22,2024_Apr_15_1707,mian,2021.2.3,60.40365345458794,
,,,,,,0,0,pic/flanker5.png,pic/flanker1.png,s,l,pic/AffRest3.png,,,,,,,,,,,,,,,,,,,,,,,,,0,2,2,2,0,16,16,59,,,,1215.1467923,None,1213.9633580999998,1215.1635653000003,s,1,0.46514959999967687,缺乏,l,1,0.7633865999996488,lth,m,22,2024_Apr_15_1707,mian,2021.2.3,60.40365345458794,
,,,,,,0,0,pic/flanker5.png,pic/flanker1.png,s,l,pic/AffRest3.png,,,,,,,,,,,,,,,,,,,,,,,,,0,2,2,2,0,17,17,35,,,,1218.1817843999997,None,1216.9980477999998,1218.1989003999997,s,1,0.37313630000062403,孤单,l,1,0.7540553999997428,lth,m,22,2024_Apr_15_1707,mian,2021.2.3,60.40365345458794,
,,,,,,0,0,pic/flanker5.png,pic/flanker1.png,s,l,pic/AffRest3.png,,,,,,,,,,,,,,,,,,,,,,,,,0,2,2,2,0,18,18,43,,,,1221.1833517000005,None,1219.9996812,1221.20046,s,1,0.3851827000007688,悲观,l,1,0.47119329999986803,lth,m,22,2024_Apr_15_1707,mian,2021.2.3,60.40365345458794,
,,,,,,1,1,pic/flanker5.png,pic/flanker3.png,a,k,pic/AffRest3.png,,,,,,,,,,,,,,,,,,,,,,,,,0,2,2,2,0,19,19,44,,,,1223.9690122000002,None,1222.7838748000004,1223.9857137,a,1,0.6005322000000888,热切,l,0,0.3494152999992366,lth,m,22,2024_Apr_15_1707,mian,2021.2.3,60.40365345458794,
,,,,,,0,1,pic/flanker5.png,pic/flanker1.png,s,k,pic/AffRest3.png,,,,,,,,,,,,,,,,,,,,,,,,,0,2,2,2,0,20,20,0,,,,1226.786161,None,1225.6026184000002,1226.8032054000005,s,1,0.4897838999995656,振作,k,1,0.5796204999996917,lth,m,22,2024_Apr_15_1707,mian,2021.2.3,60.40365345458794,
,,,,,,0,0,pic/flanker6.png,pic/flanker2.png,a,l,pic/AffRest3.png,,,,,,,,,,,,,,,,,,,,,,,,,0,2,2,2,0,21,21,25,,,,1229.8049231000005,None,1228.6207132999998,1229.8222179000004,a,1,0.3969802999999956,争吵,l,1,0.6178008999995654,lth,m,22,2024_Apr_15_1707,mian,2021.2.3,60.40365345458794,
,,,,,,0,0,pic/flanker6.png,pic/flanker2.png,a,l,pic/AffRest3.png,,,,,,,,,,,,,,,,,,,,,,,,,0,2,2,2,0,22,22,1,,,,1232.6559478,None,1231.4717974000005,1232.6730442999997,a,1,0.421576499999901,胡涂,l,1,0.4728554000002987,lth,m,22,2024_Apr_15_1707,mian,2021.2.3,60.40365345458794,
,,,,,,1,1,pic/flanker5.png,pic/flanker3.png,a,k,pic/AffRest3.png,,,,,,,,,,,,,,,,,,,,,,,,,0,2,2,2,0,23,23,52,,,,1235.4748871000002,None,1234.2903540999996,1235.4914067999998,a,1,0.5859056999997847,诚恳,k,1,0.5644585999998526,lth,m,22,2024_Apr_15_1707,mian,2021.2.3,60.40365345458794,
,,,,,,0,1,pic/flanker6.png,pic/flanker2.png,a,k,pic/AffRest3.png,,,,,,,,,,,,,,,,,,,,,,,,,0,2,2,2,0,24,24,50,,,,1238.5432087999998,None,1237.3583159,1238.5595824000002,a,1,0.37353859999984707,公平,k,1,0.5729117999999289,lth,m,22,2024_Apr_15_1707,mian,2021.2.3,60.40365345458794,
,,,,,,1,0,pic/flanker6.png,pic/flanker4.png,s,l,pic/AffRest3.png,,,,,,,,,,,,,,,,,,,,,,,,,0,2,2,2,0,25,25,69,,,,1241.3448811999997,None,1240.1598740999998,1241.3600523000005,s,1,0.724279199999728,假冒,l,1,0.5690949999998338,lth,m,22,2024_Apr_15_1707,mian,2021.2.3,60.40365345458794,
,,,,,,1,0,pic/flanker5.png,pic/flanker3.png,a,l,pic/AffRest3.png,,,,,,,,,,,,,,,,,,,,,,,,,0,2,2,2,0,26,26,71,,,,1244.5121809000002,None,1243.3283600000004,1244.5285242999998,a,1,0.5892377999998644,损害,l,1,0.5498329000001831,lth,m,22,2024_Apr_15_1707,mian,2021.2.3,60.40365345458794,
,,,,,,1,0,pic/flanker5.png,pic/flanker3.png,a,l,pic/AffRest3.png,,,,,,,,,,,,,,,,,,,,,,,,,0,2,2,2,0,27,27,63,,,,1247.5806160000002,None,1246.3960011,1247.5975974000003,a,1,0.764868899999783,堵塞,l,1,0.7126405999997587,lth,m,22,2024_Apr_15_1707,mian,2021.2.3,60.40365345458794,
,,,,,,0,0,pic/flanker6.png,pic/flanker2.png,a,l,pic/AffRest3.png,,,,,,,,,,,,,,,,,,,,,,,,,0,2,2,2,0,28,28,73,,,,1250.9159293000002,None,1249.7313949999998,1250.9326352999997,a,1,0.39386840000042866,撒谎,l,1,0.5551772999997411,lth,m,22,2024_Apr_15_1707,mian,2021.2.3,60.40365345458794,
,,,,,,1,0,pic/flanker5.png,pic/flanker3.png,a,l,pic/AffRest3.png,,,,,,,,,,,,,,,,,,,,,,,,,0,2,2,2,0,29,29,55,,,,1253.8839109,None,1252.6998710999997,1253.9007017000004,a,1,0.5615046000002621,黑暗,l,1,0.43312299999979587,lth,m,22,2024_Apr_15_1707,mian,2021.2.3,60.40365345458794,
,,,,,,1,1,pic/flanker5.png,pic/flanker3.png,a,k,pic/AffRest3.png,,,,,,,,,,,,,,,,,,,,,,,,,0,2,2,2,0,30,30,68,,,,1256.7025285,None,1255.5177746,1256.7192527999996,a,1,0.5593983999997363,赞成,k,1,0.630335699999705,lth,m,22,2024_Apr_15_1707,mian,2021.2.3,60.40365345458794,
,,,,,,0,1,pic/flanker6.png,pic/flanker2.png,a,k,pic/AffRest3.png,,,,,,,,,,,,,,,,,,,,,,,,,0,2,2,2,0,31,31,34,,,,1259.8040256000004,None,1258.6194445,1259.8205084,a,1,0.39138920000004873,生动,k,1,0.6231413999994402,lth,m,22,2024_Apr_15_1707,mian,2021.2.3,60.40365345458794,
,,,,,,0,1,pic/flanker5.png,pic/flanker1.png,s,k,pic/AffRest3.png,,,,,,,,,,,,,,,,,,,,,,,,,0,2,2,2,0,32,32,16,,,,1262.6883915999997,None,1261.5039573000004,1262.7049597000005,s,1,0.4216495999999097,永恒,k,1,0.563964599999963,lth,m,22,2024_Apr_15_1707,mian,2021.2.3,60.40365345458794,
,,,,,,0,1,pic/flanker5.png,pic/flanker1.png,s,k,pic/AffRest3.png,,,,,,,,,,,,,,,,,,,,,,,,,0,2,2,2,0,33,33,56,,,,1265.6888491,None,1264.5054056,1265.7058022,s,1,0.45773279999957595,前进,k,1,0.45729430000028515,lth,m,22,2024_Apr_15_1707,mian,2021.2.3,60.40365345458794,
,,,,,,1,1,pic/flanker6.png,pic/flanker4.png,s,k,pic/AffRest3.png,,,,,,,,,,,,,,,,,,,,,,,,,0,2,2,2,0,34,34,46,,,,1268.5580906000005,None,1267.3739726000003,1268.5749542000003,s,1,0.5956754999997429,瑰丽,k,1,0.4912471999996342,lth,m,22,2024_Apr_15_1707,mian,2021.2.3,60.40365345458794,
,,,,,,0,0,pic/flanker6.png,pic/flanker2.png,a,l,pic/AffRest3.png,,,,,,,,,,,,,,,,,,,,,,,,,0,2,2,2,0,35,35,33,,,,1271.4766241999996,None,1270.2918712,1271.4930111000003,a,1,0.3505682999993951,处罚,l,1,0.5574246000005587,lth,m,22,2024_Apr_15_1707,mian,2021.2.3,60.40365345458794,
,,,,,,1,1,pic/flanker5.png,pic/flanker3.png,a,k,pic/AffRest3.png,,,,,,,,,,,,,,,,,,,,,,,,,0,2,2,2,0,36,36,28,,,,1274.2102658000003,None,1273.0263469000001,1274.2273758000001,a,1,0.6082796999999118,敬佩,k,1,0.6028937000000951,lth,m,22,2024_Apr_15_1707,mian,2021.2.3,60.40365345458794,
,,,,,,0,0,pic/flanker5.png,pic/flanker1.png,s,l,pic/AffRest3.png,,,,,,,,,,,,,,,,,,,,,,,,,0,2,2,2,0,37,37,3,,,,1277.4294747000004,None,1276.2449014000003,1277.4460563000002,s,1,0.47970919999988837,丢失,l,1,0.9977379000001747,lth,m,22,2024_Apr_15_1707,mian,2021.2.3,60.40365345458794,
,,,,,,1,1,pic/flanker6.png,pic/flanker4.png,s,k,pic/AffRest3.png,,,,,,,,,,,,,,,,,,,,,,,,,0,2,2,2,0,38,38,54,,,,1280.6970139000005,None,1279.5133714000003,1280.7135282999998,s,1,0.5525019999995493,鲜艳,None,0,,lth,m,22,2024_Apr_15_1707,mian,2021.2.3,60.40365345458794,
,,,,,,0,1,pic/flanker5.png,pic/flanker1.png,s,k,pic/AffRest3.png,,,,,,,,,,,,,,,,,,,,,,,,,0,2,2,2,0,39,39,64,,,,1285.6503279999997,None,1284.4653472,1285.6668774,s,1,0.45430359999954817,正直,k,1,0.49689260000013746,lth,m,22,2024_Apr_15_1707,mian,2021.2.3,60.40365345458794,
,,,,,,1,1,pic/flanker6.png,pic/flanker4.png,s,k,pic/AffRest3.png,,,,,,,,,,,,,,,,,,,,,,,,,0,2,2,2,0,40,40,70,,,,1288.5684674000004,None,1287.3835141,1288.5850449999998,s,1,0.5382103000001734,有利,k,1,0.47334939999927883,lth,m,22,2024_Apr_15_1707,mian,2021.2.3,60.40365345458794,
,,,,,,0,1,pic/flanker5.png,pic/flanker1.png,s,k,pic/AffRest3.png,,,,,,,,,,,,,,,,,,,,,,,,,0,2,2,2,0,41,41,72,,,,1291.4862205999998,None,1290.3010158999996,1291.5026705,s,1,0.4023802000001524,精致,k,1,0.609821699999884,lth,m,22,2024_Apr_15_1707,mian,2021.2.3,60.40365345458794,
,,,,,,1,1,pic/flanker6.png,pic/flanker4.png,s,k,pic/AffRest3.png,,,,,,,,,,,,,,,,,,,,,,,,,0,2,2,2,0,42,42,30,,,,1294.5040982,None,1293.3201290999996,1294.5210479999996,s,1,0.5292097999999896,廉洁,k,1,0.5739100999999209,lth,m,22,2024_Apr_15_1707,mian,2021.2.3,60.40365345458794,
,,,,,,0,1,pic/flanker6.png,pic/flanker2.png,a,k,pic/AffRest3.png,,,,,,,,,,,,,,,,,,,,,,,,,0,2,2,2,0,43,43,18,,,,1297.6060034000002,None,1296.4216637999998,1297.6222438000004,a,1,0.47341580000011163,俊秀,k,1,2.238760199999888,lth,m,22,2024_Apr_15_1707,mian,2021.2.3,60.40365345458794,
,,,,,,0,1,pic/flanker5.png,pic/flanker1.png,s,k,pic/AffRest3.png,,,,,,,,,,,,,,,,,,,,,,,,,0,2,2,2,0,44,44,40,,,,1302.2918824999997,None,1301.1078623000003,1302.3085583000002,s,1,0.327215399999659,圣洁,k,1,0.5226818000001003,lth,m,22,2024_Apr_15_1707,mian,2021.2.3,60.40365345458794,
,,,,,,0,1,pic/flanker6.png,pic/flanker2.png,a,k,pic/AffRest3.png,,,,,,,,,,,,,,,,,,,,,,,,,0,2,2,2,0,45,45,10,,,,1305.1094204,None,1303.9266102000001,1305.1265874,a,1,0.3317622000004121,奉献,k,1,0.4658226999999897,lth,m,22,2024_Apr_15_1707,mian,2021.2.3,60.40365345458794,
,,,,,,1,1,pic/flanker5.png,pic/flanker3.png,a,k,pic/AffRest3.png,,,,,,,,,,,,,,,,,,,,,,,,,0,2,2,2,0,46,46,12,,,,1307.9280157000003,None,1306.7433375,1307.9448183000004,a,1,0.5391082999994978,秀丽,k,1,0.4738624000001437,lth,m,22,2024_Apr_15_1707,mian,2021.2.3,60.40365345458794,
,,,,,,0,0,pic/flanker5.png,pic/flanker1.png,s,l,pic/AffRest3.png,,,,,,,,,,,,,,,,,,,,,,,,,0,2,2,2,0,47,47,67,,,,1310.9465943000005,None,1309.7622342000004,1310.9628013000001,s,1,0.4035273999998026,焦躁,l,1,0.7047671999998784,lth,m,22,2024_Apr_15_1707,mian,2021.2.3,60.40365345458794,
,,,,,,1,0,pic/flanker6.png,pic/flanker4.png,s,l,pic/AffRest3.png,,,,,,,,,,,,,,,,,,,,,,,,,0,2,2,2,0,48,48,61,,,,1313.9305282000005,None,1312.7465179,1313.9471056000002,s,1,0.7498672000001534,闷热,k,0,0.8476332000000184,lth,m,22,2024_Apr_15_1707,mian,2021.2.3,60.40365345458794,
,,,,,,1,1,pic/flanker6.png,pic/flanker4.png,s,k,pic/AffRest3.png,,,,,,,,,,,,,,,,,,,,,,,,,0,2,2,2,0,49,49,62,,,,1317.3993014999996,None,1316.2153906000003,1317.4162394000004,s,1,0.5107833000001847,豪放,k,1,0.7732058999999936,lth,m,22,2024_Apr_15_1707,mian,2021.2.3,60.40365345458794,
,,,,,,1,1,pic/flanker6.png,pic/flanker4.png,s,k,pic/AffRest3.png,,,,,,,,,,,,,,,,,,,,,,,,,0,2,2,2,0,50,50,14,,,,1320.6005232999996,None,1319.4164982000002,1320.6178442,s,1,0.4766794999995909,清秀,k,1,0.5375455000003058,lth,m,22,2024_Apr_15_1707,mian,2021.2.3,60.40365345458794,
,,,,,,0,1,pic/flanker5.png,pic/flanker1.png,s,k,pic/AffRest3.png,,,,,,,,,,,,,,,,,,,,,,,,,0,2,2,2,0,51,51,32,,,,1323.6188192,None,1322.4349928000001,1323.6361441999998,s,1,0.40599070000007487,丰满,k,1,0.4902020999998058,lth,m,22,2024_Apr_15_1707,mian,2021.2.3,60.40365345458794,
,,,,,,0,1,pic/flanker6.png,pic/flanker2.png,a,k,pic/AffRest3.png,,,,,,,,,,,,,,,,,,,,,,,,,0,2,2,2,0,52,52,42,,,,1326.4709371999998,None,1325.2861961999997,1326.4877285000002,a,1,0.4131718999997247,优雅,k,1,0.4896252000007735,lth,m,22,2024_Apr_15_1707,mian,2021.2.3,60.40365345458794,
,,,,,,1,0,pic/flanker6.png,pic/flanker4.png,s,l,pic/AffRest3.png,,,,,,,,,,,,,,,,,,,,,,,,,0,2,2,2,0,53,53,13,,,,1329.3895573,None,1328.2044588999997,1329.4056128000002,s,1,0.49301569999988715,懒惰,l,1,0.5509148000001005,lth,m,22,2024_Apr_15_1707,mian,2021.2.3,60.40365345458794,
,,,,,,0,0,pic/flanker6.png,pic/flanker2.png,a,l,pic/AffRest3.png,,,,,,,,,,,,,,,,,,,,,,,,,0,2,2,2,0,54,54,57,,,,1332.2566952999996,None,1331.0722379999997,1332.2734092,a,1,0.3794783000003008,慌忙,l,1,0.5595916000002035,lth,m,22,2024_Apr_15_1707,mian,2021.2.3,60.40365345458794,
,,,,,,1,0,pic/flanker6.png,pic/flanker4.png,s,l,pic/AffRest3.png,,,,,,,,,,,,,,,,,,,,,,,,,0,2,2,2,0,55,55,29,,,,1335.0251043999997,None,1333.8404933000002,1335.0417644,s,1,0.5789641000001211,轻率,l,1,1.3005616999998892,lth,m,22,2024_Apr_15_1707,mian,2021.2.3,60.40365345458794,
,,,,,,0,0,pic/flanker6.png,pic/flanker2.png,a,l,pic/AffRest3.png,,,,,,,,,,,,,,,,,,,,,,,,,0,2,2,2,0,56,56,49,,,,1338.7271898,None,1337.5424321,1338.7431791999998,a,1,0.3849110000001019,自卑,l,1,0.48950520000016695,lth,m,22,2024_Apr_15_1707,mian,2021.2.3,60.40365345458794,
,,,,,,0,0,pic/flanker5.png,pic/flanker1.png,s,l,pic/AffRest3.png,,,,,,,,,,,,,,,,,,,,,,,,,0,2,2,2,0,57,57,19,,,,1341.4789649000004,None,1340.2951994000005,1341.4956346999998,s,1,0.9583054000004267,浪费,l,1,0.8342083000006824,lth,m,22,2024_Apr_15_1707,mian,2021.2.3,60.40365345458794,
,,,,,,1,0,pic/flanker6.png,pic/flanker4.png,s,l,pic/AffRest3.png,,,,,,,,,,,,,,,,,,,,,,,,,0,2,2,2,0,58,58,21,,,,1345.2969700000003,None,1344.112309,1345.3140208000004,s,1,0.7554766000002928,心慌,l,1,0.861746000000494,lth,m,22,2024_Apr_15_1707,mian,2021.2.3,60.40365345458794,
,,,,,,1,0,pic/flanker6.png,pic/flanker4.png,s,l,pic/AffRest3.png,,,,,,,,,,,,,,,,,,,,,,,,,0,2,2,2,0,59,59,53,,,,1348.8150508999997,None,1347.6306301000004,1348.8316246000004,s,1,0.5102587000001222,嘲笑,l,1,0.542718299999251,lth,m,22,2024_Apr_15_1707,mian,2021.2.3,60.40365345458794,
,,,,,,0,0,pic/flanker6.png,pic/flanker2.png,a,l,pic/AffRest3.png,,,,,,,,,,,,,,,,,,,,,,,,,0,2,2,2,0,60,60,41,,,,1351.8165280000003,None,1350.6324950999997,1351.8343932999996,a,1,0.4421837999998388,失意,l,1,0.5087252999992415,lth,m,22,2024_Apr_15_1707,mian,2021.2.3,60.40365345458794,
,,,,,,1,1,pic/flanker5.png,pic/flanker3.png,a,k,pic/AffRest3.png,,,,,,,,,,,,,,,,,,,,,,,,,0,2,2,2,0,61,61,60,,,,1354.6683344000003,None,1353.4838923999996,1354.6852208999999,a,1,0.8164606000000276,顽强,k,1,1.1370993000000453,lth,m,22,2024_Apr_15_1707,mian,2021.2.3,60.40365345458794,
,,,,,,0,0,pic/flanker6.png,pic/flanker2.png,a,l,pic/AffRest3.png,,,,,,,,,,,,,,,,,,,,,,,,,0,2,2,2,0,62,62,17,,,,1358.6376201000003,None,1357.4525984000002,1358.6539501999996,a,1,0.46353760000056354,郁闷,l,1,0.6218087999995987,lth,m,22,2024_Apr_15_1707,mian,2021.2.3,60.40365345458794,
,,,,,,0,0,pic/flanker6.png,pic/flanker2.png,a,l,pic/AffRest3.png,,,,,,,,,,,,,,,,,,,,,,,,,0,2,2,2,0,63,63,9,,,,1361.7382225000001,None,1360.5547032000004,1361.7554292000004,a,1,0.35014830000000075,鲁莽,l,1,0.6265962999996191,lth,m,22,2024_Apr_15_1707,mian,2021.2.3,60.40365345458794,
,,,,,,0,0,pic/flanker5.png,pic/flanker1.png,s,l,pic/AffRest3.png,,,,,,,,,,,,,,,,,,,,,,,,,0,2,2,2,0,64,64,51,,,,1364.6401094000003,None,1363.4555935999997,1364.6567354,s,1,0.5546835000004648,逃避,l,1,0.5051988000004712,lth,m,22,2024_Apr_15_1707,mian,2021.2.3,60.40365345458794,
,,,,,,1,1,pic/flanker6.png,pic/flanker4.png,s,k,pic/AffRest3.png,,,,,,,,,,,,,,,,,,,,,,,,,0,2,2,2,0,65,65,38,,,,1367.6755272,None,1366.4904636,1367.6920387,s,1,0.5376858999998149,羡慕,k,1,0.5706473000000187,lth,m,22,2024_Apr_15_1707,mian,2021.2.3,60.40365345458794,
,,,,,,1,1,pic/flanker6.png,pic/flanker4.png,s,k,pic/AffRest3.png,,,,,,,,,,,,,,,,,,,,,,,,,0,2,2,2,0,66,66,22,,,,1370.5932192,None,1369.4090548000004,1370.6101507000003,s,1,0.5479104999994888,留恋,k,1,0.6599871999997049,lth,m,22,2024_Apr_15_1707,mian,2021.2.3,60.40365345458794,
,,,,,,0,1,pic/flanker6.png,pic/flanker2.png,a,k,pic/AffRest3.png,,,,,,,,,,,,,,,,,,,,,,,,,0,2,2,2,0,67,67,26,,,,1373.6786642999996,None,1372.4936140999998,1373.6951763999996,a,1,0.3797736000005898,富足,k,1,0.6277998000005027,lth,m,22,2024_Apr_15_1707,mian,2021.2.3,60.40365345458794,
,,,,,,1,1,pic/flanker5.png,pic/flanker3.png,a,k,pic/AffRest3.png,,,,,,,,,,,,,,,,,,,,,,,,,0,2,2,2,0,68,68,4,,,,1376.4964404000002,None,1375.3121818999998,1376.5130572999997,s,0,0.5015376000001197,吉祥,k,1,1.1656489000006331,lth,m,22,2024_Apr_15_1707,mian,2021.2.3,60.40365345458794,
,,,,,,0,1,pic/flanker6.png,pic/flanker2.png,a,k,pic/AffRest3.png,,,,,,,,,,,,,,,,,,,,,,,,,0,2,2,2,0,69,69,66,,,,1380.1982484999999,None,1379.0141174,1380.2150788999998,a,1,0.3292511999998169,舒畅,k,1,0.5071791000000303,lth,m,22,2024_Apr_15_1707,mian,2021.2.3,60.40365345458794,
,,,,,,1,1,pic/flanker5.png,pic/flanker3.png,a,k,pic/AffRest3.png,,,,,,,,,,,,,,,,,,,,,,,,,0,2,2,2,0,70,70,20,,,,1382.8995514999997,None,1381.7153005999999,1382.9165586999998,a,1,0.6597038999998404,富丽,k,1,0.4337699999996403,lth,m,22,2024_Apr_15_1707,mian,2021.2.3,60.40365345458794,
,,,,,,0,1,pic/flanker6.png,pic/flanker2.png,a,k,pic/AffRest3.png,,,,,,,,,,,,,,,,,,,,,,,,,0,2,2,2,0,71,71,58,,,,1385.8679263000004,None,1384.6831094,1385.8848481000005,a,1,0.48280759999943257,卓越,k,1,0.5773158000001786,lth,m,22,2024_Apr_15_1707,mian,2021.2.3,60.40365345458794,
,,,,,,1,0,pic/flanker6.png,pic/flanker4.png,s,l,pic/AffRest3.png,,,,,,,,,,,,,,,,,,,,,,,,,0,2,2,2,0,72,72,37,,,,1388.7858434,None,1387.6015030999997,1388.8024643999997,s,1,0.8876053000003594,冷笑,l,1,0.6619966999996905,lth,m,22,2024_Apr_15_1707,mian,2021.2.3,60.40365345458794,
,,,,,,0,0,pic/flanker5.png,pic/flanker1.png,s,l,pic/AffRest3.png,,,,,,,,,,,,,,,,,,,,,,,,,0,2,2,2,0,73,73,27,,,,1392.2540062999997,None,1391.0703537999998,1392.2712634,s,1,0.46281530000032944,别扭,l,1,0.6212074000004577,lth,m,22,2024_Apr_15_1707,mian,2021.2.3,60.40365345458794,
,,,,,,1,0,pic/flanker6.png,pic/flanker4.png,s,l,pic/AffRest3.png,,,,,,,,,,,,,,,,,,,,,,,,,0,2,2,2,0,74,74,5,,,,1395.2562453,None,1394.0712059999996,1395.2727149000002,s,1,0.4986535999996704,杂乱,l,1,0.6339054000000033,lth,m,22,2024_Apr_15_1707,mian,2021.2.3,60.40365345458794,
,,,,,,0,0,pic/flanker6.png,pic/flanker2.png,a,l,pic/AffRest3.png,,,,,,,,,,,,,,,,,,,,,,,,,0,2,2,2,0,75,75,65,,,,1398.2078410000004,None,1397.0228832000003,1398.2243953999996,a,1,0.31463820000044507,忧虑,l,1,0.6064784999998665,lth,m,22,2024_Apr_15_1707,mian,2021.2.3,60.40365345458794,
,,,,,,0,0,pic/flanker5.png,pic/flanker1.png,s,l,pic/AffRest3.png,,,,,,,,,,,,,,,,,,,,,,,,,0,2,2,2,0,76,76,75,,,,1401.0587302000004,None,1399.8751026999998,1401.0755115000002,s,1,0.3907423000000563,伤心,l,1,0.6587930999994569,lth,m,22,2024_Apr_15_1707,mian,2021.2.3,60.40365345458794,
,,,,,,1,1,pic/flanker5.png,pic/flanker3.png,a,k,pic/AffRest3.png,,,,,,,,,,,,,,,,,,,,,,,,,0,2,2,2,0,77,77,76,,,,1404.0768514000001,None,1402.8923195999996,1404.093648,a,1,0.5055869000007078,旺盛,k,1,0.5586385000005976,lth,m,22,2024_Apr_15_1707,mian,2021.2.3,60.40365345458794,
,,,,,,1,0,pic/flanker5.png,pic/flanker3.png,a,l,pic/AffRest3.png,,,,,,,,,,,,,,,,,,,,,,,,,0,2,2,2,0,78,78,39,,,,1407.0120077000001,None,1405.8276200999999,1407.0282393999996,a,1,0.6934471999993548,禁止,l,1,0.5282391999999163,lth,m,22,2024_Apr_15_1707,mian,2021.2.3,60.40365345458794,
,,,,,,1,1,pic/flanker6.png,pic/flanker4.png,s,k,pic/AffRest3.png,,,,,,,,,,,,,,,,,,,,,,,,,0,2,2,2,0,79,79,78,,,,1410.0968777999997,None,1408.9124712000003,1410.1136706999996,s,1,0.546721499999876,充裕,k,1,0.6337200999996639,lth,m,22,2024_Apr_15_1707,mian,2021.2.3,60.40365345458794,
,,,,,,,,,,,,pic/AffRest3.png,,,,,,,,,,,,,,,,,,,,,,,,,0,2,2,2,,,,,,,,,,,,,,,,,,,lth,m,22,2024_Apr_15_1707,mian,2021.2.3,60.40365345458794,
,,,,,,1,1,pic/flanker5.png,pic/flanker3.png,a,k,pic/EndExp.PNG,,,,,,,,,,,,,,,,,,,,,,,,,0,3,3,3,0,0,0,4,,,,1463.0904837999997,None,1461.8986729999997,1463.1071488999996,a,1,1.267542499999763,珍藏,k,1,0.5146626999994623,lth,m,22,2024_Apr_15_1707,mian,2021.2.3,60.40365345458794,
