target,反应类型,条件,truetarget,CorAns,Position,congruency,AffValue,flankerPic,targetPic,corAnsF,corAnsA,RestPic,returnPractice.thisRepN,returnPractice.thisTrialN,returnPractice.thisN,returnPractice.thisIndex,pracNum.thisRepN,pracNum.thisTrialN,pracNum.thisN,pracNum.thisIndex,NumBlock1.thisRepN,NumBlock1.thisTrialN,NumBlock1.thisN,NumBlock1.thisIndex,NumBlock2.thisRepN,NumBlock2.thisTrialN,NumBlock2.thisN,NumBlock2.thisIndex,returnPrac.thisRepN,returnPrac.thisTrialN,returnPrac.thisN,returnPrac.thisIndex,PracAff.thisRepN,PracAff.thisTrialN,PracAff.thisN,PracAff.thisIndex,AffBlocks.thisRepN,AffBlocks.thisTrialN,AffBlocks.thisN,AffBlocks.thisIndex,AffBlock1.thisRepN,AffBlock1.thisTrialN,AffBlock1.thisN,AffBlock1.thisIndex,respNum2word.keys,respNum2word.corr,respNum2word.rt,text.started,text.stopped,blank.started,blank.stopped,respFlanker.keys,respFlanker.corr,respFlanker.rt,thisWord,respAffWord.keys,respAffWord.corr,respAffWord.rt,姓名,性别,年龄（周岁）,date,expName,psychopyVersion,frameRate,
2A,1,1,A,a,"[0.2, 0.2]",,,,,,,,0,0,0,0,0,0,0,0,,,,,,,,,,,,,,,,,,,,,,,,,a,1,4.032974000001559,,,,,,,,,,,,qxs,m,19,2024_Apr_21_1445,mian,2021.2.3,60.057679390517265,
A9,1,2,A,a,"[-0.2, 0.2]",,,,,,,,0,0,0,0,0,1,1,1,,,,,,,,,,,,,,,,,,,,,,,,,a,1,1.0789033999899402,,,,,,,,,,,,qxs,m,19,2024_Apr_21_1445,mian,2021.2.3,60.057679390517265,
7e,2,1,7.0,a,"[-0.2, -0.2]",,,,,,,,0,0,0,0,0,2,2,2,,,,,,,,,,,,,,,,,,,,,,,,,a,1,3.623685899976408,,,,,,,,,,,,qxs,m,19,2024_Apr_21_1445,mian,2021.2.3,60.057679390517265,
9H,2,2,9.0,a,"[0.2, -0.2]",,,,,,,,0,0,0,0,0,3,3,3,,,,,,,,,,,,,,,,,,,,,,,,,a,1,0.6719782000000123,,,,,,,,,,,,qxs,m,19,2024_Apr_21_1445,mian,2021.2.3,60.057679390517265,
h4,1,1,h,l,"[0.2, 0.2]",,,,,,,,0,0,0,0,0,4,4,4,,,,,,,,,,,,,,,,,,,,,,,,,l,1,1.053338800003985,,,,,,,,,,,,qxs,m,19,2024_Apr_21_1445,mian,2021.2.3,60.057679390517265,
4H,1,2,H,a,"[-0.2, 0.2]",,,,,,,,0,0,0,0,0,5,5,5,,,,,,,,,,,,,,,,,,,,,,,,,a,1,0.740698000008706,,,,,,,,,,,,qxs,m,19,2024_Apr_21_1445,mian,2021.2.3,60.057679390517265,
F8,2,1,8.0,l,"[-0.2, -0.2]",,,,,,,,0,0,0,0,0,6,6,6,,,,,,,,,,,,,,,,,,,,,,,,,l,1,1.3130270999972709,,,,,,,,,,,,qxs,m,19,2024_Apr_21_1445,mian,2021.2.3,60.057679390517265,
h7,2,2,7.0,a,"[0.2, -0.2]",,,,,,,,0,0,0,0,0,7,7,7,,,,,,,,,,,,,,,,,,,,,,,,,a,1,0.6289853999915067,,,,,,,,,,,,qxs,m,19,2024_Apr_21_1445,mian,2021.2.3,60.057679390517265,
5e,1,1,e,l,"[0.2, 0.2]",,,,,,,,0,0,0,0,0,8,8,8,,,,,,,,,,,,,,,,,,,,,,,,,l,1,3.042575699975714,,,,,,,,,,,,qxs,m,19,2024_Apr_21_1445,mian,2021.2.3,60.057679390517265,
e8,1,2,e,l,"[-0.2, 0.2]",,,,,,,,0,0,0,0,0,9,9,9,,,,,,,,,,,,,,,,,,,,,,,,,l,1,0.6652772999950685,,,,,,,,,,,,qxs,m,19,2024_Apr_21_1445,mian,2021.2.3,60.057679390517265,
4E,2,1,4.0,l,"[-0.2, -0.2]",,,,,,,,0,0,0,0,0,10,10,10,,,,,,,,,,,,,,,,,,,,,,,,,l,1,2.2909350999980234,,,,,,,,,,,,qxs,m,19,2024_Apr_21_1445,mian,2021.2.3,60.057679390517265,
5H,2,2,5.0,a,"[0.2, -0.2]",,,,,,,,0,0,0,0,0,11,11,11,,,,,,,,,,,,,,,,,,,,,,,,,a,1,0.5804473999887705,,,,,,,,,,,,qxs,m,19,2024_Apr_21_1445,mian,2021.2.3,60.057679390517265,
9E,1,1,E,a,"[0.2, 0.2]",,,,,,,,0,0,0,0,0,12,12,12,,,,,,,,,,,,,,,,,,,,,,,,,a,1,1.0702647999860346,,,,,,,,,,,,qxs,m,19,2024_Apr_21_1445,mian,2021.2.3,60.057679390517265,
h9,1,2,h,l,"[-0.2, 0.2]",,,,,,,,0,0,0,0,0,13,13,13,,,,,,,,,,,,,,,,,,,,,,,,,l,1,0.833375000016531,,,,,,,,,,,,qxs,m,19,2024_Apr_21_1445,mian,2021.2.3,60.057679390517265,
2a,2,1,2.0,l,"[-0.2, -0.2]",,,,,,,,0,0,0,0,0,14,14,14,,,,,,,,,,,,,,,,,,,,,,,,,l,1,0.860531499987701,,,,,,,,,,,,qxs,m,19,2024_Apr_21_1445,mian,2021.2.3,60.057679390517265,
e5,2,2,5.0,a,"[0.2, -0.2]",,,,,,,,0,0,0,0,0,15,15,15,,,,,,,,,,,,,,,,,,,,,,,,,a,1,1.5444806000159588,,,,,,,,,,,,qxs,m,19,2024_Apr_21_1445,mian,2021.2.3,60.057679390517265,
A5,1,1,A,a,"[0.2, 0.2]",,,,,,,,0,0,0,0,0,16,16,16,,,,,,,,,,,,,,,,,,,,,,,,,a,1,2.8413385000021663,,,,,,,,,,,,qxs,m,19,2024_Apr_21_1445,mian,2021.2.3,60.057679390517265,
a6,1,2,a,l,"[-0.2, 0.2]",,,,,,,,0,0,0,0,0,17,17,17,,,,,,,,,,,,,,,,,,,,,,,,,l,1,0.7152646000031382,,,,,,,,,,,,qxs,m,19,2024_Apr_21_1445,mian,2021.2.3,60.057679390517265,
2F,2,1,2.0,l,"[-0.2, -0.2]",,,,,,,,0,0,0,0,0,18,18,18,,,,,,,,,,,,,,,,,,,,,,,,,l,1,1.5262336999876425,,,,,,,,,,,,qxs,m,19,2024_Apr_21_1445,mian,2021.2.3,60.057679390517265,
e4,2,2,4.0,l,"[0.2, -0.2]",,,,,,,,0,0,0,0,0,19,19,19,,,,,,,,,,,,,,,,,,,,,,,,,l,1,0.668942699994659,,,,,,,,,,,,qxs,m,19,2024_Apr_21_1445,mian,2021.2.3,60.057679390517265,
,,,,,,,,,,,,,0,0,0,0,,,,,,,,,,,,,,,,,,,,,,,,,,,,,,,,,,,,,,,,,,,qxs,m,19,2024_Apr_21_1445,mian,2021.2.3,60.057679390517265,
7h,1,1,h,l,"[0.2, 0.2]",,,,,,,,,,,,,,,,0,0,0,0,,,,,,,,,,,,,,,,,,,,,None,0,,,,,,,,,,,,,qxs,m,19,2024_Apr_21_1445,mian,2021.2.3,60.057679390517265,
8F,1,2,F,a,"[-0.2, 0.2]",,,,,,,,,,,,,,,,0,1,1,1,,,,,,,,,,,,,,,,,,,,,a,1,2.008037299994612,,,,,,,,,,,,qxs,m,19,2024_Apr_21_1445,mian,2021.2.3,60.057679390517265,
8h,2,1,8.0,l,"[-0.2, -0.2]",,,,,,,,,,,,,,,,0,2,2,2,,,,,,,,,,,,,,,,,,,,,l,1,2.2581342999765184,,,,,,,,,,,,qxs,m,19,2024_Apr_21_1445,mian,2021.2.3,60.057679390517265,
a2,2,2,2.0,l,"[0.2, -0.2]",,,,,,,,,,,,,,,,0,3,3,3,,,,,,,,,,,,,,,,,,,,,l,1,2.327014299982693,,,,,,,,,,,,qxs,m,19,2024_Apr_21_1445,mian,2021.2.3,60.057679390517265,
8f,1,1,f,l,"[0.2, 0.2]",,,,,,,,,,,,,,,,0,4,4,4,,,,,,,,,,,,,,,,,,,,,l,1,1.2675902999762911,,,,,,,,,,,,qxs,m,19,2024_Apr_21_1445,mian,2021.2.3,60.057679390517265,
6a,1,2,a,l,"[-0.2, 0.2]",,,,,,,,,,,,,,,,0,5,5,5,,,,,,,,,,,,,,,,,,,,,l,1,0.582310800004052,,,,,,,,,,,,qxs,m,19,2024_Apr_21_1445,mian,2021.2.3,60.057679390517265,
h6,2,1,6.0,l,"[-0.2, -0.2]",,,,,,,,,,,,,,,,0,6,6,6,,,,,,,,,,,,,,,,,,,,,l,1,1.4442870000202674,,,,,,,,,,,,qxs,m,19,2024_Apr_21_1445,mian,2021.2.3,60.057679390517265,
f9,2,2,9.0,a,"[0.2, -0.2]",,,,,,,,,,,,,,,,0,7,7,7,,,,,,,,,,,,,,,,,,,,,a,1,0.5688831000006758,,,,,,,,,,,,qxs,m,19,2024_Apr_21_1445,mian,2021.2.3,60.057679390517265,
E4,1,1,E,a,"[0.2, 0.2]",,,,,,,,,,,,,,,,0,8,8,8,,,,,,,,,,,,,,,,,,,,,a,1,1.6293559999903664,,,,,,,,,,,,qxs,m,19,2024_Apr_21_1445,mian,2021.2.3,60.057679390517265,
6e,1,2,e,l,"[-0.2, 0.2]",,,,,,,,,,,,,,,,0,9,9,9,,,,,,,,,,,,,,,,,,,,,l,1,0.4544152000162285,,,,,,,,,,,,qxs,m,19,2024_Apr_21_1445,mian,2021.2.3,60.057679390517265,
5G,2,1,5.0,a,"[-0.2, -0.2]",,,,,,,,,,,,,,,,0,10,10,10,,,,,,,,,,,,,,,,,,,,,a,1,1.5391786000109278,,,,,,,,,,,,qxs,m,19,2024_Apr_21_1445,mian,2021.2.3,60.057679390517265,
h3,2,2,3.0,a,"[0.2, -0.2]",,,,,,,,,,,,,,,,0,11,11,11,,,,,,,,,,,,,,,,,,,,,a,1,0.6580401999817695,,,,,,,,,,,,qxs,m,19,2024_Apr_21_1445,mian,2021.2.3,60.057679390517265,
9e,1,1,e,l,"[0.2, 0.2]",,,,,,,,,,,,,,,,0,12,12,12,,,,,,,,,,,,,,,,,,,,,l,1,1.6884427999902982,,,,,,,,,,,,qxs,m,19,2024_Apr_21_1445,mian,2021.2.3,60.057679390517265,
a8,1,2,a,l,"[-0.2, 0.2]",,,,,,,,,,,,,,,,0,13,13,13,,,,,,,,,,,,,,,,,,,,,l,1,0.8427821000223048,,,,,,,,,,,,qxs,m,19,2024_Apr_21_1445,mian,2021.2.3,60.057679390517265,
e8,2,1,8.0,l,"[-0.2, -0.2]",,,,,,,,,,,,,,,,0,14,14,14,,,,,,,,,,,,,,,,,,,,,l,1,0.8254248999874108,,,,,,,,,,,,qxs,m,19,2024_Apr_21_1445,mian,2021.2.3,60.057679390517265,
3f,2,2,3.0,a,"[0.2, -0.2]",,,,,,,,,,,,,,,,0,15,15,15,,,,,,,,,,,,,,,,,,,,,a,1,0.5847013000166044,,,,,,,,,,,,qxs,m,19,2024_Apr_21_1445,mian,2021.2.3,60.057679390517265,
7f,1,1,f,l,"[0.2, 0.2]",,,,,,,,,,,,,,,,0,16,16,16,,,,,,,,,,,,,,,,,,,,,l,1,1.071105599985458,,,,,,,,,,,,qxs,m,19,2024_Apr_21_1445,mian,2021.2.3,60.057679390517265,
a7,1,2,a,l,"[-0.2, 0.2]",,,,,,,,,,,,,,,,0,17,17,17,,,,,,,,,,,,,,,,,,,,,l,1,0.5031619000073988,,,,,,,,,,,,qxs,m,19,2024_Apr_21_1445,mian,2021.2.3,60.057679390517265,
5A,2,1,5.0,a,"[-0.2, -0.2]",,,,,,,,,,,,,,,,0,18,18,18,,,,,,,,,,,,,,,,,,,,,a,1,1.039386199990986,,,,,,,,,,,,qxs,m,19,2024_Apr_21_1445,mian,2021.2.3,60.057679390517265,
8g,2,2,8.0,l,"[0.2, -0.2]",,,,,,,,,,,,,,,,0,19,19,19,,,,,,,,,,,,,,,,,,,,,l,1,0.4877214999869466,,,,,,,,,,,,qxs,m,19,2024_Apr_21_1445,mian,2021.2.3,60.057679390517265,
9a,1,1,a,l,"[0.2, 0.2]",,,,,,,,,,,,,,,,0,20,20,20,,,,,,,,,,,,,,,,,,,,,l,1,1.1411488000012469,,,,,,,,,,,,qxs,m,19,2024_Apr_21_1445,mian,2021.2.3,60.057679390517265,
f7,1,2,f,l,"[-0.2, 0.2]",,,,,,,,,,,,,,,,0,21,21,21,,,,,,,,,,,,,,,,,,,,,l,1,0.5649801999970805,,,,,,,,,,,,qxs,m,19,2024_Apr_21_1445,mian,2021.2.3,60.057679390517265,
g9,2,1,9.0,a,"[-0.2, -0.2]",,,,,,,,,,,,,,,,0,22,22,22,,,,,,,,,,,,,,,,,,,,,a,1,1.5358919000136666,,,,,,,,,,,,qxs,m,19,2024_Apr_21_1445,mian,2021.2.3,60.057679390517265,
3h,2,2,3.0,a,"[0.2, -0.2]",,,,,,,,,,,,,,,,0,23,23,23,,,,,,,,,,,,,,,,,,,,,a,1,0.6688445000036154,,,,,,,,,,,,qxs,m,19,2024_Apr_21_1445,mian,2021.2.3,60.057679390517265,
E6,1,1,E,a,"[0.2, 0.2]",,,,,,,,,,,,,,,,0,24,24,24,,,,,,,,,,,,,,,,,,,,,a,1,0.8168883000034839,,,,,,,,,,,,qxs,m,19,2024_Apr_21_1445,mian,2021.2.3,60.057679390517265,
F6,1,2,F,a,"[-0.2, 0.2]",,,,,,,,,,,,,,,,0,25,25,25,,,,,,,,,,,,,,,,,,,,,a,1,0.504932399984682,,,,,,,,,,,,qxs,m,19,2024_Apr_21_1445,mian,2021.2.3,60.057679390517265,
3A,2,1,3.0,a,"[-0.2, -0.2]",,,,,,,,,,,,,,,,0,26,26,26,,,,,,,,,,,,,,,,,,,,,a,1,1.0353270000196062,,,,,,,,,,,,qxs,m,19,2024_Apr_21_1445,mian,2021.2.3,60.057679390517265,
8H,2,2,8.0,l,"[0.2, -0.2]",,,,,,,,,,,,,,,,0,27,27,27,,,,,,,,,,,,,,,,,,,,,l,1,0.5836369000026025,,,,,,,,,,,,qxs,m,19,2024_Apr_21_1445,mian,2021.2.3,60.057679390517265,
5a,1,1,a,l,"[0.2, 0.2]",,,,,,,,,,,,,,,,0,28,28,28,,,,,,,,,,,,,,,,,,,,,l,1,1.7866252999810968,,,,,,,,,,,,qxs,m,19,2024_Apr_21_1445,mian,2021.2.3,60.057679390517265,
2h,1,2,h,l,"[-0.2, 0.2]",,,,,,,,,,,,,,,,0,29,29,29,,,,,,,,,,,,,,,,,,,,,l,1,0.5928058999998029,,,,,,,,,,,,qxs,m,19,2024_Apr_21_1445,mian,2021.2.3,60.057679390517265,
e5,2,1,5.0,a,"[-0.2, -0.2]",,,,,,,,,,,,,,,,0,30,30,30,,,,,,,,,,,,,,,,,,,,,a,1,0.7236259000201244,,,,,,,,,,,,qxs,m,19,2024_Apr_21_1445,mian,2021.2.3,60.057679390517265,
a3,2,2,3.0,a,"[0.2, -0.2]",,,,,,,,,,,,,,,,0,31,31,31,,,,,,,,,,,,,,,,,,,,,a,1,0.5515959000040311,,,,,,,,,,,,qxs,m,19,2024_Apr_21_1445,mian,2021.2.3,60.057679390517265,
f3,1,1,f,l,"[0.2, 0.2]",,,,,,,,,,,,,,,,0,32,32,32,,,,,,,,,,,,,,,,,,,,,l,1,0.7280729000049178,,,,,,,,,,,,qxs,m,19,2024_Apr_21_1445,mian,2021.2.3,60.057679390517265,
2E,1,2,E,a,"[-0.2, 0.2]",,,,,,,,,,,,,,,,0,33,33,33,,,,,,,,,,,,,,,,,,,,,a,1,0.6288494999753311,,,,,,,,,,,,qxs,m,19,2024_Apr_21_1445,mian,2021.2.3,60.057679390517265,
2H,2,1,2.0,l,"[-0.2, -0.2]",,,,,,,,,,,,,,,,0,34,34,34,,,,,,,,,,,,,,,,,,,,,l,1,0.8069401000102516,,,,,,,,,,,,qxs,m,19,2024_Apr_21_1445,mian,2021.2.3,60.057679390517265,
H8,2,2,8.0,l,"[0.2, -0.2]",,,,,,,,,,,,,,,,0,35,35,35,,,,,,,,,,,,,,,,,,,,,l,1,0.5287658000015654,,,,,,,,,,,,qxs,m,19,2024_Apr_21_1445,mian,2021.2.3,60.057679390517265,
9g,1,1,g,l,"[0.2, 0.2]",,,,,,,,,,,,,,,,0,36,36,36,,,,,,,,,,,,,,,,,,,,,l,1,1.2989197999995667,,,,,,,,,,,,qxs,m,19,2024_Apr_21_1445,mian,2021.2.3,60.057679390517265,
5h,1,2,h,l,"[-0.2, 0.2]",,,,,,,,,,,,,,,,0,37,37,37,,,,,,,,,,,,,,,,,,,,,l,1,0.49448530000518076,,,,,,,,,,,,qxs,m,19,2024_Apr_21_1445,mian,2021.2.3,60.057679390517265,
e4,2,1,4.0,l,"[-0.2, -0.2]",,,,,,,,,,,,,,,,0,38,38,38,,,,,,,,,,,,,,,,,,,,,l,1,2.0255007999949157,,,,,,,,,,,,qxs,m,19,2024_Apr_21_1445,mian,2021.2.3,60.057679390517265,
9h,2,2,9.0,a,"[0.2, -0.2]",,,,,,,,,,,,,,,,0,39,39,39,,,,,,,,,,,,,,,,,,,,,a,1,0.5866061999986414,,,,,,,,,,,,qxs,m,19,2024_Apr_21_1445,mian,2021.2.3,60.057679390517265,
G3,1,1,G,a,"[0.2, 0.2]",,,,,,,,,,,,,,,,0,40,40,40,,,,,,,,,,,,,,,,,,,,,a,1,0.8375019000086468,,,,,,,,,,,,qxs,m,19,2024_Apr_21_1445,mian,2021.2.3,60.057679390517265,
9A,1,2,A,a,"[-0.2, 0.2]",,,,,,,,,,,,,,,,0,41,41,41,,,,,,,,,,,,,,,,,,,,,a,1,0.6226404999906663,,,,,,,,,,,,qxs,m,19,2024_Apr_21_1445,mian,2021.2.3,60.057679390517265,
H5,2,1,5.0,a,"[-0.2, -0.2]",,,,,,,,,,,,,,,,0,42,42,42,,,,,,,,,,,,,,,,,,,,,a,1,1.4670201000117231,,,,,,,,,,,,qxs,m,19,2024_Apr_21_1445,mian,2021.2.3,60.057679390517265,
4e,2,2,4.0,l,"[0.2, -0.2]",,,,,,,,,,,,,,,,0,43,43,43,,,,,,,,,,,,,,,,,,,,,a,0,0.6785660999885295,,,,,,,,,,,,qxs,m,19,2024_Apr_21_1445,mian,2021.2.3,60.057679390517265,
E2,1,1,E,a,"[0.2, 0.2]",,,,,,,,,,,,,,,,0,44,44,44,,,,,,,,,,,,,,,,,,,,,a,1,1.4870120999985375,,,,,,,,,,,,qxs,m,19,2024_Apr_21_1445,mian,2021.2.3,60.057679390517265,
A5,1,2,A,a,"[-0.2, 0.2]",,,,,,,,,,,,,,,,0,45,45,45,,,,,,,,,,,,,,,,,,,,,a,1,0.5354007999994792,,,,,,,,,,,,qxs,m,19,2024_Apr_21_1445,mian,2021.2.3,60.057679390517265,
2A,2,1,2.0,l,"[-0.2, -0.2]",,,,,,,,,,,,,,,,0,46,46,46,,,,,,,,,,,,,,,,,,,,,l,1,1.410900099988794,,,,,,,,,,,,qxs,m,19,2024_Apr_21_1445,mian,2021.2.3,60.057679390517265,
6G,2,2,6.0,l,"[0.2, -0.2]",,,,,,,,,,,,,,,,0,47,47,47,,,,,,,,,,,,,,,,,,,,,l,1,0.5525369000097271,,,,,,,,,,,,qxs,m,19,2024_Apr_21_1445,mian,2021.2.3,60.057679390517265,
H3,1,1,H,a,"[0.2, 0.2]",,,,,,,,,,,,,,,,0,48,48,48,,,,,,,,,,,,,,,,,,,,,a,1,1.4873793000006117,,,,,,,,,,,,qxs,m,19,2024_Apr_21_1445,mian,2021.2.3,60.057679390517265,
H2,1,2,H,a,"[-0.2, 0.2]",,,,,,,,,,,,,,,,0,49,49,49,,,,,,,,,,,,,,,,,,,,,a,1,2.926774599996861,,,,,,,,,,,,qxs,m,19,2024_Apr_21_1445,mian,2021.2.3,60.057679390517265,
e9,2,1,9.0,a,"[-0.2, -0.2]",,,,,,,,,,,,,,,,0,50,50,50,,,,,,,,,,,,,,,,,,,,,a,1,1.3290046000038274,,,,,,,,,,,,qxs,m,19,2024_Apr_21_1445,mian,2021.2.3,60.057679390517265,
2G,2,2,2.0,l,"[0.2, -0.2]",,,,,,,,,,,,,,,,0,51,51,51,,,,,,,,,,,,,,,,,,,,,l,1,0.6506896000064444,,,,,,,,,,,,qxs,m,19,2024_Apr_21_1445,mian,2021.2.3,60.057679390517265,
4f,1,1,f,l,"[0.2, 0.2]",,,,,,,,,,,,,,,,0,52,52,52,,,,,,,,,,,,,,,,,,,,,l,1,1.3793825000175275,,,,,,,,,,,,qxs,m,19,2024_Apr_21_1445,mian,2021.2.3,60.057679390517265,
H6,1,2,H,a,"[-0.2, 0.2]",,,,,,,,,,,,,,,,0,53,53,53,,,,,,,,,,,,,,,,,,,,,a,1,1.9488393000210635,,,,,,,,,,,,qxs,m,19,2024_Apr_21_1445,mian,2021.2.3,60.057679390517265,
A4,2,1,4.0,l,"[-0.2, -0.2]",,,,,,,,,,,,,,,,0,54,54,54,,,,,,,,,,,,,,,,,,,,,l,1,2.937785999994958,,,,,,,,,,,,qxs,m,19,2024_Apr_21_1445,mian,2021.2.3,60.057679390517265,
3F,2,2,3.0,a,"[0.2, -0.2]",,,,,,,,,,,,,,,,0,55,55,55,,,,,,,,,,,,,,,,,,,,,a,1,0.799124799988931,,,,,,,,,,,,qxs,m,19,2024_Apr_21_1445,mian,2021.2.3,60.057679390517265,
7e,1,1,e,l,"[0.2, 0.2]",,,,,,,,,,,,,,,,0,56,56,56,,,,,,,,,,,,,,,,,,,,,l,1,1.0155002000101376,,,,,,,,,,,,qxs,m,19,2024_Apr_21_1445,mian,2021.2.3,60.057679390517265,
F9,1,2,F,a,"[-0.2, 0.2]",,,,,,,,,,,,,,,,0,57,57,57,,,,,,,,,,,,,,,,,,,,,a,1,0.6099681000050623,,,,,,,,,,,,qxs,m,19,2024_Apr_21_1445,mian,2021.2.3,60.057679390517265,
e2,2,1,2.0,l,"[-0.2, -0.2]",,,,,,,,,,,,,,,,0,58,58,58,,,,,,,,,,,,,,,,,,,,,l,1,1.4351353000092786,,,,,,,,,,,,qxs,m,19,2024_Apr_21_1445,mian,2021.2.3,60.057679390517265,
5F,2,2,5.0,a,"[0.2, -0.2]",,,,,,,,,,,,,,,,0,59,59,59,,,,,,,,,,,,,,,,,,,,,a,1,0.5884540000115521,,,,,,,,,,,,qxs,m,19,2024_Apr_21_1445,mian,2021.2.3,60.057679390517265,
f6,1,1,f,l,"[0.2, 0.2]",,,,,,,,,,,,,,,,0,60,60,60,,,,,,,,,,,,,,,,,,,,,l,1,1.7919797000067774,,,,,,,,,,,,qxs,m,19,2024_Apr_21_1445,mian,2021.2.3,60.057679390517265,
7G,1,2,G,a,"[-0.2, 0.2]",,,,,,,,,,,,,,,,0,61,61,61,,,,,,,,,,,,,,,,,,,,,a,1,1.1129841999791097,,,,,,,,,,,,qxs,m,19,2024_Apr_21_1445,mian,2021.2.3,60.057679390517265,
e6,2,1,6.0,l,"[-0.2, -0.2]",,,,,,,,,,,,,,,,0,62,62,62,,,,,,,,,,,,,,,,,,,,,l,1,2.017860899999505,,,,,,,,,,,,qxs,m,19,2024_Apr_21_1445,mian,2021.2.3,60.057679390517265,
3G,2,2,3.0,a,"[0.2, -0.2]",,,,,,,,,,,,,,,,0,63,63,63,,,,,,,,,,,,,,,,,,,,,a,1,0.6342323000135366,,,,,,,,,,,,qxs,m,19,2024_Apr_21_1445,mian,2021.2.3,60.057679390517265,
5E,1,1,E,a,"[0.2, 0.2]",,,,,,,,,,,,,,,,0,64,64,64,,,,,,,,,,,,,,,,,,,,,a,1,2.0190077000006568,,,,,,,,,,,,qxs,m,19,2024_Apr_21_1445,mian,2021.2.3,60.057679390517265,
A6,1,2,A,a,"[-0.2, 0.2]",,,,,,,,,,,,,,,,0,65,65,65,,,,,,,,,,,,,,,,,,,,,a,1,0.5984289000043646,,,,,,,,,,,,qxs,m,19,2024_Apr_21_1445,mian,2021.2.3,60.057679390517265,
E3,2,1,3.0,a,"[-0.2, -0.2]",,,,,,,,,,,,,,,,0,66,66,66,,,,,,,,,,,,,,,,,,,,,a,1,1.2006190000101924,,,,,,,,,,,,qxs,m,19,2024_Apr_21_1445,mian,2021.2.3,60.057679390517265,
2f,2,2,2.0,l,"[0.2, -0.2]",,,,,,,,,,,,,,,,0,67,67,67,,,,,,,,,,,,,,,,,,,,,l,1,1.0923752000089735,,,,,,,,,,,,qxs,m,19,2024_Apr_21_1445,mian,2021.2.3,60.057679390517265,
g3,1,1,g,l,"[0.2, 0.2]",,,,,,,,,,,,,,,,0,68,68,68,,,,,,,,,,,,,,,,,,,,,l,1,2.3354109000065364,,,,,,,,,,,,qxs,m,19,2024_Apr_21_1445,mian,2021.2.3,60.057679390517265,
E8,1,2,E,a,"[-0.2, 0.2]",,,,,,,,,,,,,,,,0,69,69,69,,,,,,,,,,,,,,,,,,,,,a,1,0.6563094000157434,,,,,,,,,,,,qxs,m,19,2024_Apr_21_1445,mian,2021.2.3,60.057679390517265,
6g,2,1,6.0,l,"[-0.2, -0.2]",,,,,,,,,,,,,,,,0,70,70,70,,,,,,,,,,,,,,,,,,,,,l,1,1.0577319999865722,,,,,,,,,,,,qxs,m,19,2024_Apr_21_1445,mian,2021.2.3,60.057679390517265,
5H,2,2,5.0,a,"[0.2, -0.2]",,,,,,,,,,,,,,,,0,71,71,71,,,,,,,,,,,,,,,,,,,,,a,1,0.6361551000154577,,,,,,,,,,,,qxs,m,19,2024_Apr_21_1445,mian,2021.2.3,60.057679390517265,
4A,1,1,A,a,"[0.2, 0.2]",,,,,,,,,,,,,,,,0,72,72,72,,,,,,,,,,,,,,,,,,,,,a,1,0.7932561000052374,,,,,,,,,,,,qxs,m,19,2024_Apr_21_1445,mian,2021.2.3,60.057679390517265,
7F,1,2,F,a,"[-0.2, 0.2]",,,,,,,,,,,,,,,,0,73,73,73,,,,,,,,,,,,,,,,,,,,,a,1,0.6840783999941777,,,,,,,,,,,,qxs,m,19,2024_Apr_21_1445,mian,2021.2.3,60.057679390517265,
6H,2,1,6.0,l,"[-0.2, -0.2]",,,,,,,,,,,,,,,,0,74,74,74,,,,,,,,,,,,,,,,,,,,,l,1,0.8912935999978799,,,,,,,,,,,,qxs,m,19,2024_Apr_21_1445,mian,2021.2.3,60.057679390517265,
3a,2,2,3.0,a,"[0.2, -0.2]",,,,,,,,,,,,,,,,0,75,75,75,,,,,,,,,,,,,,,,,,,,,a,1,0.6344518999976572,,,,,,,,,,,,qxs,m,19,2024_Apr_21_1445,mian,2021.2.3,60.057679390517265,
9F,1,1,F,a,"[0.2, 0.2]",,,,,,,,,,,,,,,,0,76,76,76,,,,,,,,,,,,,,,,,,,,,a,1,2.853129399998579,,,,,,,,,,,,qxs,m,19,2024_Apr_21_1445,mian,2021.2.3,60.057679390517265,
G7,1,2,G,a,"[-0.2, 0.2]",,,,,,,,,,,,,,,,0,77,77,77,,,,,,,,,,,,,,,,,,,,,a,1,0.5437346000107937,,,,,,,,,,,,qxs,m,19,2024_Apr_21_1445,mian,2021.2.3,60.057679390517265,
a6,2,1,6.0,l,"[-0.2, -0.2]",,,,,,,,,,,,,,,,0,78,78,78,,,,,,,,,,,,,,,,,,,,,l,1,0.6354050999798346,,,,,,,,,,,,qxs,m,19,2024_Apr_21_1445,mian,2021.2.3,60.057679390517265,
4h,2,2,4.0,l,"[0.2, -0.2]",,,,,,,,,,,,,,,,0,79,79,79,,,,,,,,,,,,,,,,,,,,,l,1,0.6712415000074543,,,,,,,,,,,,qxs,m,19,2024_Apr_21_1445,mian,2021.2.3,60.057679390517265,
6A,1,1,A,a,"[0.2, 0.2]",,,,,,,,,,,,,,,,,,,,0,0,0,0,,,,,,,,,,,,,,,,,a,1,3.362676899996586,,,,,,,,,,,,qxs,m,19,2024_Apr_21_1445,mian,2021.2.3,60.057679390517265,
4H,1,2,H,a,"[-0.2, 0.2]",,,,,,,,,,,,,,,,,,,,0,1,1,1,,,,,,,,,,,,,,,,,a,1,0.9141249000094831,,,,,,,,,,,,qxs,m,19,2024_Apr_21_1445,mian,2021.2.3,60.057679390517265,
3H,2,1,3.0,a,"[-0.2, -0.2]",,,,,,,,,,,,,,,,,,,,0,2,2,2,,,,,,,,,,,,,,,,,a,1,1.0388703000207897,,,,,,,,,,,,qxs,m,19,2024_Apr_21_1445,mian,2021.2.3,60.057679390517265,
a9,2,2,9.0,a,"[0.2, -0.2]",,,,,,,,,,,,,,,,,,,,0,3,3,3,,,,,,,,,,,,,,,,,a,1,0.7379790999984834,,,,,,,,,,,,qxs,m,19,2024_Apr_21_1445,mian,2021.2.3,60.057679390517265,
E7,1,1,E,a,"[0.2, 0.2]",,,,,,,,,,,,,,,,,,,,0,4,4,4,,,,,,,,,,,,,,,,,a,1,1.0750173999986146,,,,,,,,,,,,qxs,m,19,2024_Apr_21_1445,mian,2021.2.3,60.057679390517265,
6h,1,2,h,l,"[-0.2, 0.2]",,,,,,,,,,,,,,,,,,,,0,5,5,5,,,,,,,,,,,,,,,,,l,1,0.5445894000004046,,,,,,,,,,,,qxs,m,19,2024_Apr_21_1445,mian,2021.2.3,60.057679390517265,
8A,2,1,8.0,l,"[-0.2, -0.2]",,,,,,,,,,,,,,,,,,,,0,6,6,6,,,,,,,,,,,,,,,,,l,1,0.7246884999913163,,,,,,,,,,,,qxs,m,19,2024_Apr_21_1445,mian,2021.2.3,60.057679390517265,
f5,2,2,5.0,a,"[0.2, -0.2]",,,,,,,,,,,,,,,,,,,,0,7,7,7,,,,,,,,,,,,,,,,,a,1,1.4619038999953773,,,,,,,,,,,,qxs,m,19,2024_Apr_21_1445,mian,2021.2.3,60.057679390517265,
2a,1,1,a,l,"[0.2, 0.2]",,,,,,,,,,,,,,,,,,,,0,8,8,8,,,,,,,,,,,,,,,,,l,1,0.7766976999992039,,,,,,,,,,,,qxs,m,19,2024_Apr_21_1445,mian,2021.2.3,60.057679390517265,
F7,1,2,F,a,"[-0.2, 0.2]",,,,,,,,,,,,,,,,,,,,0,9,9,9,,,,,,,,,,,,,,,,,a,1,0.8534950999892317,,,,,,,,,,,,qxs,m,19,2024_Apr_21_1445,mian,2021.2.3,60.057679390517265,
h2,2,1,2.0,l,"[-0.2, -0.2]",,,,,,,,,,,,,,,,,,,,0,10,10,10,,,,,,,,,,,,,,,,,a,0,1.678206799988402,,,,,,,,,,,,qxs,m,19,2024_Apr_21_1445,mian,2021.2.3,60.057679390517265,
F5,2,2,5.0,a,"[0.2, -0.2]",,,,,,,,,,,,,,,,,,,,0,11,11,11,,,,,,,,,,,,,,,,,a,1,2.036594100005459,,,,,,,,,,,,qxs,m,19,2024_Apr_21_1445,mian,2021.2.3,60.057679390517265,
A9,1,1,A,a,"[0.2, 0.2]",,,,,,,,,,,,,,,,,,,,0,12,12,12,,,,,,,,,,,,,,,,,a,1,0.5534814999846276,,,,,,,,,,,,qxs,m,19,2024_Apr_21_1445,mian,2021.2.3,60.057679390517265,
3e,1,2,e,l,"[-0.2, 0.2]",,,,,,,,,,,,,,,,,,,,0,13,13,13,,,,,,,,,,,,,,,,,l,1,0.7683757999911904,,,,,,,,,,,,qxs,m,19,2024_Apr_21_1445,mian,2021.2.3,60.057679390517265,
f8,2,1,8.0,l,"[-0.2, -0.2]",,,,,,,,,,,,,,,,,,,,0,14,14,14,,,,,,,,,,,,,,,,,l,1,2.912692700017942,,,,,,,,,,,,qxs,m,19,2024_Apr_21_1445,mian,2021.2.3,60.057679390517265,
G2,2,2,2.0,l,"[0.2, -0.2]",,,,,,,,,,,,,,,,,,,,0,15,15,15,,,,,,,,,,,,,,,,,l,1,0.7524563999904785,,,,,,,,,,,,qxs,m,19,2024_Apr_21_1445,mian,2021.2.3,60.057679390517265,
F2,1,1,F,a,"[0.2, 0.2]",,,,,,,,,,,,,,,,,,,,0,16,16,16,,,,,,,,,,,,,,,,,a,1,0.704297599993879,,,,,,,,,,,,qxs,m,19,2024_Apr_21_1445,mian,2021.2.3,60.057679390517265,
5e,1,2,e,l,"[-0.2, 0.2]",,,,,,,,,,,,,,,,,,,,0,17,17,17,,,,,,,,,,,,,,,,,l,1,0.8502489999809768,,,,,,,,,,,,qxs,m,19,2024_Apr_21_1445,mian,2021.2.3,60.057679390517265,
A3,2,1,3.0,a,"[-0.2, -0.2]",,,,,,,,,,,,,,,,,,,,0,18,18,18,,,,,,,,,,,,,,,,,a,1,0.7955964999855496,,,,,,,,,,,,qxs,m,19,2024_Apr_21_1445,mian,2021.2.3,60.057679390517265,
4g,2,2,4.0,l,"[0.2, -0.2]",,,,,,,,,,,,,,,,,,,,0,19,19,19,,,,,,,,,,,,,,,,,l,1,0.8836808000050951,,,,,,,,,,,,qxs,m,19,2024_Apr_21_1445,mian,2021.2.3,60.057679390517265,
h7,1,1,h,l,"[0.2, 0.2]",,,,,,,,,,,,,,,,,,,,0,20,20,20,,,,,,,,,,,,,,,,,l,1,0.8216350000002421,,,,,,,,,,,,qxs,m,19,2024_Apr_21_1445,mian,2021.2.3,60.057679390517265,
3g,1,2,g,l,"[-0.2, 0.2]",,,,,,,,,,,,,,,,,,,,0,21,21,21,,,,,,,,,,,,,,,,,l,1,0.712566300004255,,,,,,,,,,,,qxs,m,19,2024_Apr_21_1445,mian,2021.2.3,60.057679390517265,
8a,2,1,8.0,l,"[-0.2, -0.2]",,,,,,,,,,,,,,,,,,,,0,22,22,22,,,,,,,,,,,,,,,,,l,1,1.506864900002256,,,,,,,,,,,,qxs,m,19,2024_Apr_21_1445,mian,2021.2.3,60.057679390517265,
4E,2,2,4.0,l,"[0.2, -0.2]",,,,,,,,,,,,,,,,,,,,0,23,23,23,,,,,,,,,,,,,,,,,l,1,0.6543418999935966,,,,,,,,,,,,qxs,m,19,2024_Apr_21_1445,mian,2021.2.3,60.057679390517265,
E5,1,1,E,a,"[0.2, 0.2]",,,,,,,,,,,,,,,,,,,,0,24,24,24,,,,,,,,,,,,,,,,,a,1,2.825197800004389,,,,,,,,,,,,qxs,m,19,2024_Apr_21_1445,mian,2021.2.3,60.057679390517265,
g6,1,2,g,l,"[-0.2, 0.2]",,,,,,,,,,,,,,,,,,,,0,25,25,25,,,,,,,,,,,,,,,,,l,1,0.6150694999960251,,,,,,,,,,,,qxs,m,19,2024_Apr_21_1445,mian,2021.2.3,60.057679390517265,
2e,2,1,2.0,l,"[-0.2, -0.2]",,,,,,,,,,,,,,,,,,,,0,26,26,26,,,,,,,,,,,,,,,,,l,1,2.792746899998747,,,,,,,,,,,,qxs,m,19,2024_Apr_21_1445,mian,2021.2.3,60.057679390517265,
h8,2,2,8.0,l,"[0.2, -0.2]",,,,,,,,,,,,,,,,,,,,0,27,27,27,,,,,,,,,,,,,,,,,l,1,0.6007267000095453,,,,,,,,,,,,qxs,m,19,2024_Apr_21_1445,mian,2021.2.3,60.057679390517265,
G6,1,1,G,a,"[0.2, 0.2]",,,,,,,,,,,,,,,,,,,,0,28,28,28,,,,,,,,,,,,,,,,,a,1,1.0241066999733448,,,,,,,,,,,,qxs,m,19,2024_Apr_21_1445,mian,2021.2.3,60.057679390517265,
a4,1,2,a,l,"[-0.2, 0.2]",,,,,,,,,,,,,,,,,,,,0,29,29,29,,,,,,,,,,,,,,,,,l,1,0.6937210999894887,,,,,,,,,,,,qxs,m,19,2024_Apr_21_1445,mian,2021.2.3,60.057679390517265,
9H,2,1,9.0,a,"[-0.2, -0.2]",,,,,,,,,,,,,,,,,,,,0,30,30,30,,,,,,,,,,,,,,,,,a,1,1.4350700000068173,,,,,,,,,,,,qxs,m,19,2024_Apr_21_1445,mian,2021.2.3,60.057679390517265,
7H,2,2,7.0,a,"[0.2, -0.2]",,,,,,,,,,,,,,,,,,,,0,31,31,31,,,,,,,,,,,,,,,,,a,1,0.6822271000128239,,,,,,,,,,,,qxs,m,19,2024_Apr_21_1445,mian,2021.2.3,60.057679390517265,
9f,1,1,f,l,"[0.2, 0.2]",,,,,,,,,,,,,,,,,,,,0,32,32,32,,,,,,,,,,,,,,,,,l,1,1.107882000011159,,,,,,,,,,,,qxs,m,19,2024_Apr_21_1445,mian,2021.2.3,60.057679390517265,
8E,1,2,E,a,"[-0.2, 0.2]",,,,,,,,,,,,,,,,,,,,0,33,33,33,,,,,,,,,,,,,,,,,a,1,0.501945900003193,,,,,,,,,,,,qxs,m,19,2024_Apr_21_1445,mian,2021.2.3,60.057679390517265,
A2,2,1,2.0,l,"[-0.2, -0.2]",,,,,,,,,,,,,,,,,,,,0,34,34,34,,,,,,,,,,,,,,,,,l,1,1.365221499989275,,,,,,,,,,,,qxs,m,19,2024_Apr_21_1445,mian,2021.2.3,60.057679390517265,
H7,2,2,7.0,a,"[0.2, -0.2]",,,,,,,,,,,,,,,,,,,,0,35,35,35,,,,,,,,,,,,,,,,,a,1,0.8060111999802757,,,,,,,,,,,,qxs,m,19,2024_Apr_21_1445,mian,2021.2.3,60.057679390517265,
h9,1,1,h,l,"[0.2, 0.2]",,,,,,,,,,,,,,,,,,,,0,36,36,36,,,,,,,,,,,,,,,,,l,1,1.5185297999996692,,,,,,,,,,,,qxs,m,19,2024_Apr_21_1445,mian,2021.2.3,60.057679390517265,
8G,1,2,G,a,"[-0.2, 0.2]",,,,,,,,,,,,,,,,,,,,0,37,37,37,,,,,,,,,,,,,,,,,a,1,1.435192000004463,,,,,,,,,,,,qxs,m,19,2024_Apr_21_1445,mian,2021.2.3,60.057679390517265,
H4,2,1,4.0,l,"[-0.2, -0.2]",,,,,,,,,,,,,,,,,,,,0,38,38,38,,,,,,,,,,,,,,,,,a,0,0.8643461000174284,,,,,,,,,,,,qxs,m,19,2024_Apr_21_1445,mian,2021.2.3,60.057679390517265,
A8,2,2,8.0,l,"[0.2, -0.2]",,,,,,,,,,,,,,,,,,,,0,39,39,39,,,,,,,,,,,,,,,,,l,1,1.21843949999311,,,,,,,,,,,,qxs,m,19,2024_Apr_21_1445,mian,2021.2.3,60.057679390517265,
g7,1,1,g,l,"[0.2, 0.2]",,,,,,,,,,,,,,,,,,,,0,40,40,40,,,,,,,,,,,,,,,,,l,1,3.767420900025172,,,,,,,,,,,,qxs,m,19,2024_Apr_21_1445,mian,2021.2.3,60.057679390517265,
H9,1,2,H,a,"[-0.2, 0.2]",,,,,,,,,,,,,,,,,,,,0,41,41,41,,,,,,,,,,,,,,,,,a,1,0.5960109000152443,,,,,,,,,,,,qxs,m,19,2024_Apr_21_1445,mian,2021.2.3,60.057679390517265,
9E,2,1,9.0,a,"[-0.2, -0.2]",,,,,,,,,,,,,,,,,,,,0,42,42,42,,,,,,,,,,,,,,,,,a,1,1.9241405999928247,,,,,,,,,,,,qxs,m,19,2024_Apr_21_1445,mian,2021.2.3,60.057679390517265,
a5,2,2,5.0,a,"[0.2, -0.2]",,,,,,,,,,,,,,,,,,,,0,43,43,43,,,,,,,,,,,,,,,,,a,1,0.8589257000130601,,,,,,,,,,,,qxs,m,19,2024_Apr_21_1445,mian,2021.2.3,60.057679390517265,
3E,1,1,E,a,"[0.2, 0.2]",,,,,,,,,,,,,,,,,,,,0,44,44,44,,,,,,,,,,,,,,,,,a,1,2.0110211000137497,,,,,,,,,,,,qxs,m,19,2024_Apr_21_1445,mian,2021.2.3,60.057679390517265,
6f,1,2,f,l,"[-0.2, 0.2]",,,,,,,,,,,,,,,,,,,,0,45,45,45,,,,,,,,,,,,,,,,,l,1,0.5948433000012301,,,,,,,,,,,,qxs,m,19,2024_Apr_21_1445,mian,2021.2.3,60.057679390517265,
g8,2,1,8.0,l,"[-0.2, -0.2]",,,,,,,,,,,,,,,,,,,,0,46,46,46,,,,,,,,,,,,,,,,,l,1,2.956388499995228,,,,,,,,,,,,qxs,m,19,2024_Apr_21_1445,mian,2021.2.3,60.057679390517265,
4F,2,2,4.0,l,"[0.2, -0.2]",,,,,,,,,,,,,,,,,,,,0,47,47,47,,,,,,,,,,,,,,,,,l,1,0.6645004999882076,,,,,,,,,,,,qxs,m,19,2024_Apr_21_1445,mian,2021.2.3,60.057679390517265,
4a,1,1,a,l,"[0.2, 0.2]",,,,,,,,,,,,,,,,,,,,0,48,48,48,,,,,,,,,,,,,,,,,a,0,1.1001543999882415,,,,,,,,,,,,qxs,m,19,2024_Apr_21_1445,mian,2021.2.3,60.057679390517265,
e3,1,2,e,l,"[-0.2, 0.2]",,,,,,,,,,,,,,,,,,,,0,49,49,49,,,,,,,,,,,,,,,,,l,1,1.4749676000210457,,,,,,,,,,,,qxs,m,19,2024_Apr_21_1445,mian,2021.2.3,60.057679390517265,
5g,2,1,5.0,a,"[-0.2, -0.2]",,,,,,,,,,,,,,,,,,,,0,50,50,50,,,,,,,,,,,,,,,,,None,0,,,,,,,,,,,,,qxs,m,19,2024_Apr_21_1445,mian,2021.2.3,60.057679390517265,
f4,2,2,4.0,l,"[0.2, -0.2]",,,,,,,,,,,,,,,,,,,,0,51,51,51,,,,,,,,,,,,,,,,,l,1,1.7044800000148825,,,,,,,,,,,,qxs,m,19,2024_Apr_21_1445,mian,2021.2.3,60.057679390517265,
6E,1,1,E,a,"[0.2, 0.2]",,,,,,,,,,,,,,,,,,,,0,52,52,52,,,,,,,,,,,,,,,,,a,1,1.6934820000024047,,,,,,,,,,,,qxs,m,19,2024_Apr_21_1445,mian,2021.2.3,60.057679390517265,
7A,1,2,A,a,"[-0.2, 0.2]",,,,,,,,,,,,,,,,,,,,0,53,53,53,,,,,,,,,,,,,,,,,a,1,0.7952684999909252,,,,,,,,,,,,qxs,m,19,2024_Apr_21_1445,mian,2021.2.3,60.057679390517265,
F4,2,1,4.0,l,"[-0.2, -0.2]",,,,,,,,,,,,,,,,,,,,0,54,54,54,,,,,,,,,,,,,,,,,l,1,1.2683949999918696,,,,,,,,,,,,qxs,m,19,2024_Apr_21_1445,mian,2021.2.3,60.057679390517265,
2g,2,2,2.0,l,"[0.2, -0.2]",,,,,,,,,,,,,,,,,,,,0,55,55,55,,,,,,,,,,,,,,,,,l,1,1.4655688000202645,,,,,,,,,,,,qxs,m,19,2024_Apr_21_1445,mian,2021.2.3,60.057679390517265,
7E,1,1,E,a,"[0.2, 0.2]",,,,,,,,,,,,,,,,,,,,0,56,56,56,,,,,,,,,,,,,,,,,a,1,0.8661281999957282,,,,,,,,,,,,qxs,m,19,2024_Apr_21_1445,mian,2021.2.3,60.057679390517265,
G4,1,2,G,a,"[-0.2, 0.2]",,,,,,,,,,,,,,,,,,,,0,57,57,57,,,,,,,,,,,,,,,,,a,1,0.5838378999906126,,,,,,,,,,,,qxs,m,19,2024_Apr_21_1445,mian,2021.2.3,60.057679390517265,
2F,2,1,2.0,l,"[-0.2, -0.2]",,,,,,,,,,,,,,,,,,,,0,58,58,58,,,,,,,,,,,,,,,,,l,1,1.187736899999436,,,,,,,,,,,,qxs,m,19,2024_Apr_21_1445,mian,2021.2.3,60.057679390517265,
E9,2,2,9.0,a,"[0.2, -0.2]",,,,,,,,,,,,,,,,,,,,0,59,59,59,,,,,,,,,,,,,,,,,a,1,0.6194975999824237,,,,,,,,,,,,qxs,m,19,2024_Apr_21_1445,mian,2021.2.3,60.057679390517265,
5f,1,1,f,l,"[0.2, 0.2]",,,,,,,,,,,,,,,,,,,,0,60,60,60,,,,,,,,,,,,,,,,,l,1,0.8664838999975473,,,,,,,,,,,,qxs,m,19,2024_Apr_21_1445,mian,2021.2.3,60.057679390517265,
e7,1,2,e,l,"[-0.2, 0.2]",,,,,,,,,,,,,,,,,,,,0,61,61,61,,,,,,,,,,,,,,,,,l,1,0.629544800001895,,,,,,,,,,,,qxs,m,19,2024_Apr_21_1445,mian,2021.2.3,60.057679390517265,
f2,2,1,2.0,l,"[-0.2, -0.2]",,,,,,,,,,,,,,,,,,,,0,62,62,62,,,,,,,,,,,,,,,,,l,1,0.6974895000166725,,,,,,,,,,,,qxs,m,19,2024_Apr_21_1445,mian,2021.2.3,60.057679390517265,
G9,2,2,9.0,a,"[0.2, -0.2]",,,,,,,,,,,,,,,,,,,,0,63,63,63,,,,,,,,,,,,,,,,,a,1,0.6258067000017036,,,,,,,,,,,,qxs,m,19,2024_Apr_21_1445,mian,2021.2.3,60.057679390517265,
7g,1,1,g,l,"[0.2, 0.2]",,,,,,,,,,,,,,,,,,,,0,64,64,64,,,,,,,,,,,,,,,,,l,1,0.7619765999843366,,,,,,,,,,,,qxs,m,19,2024_Apr_21_1445,mian,2021.2.3,60.057679390517265,
F8,1,2,F,a,"[-0.2, 0.2]",,,,,,,,,,,,,,,,,,,,0,65,65,65,,,,,,,,,,,,,,,,,a,1,0.6966385999985505,,,,,,,,,,,,qxs,m,19,2024_Apr_21_1445,mian,2021.2.3,60.057679390517265,
A7,2,1,7.0,a,"[-0.2, -0.2]",,,,,,,,,,,,,,,,,,,,0,66,66,66,,,,,,,,,,,,,,,,,a,1,1.3458420000097249,,,,,,,,,,,,qxs,m,19,2024_Apr_21_1445,mian,2021.2.3,60.057679390517265,
4G,2,2,4.0,l,"[0.2, -0.2]",,,,,,,,,,,,,,,,,,,,0,67,67,67,,,,,,,,,,,,,,,,,l,1,0.5630441000103019,,,,,,,,,,,,qxs,m,19,2024_Apr_21_1445,mian,2021.2.3,60.057679390517265,
g2,1,1,g,l,"[0.2, 0.2]",,,,,,,,,,,,,,,,,,,,0,68,68,68,,,,,,,,,,,,,,,,,l,1,0.8148012000019662,,,,,,,,,,,,qxs,m,19,2024_Apr_21_1445,mian,2021.2.3,60.057679390517265,
g4,1,2,g,l,"[-0.2, 0.2]",,,,,,,,,,,,,,,,,,,,0,69,69,69,,,,,,,,,,,,,,,,,l,1,0.6994232000142802,,,,,,,,,,,,qxs,m,19,2024_Apr_21_1445,mian,2021.2.3,60.057679390517265,
7a,2,1,7.0,a,"[-0.2, -0.2]",,,,,,,,,,,,,,,,,,,,0,70,70,70,,,,,,,,,,,,,,,,,a,1,1.0523193000117317,,,,,,,,,,,,qxs,m,19,2024_Apr_21_1445,mian,2021.2.3,60.057679390517265,
8e,2,2,8.0,l,"[0.2, -0.2]",,,,,,,,,,,,,,,,,,,,0,71,71,71,,,,,,,,,,,,,,,,,l,1,0.5458695999986958,,,,,,,,,,,,qxs,m,19,2024_Apr_21_1445,mian,2021.2.3,60.057679390517265,
h4,1,1,h,l,"[0.2, 0.2]",,,,,,,,,,,,,,,,,,,,0,72,72,72,,,,,,,,,,,,,,,,,l,1,0.6266514000017196,,,,,,,,,,,,qxs,m,19,2024_Apr_21_1445,mian,2021.2.3,60.057679390517265,
G8,1,2,G,a,"[-0.2, 0.2]",,,,,,,,,,,,,,,,,,,,0,73,73,73,,,,,,,,,,,,,,,,,a,1,0.5941547999973409,,,,,,,,,,,,qxs,m,19,2024_Apr_21_1445,mian,2021.2.3,60.057679390517265,
6F,2,1,6.0,l,"[-0.2, -0.2]",,,,,,,,,,,,,,,,,,,,0,74,74,74,,,,,,,,,,,,,,,,,l,1,1.6086766000080388,,,,,,,,,,,,qxs,m,19,2024_Apr_21_1445,mian,2021.2.3,60.057679390517265,
g5,2,2,5.0,a,"[0.2, -0.2]",,,,,,,,,,,,,,,,,,,,0,75,75,75,,,,,,,,,,,,,,,,,a,1,0.6647380999929737,,,,,,,,,,,,qxs,m,19,2024_Apr_21_1445,mian,2021.2.3,60.057679390517265,
G5,1,1,G,a,"[0.2, 0.2]",,,,,,,,,,,,,,,,,,,,0,76,76,76,,,,,,,,,,,,,,,,,a,1,3.8290242000075523,,,,,,,,,,,,qxs,m,19,2024_Apr_21_1445,mian,2021.2.3,60.057679390517265,
h5,1,2,h,l,"[-0.2, 0.2]",,,,,,,,,,,,,,,,,,,,0,77,77,77,,,,,,,,,,,,,,,,,l,1,0.6425869000086095,,,,,,,,,,,,qxs,m,19,2024_Apr_21_1445,mian,2021.2.3,60.057679390517265,
9G,2,1,9.0,a,"[-0.2, -0.2]",,,,,,,,,,,,,,,,,,,,0,78,78,78,,,,,,,,,,,,,,,,,a,1,1.579772500001127,,,,,,,,,,,,qxs,m,19,2024_Apr_21_1445,mian,2021.2.3,60.057679390517265,
F3,2,2,3.0,a,"[0.2, -0.2]",,,,,,,,,,,,,,,,,,,,0,79,79,79,,,,,,,,,,,,,,,,,a,1,0.7427794999966864,,,,,,,,,,,,qxs,m,19,2024_Apr_21_1445,mian,2021.2.3,60.057679390517265,
,,,,,,0,0,pic/flanker6.png,pic/flanker2.png,a,l,,,,,,,,,,,,,,,,,,0,0,0,0,0,0,0,1,,,,,,,,,,,,565.412359399983,None,564.2296195999952,565.4289420999994,a,1,1.0764935000042897,伤心,l,1,2.0099984999978915,qxs,m,19,2024_Apr_21_1445,mian,2021.2.3,60.057679390517265,
,,,,,,0,0,pic/flanker5.png,pic/flanker1.png,s,l,,,,,,,,,,,,,,,,,,0,0,0,0,0,1,1,3,,,,,,,,,,,,570.5286593000055,None,569.3451963999833,570.5452571999922,s,1,0.5069796000025235,损害,l,1,0.955607100011548,qxs,m,19,2024_Apr_21_1445,mian,2021.2.3,60.057679390517265,
,,,,,,1,0,pic/flanker5.png,pic/flanker3.png,a,l,,,,,,,,,,,,,,,,,,0,0,0,0,0,2,2,7,,,,,,,,,,,,574.1117100999982,None,572.9284035000019,574.1283481999999,None,0,,闷热,l,1,1.996623200015165,qxs,m,19,2024_Apr_21_1445,mian,2021.2.3,60.057679390517265,
,,,,,,1,0,pic/flanker6.png,pic/flanker4.png,s,l,,,,,,,,,,,,,,,,,,0,0,0,0,0,3,3,5,,,,,,,,,,,,579.3284412999928,None,578.144853100006,579.3446359999944,s,1,1.0652970999944955,懒惰,l,1,1.2198550000030082,qxs,m,19,2024_Apr_21_1445,mian,2021.2.3,60.057679390517265,
,,,,,,0,1,pic/flanker6.png,pic/flanker2.png,a,k,,,,,,,,,,,,,,,,,,0,0,0,0,0,4,4,2,,,,,,,,,,,,583.6939038999844,None,582.5105717999977,583.7104123999889,a,1,0.35495919999084435,精致,k,1,0.838075600011507,qxs,m,19,2024_Apr_21_1445,mian,2021.2.3,60.057679390517265,
,,,,,,0,1,pic/flanker5.png,pic/flanker1.png,s,k,,,,,,,,,,,,,,,,,,0,0,0,0,0,5,5,0,,,,,,,,,,,,586.9605657999928,None,585.7771846000105,586.9772642999887,s,1,0.6344524000014644,敬佩,k,1,0.8883691999944858,qxs,m,19,2024_Apr_21_1445,mian,2021.2.3,60.057679390517265,
,,,,,,1,1,pic/flanker6.png,pic/flanker4.png,s,k,,,,,,,,,,,,,,,,,,0,0,0,0,0,6,6,6,,,,,,,,,,,,590.3936193999834,None,589.2099102000066,590.4100272000069,s,1,0.5976663999899756,丰满,k,1,0.8915166000078898,qxs,m,19,2024_Apr_21_1445,mian,2021.2.3,60.057679390517265,
,,,,,,1,1,pic/flanker5.png,pic/flanker3.png,a,k,,,,,,,,,,,,,,,,,,0,0,0,0,0,7,7,4,,,,,,,,,,,,593.7429512999952,None,592.5599382999935,593.760160899983,a,1,0.45242180000059307,圣洁,k,1,0.8146541000169236,qxs,m,19,2024_Apr_21_1445,mian,2021.2.3,60.057679390517265,
,,,,,,,,,,,,,,,,,,,,,,,,,,,,,0,0,0,0,,,,,,,,,,,,,,,,,,,,,,,,,,,qxs,m,19,2024_Apr_21_1445,mian,2021.2.3,60.057679390517265,
,,,,,,0,1,pic/flanker5.png,pic/flanker1.png,s,k,pic/AffRest1.png,,,,,,,,,,,,,,,,,,,,,,,,,0,0,0,0,0,0,0,64,,,,606.6584409000061,None,605.4754140999867,606.6750616999925,s,1,0.458962699980475,畅销,k,1,0.9341074999829289,qxs,m,19,2024_Apr_21_1445,mian,2021.2.3,60.057679390517265,
,,,,,,0,1,pic/flanker6.png,pic/flanker2.png,a,k,pic/AffRest1.png,,,,,,,,,,,,,,,,,,,,,,,,,0,0,0,0,0,1,1,26,,,,610.1080239999865,None,608.9247790999943,610.1247360999987,a,1,0.3975503999972716,爽朗,k,1,0.6999700000160374,qxs,m,19,2024_Apr_21_1445,mian,2021.2.3,60.057679390517265,
,,,,,,1,0,pic/flanker6.png,pic/flanker4.png,s,l,pic/AffRest1.png,,,,,,,,,,,,,,,,,,,,,,,,,0,0,0,0,0,2,2,29,,,,613.20802369999,None,612.0244933000067,613.2243918000022,s,1,0.4506546999909915,烦恼,l,1,0.7740970000158995,qxs,m,19,2024_Apr_21_1445,mian,2021.2.3,60.057679390517265,
,,,,,,0,0,pic/flanker6.png,pic/flanker2.png,a,l,pic/AffRest1.png,,,,,,,,,,,,,,,,,,,,,,,,,0,0,0,0,0,3,3,9,,,,616.3909818000102,None,615.2077226999972,616.4077671999985,a,1,0.3004265000054147,假冒,l,1,1.1805295000085607,qxs,m,19,2024_Apr_21_1445,mian,2021.2.3,60.057679390517265,
,,,,,,1,1,pic/flanker6.png,pic/flanker4.png,s,k,pic/AffRest1.png,,,,,,,,,,,,,,,,,,,,,,,,,0,0,0,0,0,4,4,46,,,,619.8739085999841,None,618.6905897000106,619.8905203999893,s,1,0.5236534999858122,充裕,k,1,0.626027200021781,qxs,m,19,2024_Apr_21_1445,mian,2021.2.3,60.057679390517265,
,,,,,,0,1,pic/flanker5.png,pic/flanker1.png,s,k,pic/AffRest1.png,,,,,,,,,,,,,,,,,,,,,,,,,0,0,0,0,0,5,5,40,,,,623.0405211999896,None,621.8571522999846,623.0570169999846,s,1,0.32889720000093803,俊秀,k,1,0.8273448999971151,qxs,m,19,2024_Apr_21_1445,mian,2021.2.3,60.057679390517265,
,,,,,,1,0,pic/flanker6.png,pic/flanker4.png,s,l,pic/AffRest1.png,,,,,,,,,,,,,,,,,,,,,,,,,0,0,0,0,0,6,6,13,,,,626.1564231000084,None,624.9743210999877,626.1899065999896,s,1,0.504679900011979,轻率,l,1,1.026519900013227,qxs,m,19,2024_Apr_21_1445,mian,2021.2.3,60.057679390517265,
,,,,,,1,0,pic/flanker5.png,pic/flanker3.png,a,l,pic/AffRest1.png,,,,,,,,,,,,,,,,,,,,,,,,,0,0,0,0,0,7,7,31,,,,629.6561368999828,None,628.473648299987,629.6732871999848,a,1,0.516919500019867,穷苦,l,1,0.8228582000010647,qxs,m,19,2024_Apr_21_1445,mian,2021.2.3,60.057679390517265,
,,,,,,0,0,pic/flanker5.png,pic/flanker1.png,s,l,pic/AffRest1.png,,,,,,,,,,,,,,,,,,,,,,,,,0,0,0,0,0,8,8,3,,,,633.0226628000091,None,631.8393852000008,633.039140399982,s,1,0.36938800002099015,心慌,l,1,0.9227803999965545,qxs,m,19,2024_Apr_21_1445,mian,2021.2.3,60.057679390517265,
,,,,,,0,0,pic/flanker5.png,pic/flanker1.png,s,l,pic/AffRest1.png,,,,,,,,,,,,,,,,,,,,,,,,,0,0,0,0,0,9,9,75,,,,636.2722851999861,None,635.0891817999945,636.2889961999899,s,1,0.3578984999912791,怀疑,l,1,0.8400760999938939,qxs,m,19,2024_Apr_21_1445,mian,2021.2.3,60.057679390517265,
,,,,,,1,0,pic/flanker6.png,pic/flanker4.png,s,l,pic/AffRest1.png,,,,,,,,,,,,,,,,,,,,,,,,,0,0,0,0,0,10,10,45,,,,639.4884019999881,None,638.3052652000042,639.5054469000024,s,1,0.5236617999908049,自卑,l,1,0.6926655000133906,qxs,m,19,2024_Apr_21_1445,mian,2021.2.3,60.057679390517265,
,,,,,,1,1,pic/flanker6.png,pic/flanker4.png,s,k,pic/AffRest1.png,,,,,,,,,,,,,,,,,,,,,,,,,0,0,0,0,0,11,11,78,,,,642.6234262000071,None,641.4382063999947,642.6399575999822,s,1,0.5158423000248149,敬佩,k,1,0.8587505999894347,qxs,m,19,2024_Apr_21_1445,mian,2021.2.3,60.057679390517265,
,,,,,,1,1,pic/flanker5.png,pic/flanker3.png,a,k,pic/AffRest1.png,,,,,,,,,,,,,,,,,,,,,,,,,0,0,0,0,0,12,12,36,,,,645.8880160999834,None,644.7050492999842,645.9047331000038,a,1,0.5437018000229727,典雅,k,1,0.7894555999955628,qxs,m,19,2024_Apr_21_1445,mian,2021.2.3,60.057679390517265,
,,,,,,0,1,pic/flanker5.png,pic/flanker1.png,s,k,pic/AffRest1.png,,,,,,,,,,,,,,,,,,,,,,,,,0,0,0,0,0,13,13,0,,,,649.1377404000086,None,647.9542886999843,649.1547605000087,s,1,0.3450230000016745,旺盛,k,1,0.6526834999967832,qxs,m,19,2024_Apr_21_1445,mian,2021.2.3,60.057679390517265,
,,,,,,0,1,pic/flanker5.png,pic/flanker1.png,s,k,pic/AffRest1.png,,,,,,,,,,,,,,,,,,,,,,,,,0,0,0,0,0,14,14,16,,,,652.0050982999965,None,650.8209295999841,652.0206472999998,s,1,0.3324281999957748,留恋,k,1,0.6819303000229411,qxs,m,19,2024_Apr_21_1445,mian,2021.2.3,60.057679390517265,
,,,,,,1,0,pic/flanker6.png,pic/flanker4.png,s,l,pic/AffRest1.png,,,,,,,,,,,,,,,,,,,,,,,,,0,0,0,0,0,15,15,61,,,,655.0036950999929,None,653.8207485000021,655.0204514999932,s,1,0.4787278999865521,浪费,l,1,0.7065522000193596,qxs,m,19,2024_Apr_21_1445,mian,2021.2.3,60.057679390517265,
,,,,,,1,0,pic/flanker6.png,pic/flanker4.png,s,l,pic/AffRest1.png,,,,,,,,,,,,,,,,,,,,,,,,,0,0,0,0,0,16,16,77,,,,658.2037861999997,None,657.020088099991,658.2212014999823,s,1,0.4919330000120681,忧虑,l,1,0.6450124999973923,qxs,m,19,2024_Apr_21_1445,mian,2021.2.3,60.057679390517265,
,,,,,,1,1,pic/flanker6.png,pic/flanker4.png,s,k,pic/AffRest1.png,,,,,,,,,,,,,,,,,,,,,,,,,0,0,0,0,0,17,17,22,,,,661.4036604999856,None,660.2201305000053,661.420002400002,s,1,0.4769711999979336,丰满,k,1,0.6413955000170972,qxs,m,19,2024_Apr_21_1445,mian,2021.2.3,60.057679390517265,
,,,,,,1,1,pic/flanker5.png,pic/flanker3.png,a,k,pic/AffRest1.png,,,,,,,,,,,,,,,,,,,,,,,,,0,0,0,0,0,18,18,12,,,,664.4543664999946,None,663.2715490999981,664.4715921999887,a,1,0.6340397000021767,秀丽,k,1,0.5764552000036929,qxs,m,19,2024_Apr_21_1445,mian,2021.2.3,60.057679390517265,
,,,,,,0,0,pic/flanker5.png,pic/flanker1.png,s,l,pic/AffRest1.png,,,,,,,,,,,,,,,,,,,,,,,,,0,0,0,0,0,19,19,27,,,,667.6192239999946,None,666.4369154000015,667.6531062999857,s,1,0.44183049999992363,孤单,l,1,1.0084866999823134,qxs,m,19,2024_Apr_21_1445,mian,2021.2.3,60.057679390517265,
,,,,,,1,0,pic/flanker5.png,pic/flanker3.png,a,l,pic/AffRest1.png,,,,,,,,,,,,,,,,,,,,,,,,,0,0,0,0,0,20,20,23,,,,671.0026466999843,None,669.8189087999926,671.0191030999995,a,1,0.5429701000102796,落后,l,1,0.792880699998932,qxs,m,19,2024_Apr_21_1445,mian,2021.2.3,60.057679390517265,
,,,,,,1,1,pic/flanker5.png,pic/flanker3.png,a,k,pic/AffRest1.png,,,,,,,,,,,,,,,,,,,,,,,,,0,0,0,0,0,21,21,68,,,,674.2517947999877,None,673.0689532000106,674.2684167999832,a,1,0.5223651000123937,富足,k,1,0.564830899995286,qxs,m,19,2024_Apr_21_1445,mian,2021.2.3,60.057679390517265,
,,,,,,1,0,pic/flanker6.png,pic/flanker4.png,s,l,pic/AffRest1.png,,,,,,,,,,,,,,,,,,,,,,,,,0,0,0,0,0,22,22,37,,,,677.3518046000099,None,676.1683604999853,677.3681982999842,s,1,0.4766849000006914,嘲笑,l,1,0.7465315999870654,qxs,m,19,2024_Apr_21_1445,mian,2021.2.3,60.057679390517265,
,,,,,,0,0,pic/flanker6.png,pic/flanker2.png,a,l,pic/AffRest1.png,,,,,,,,,,,,,,,,,,,,,,,,,0,0,0,0,0,23,23,17,,,,680.5851668000105,None,679.4017414999835,680.6016145999893,a,1,0.4085311999951955,冷笑,l,1,0.9832556000037584,qxs,m,19,2024_Apr_21_1445,mian,2021.2.3,60.057679390517265,
,,,,,,1,1,pic/flanker6.png,pic/flanker4.png,s,k,pic/AffRest1.png,,,,,,,,,,,,,,,,,,,,,,,,,0,0,0,0,0,24,24,62,,,,683.9344420999987,None,682.7510237999959,683.9512843999837,s,1,0.4552683000219986,富丽,k,1,0.6536092000023928,qxs,m,19,2024_Apr_21_1445,mian,2021.2.3,60.057679390517265,
,,,,,,1,0,pic/flanker5.png,pic/flanker3.png,a,l,pic/AffRest1.png,,,,,,,,,,,,,,,,,,,,,,,,,0,0,0,0,0,25,25,55,,,,687.1193186999881,None,685.9359130999947,687.1355458000035,a,1,0.5467805999796838,损害,l,1,0.7905945999955293,qxs,m,19,2024_Apr_21_1445,mian,2021.2.3,60.057679390517265,
,,,,,,0,1,pic/flanker5.png,pic/flanker1.png,s,k,pic/AffRest1.png,,,,,,,,,,,,,,,,,,,,,,,,,0,0,0,0,0,26,26,72,,,,690.4188672000018,None,689.2355406999995,690.43555319999,s,1,0.3696734999830369,优雅,k,1,0.5038535000057891,qxs,m,19,2024_Apr_21_1445,mian,2021.2.3,60.057679390517265,
,,,,,,0,1,pic/flanker6.png,pic/flanker2.png,a,k,pic/AffRest1.png,,,,,,,,,,,,,,,,,,,,,,,,,0,0,0,0,0,27,27,50,,,,693.3005131999962,None,692.117090099986,693.3169505999831,a,1,0.3767304999928456,永恒,k,1,0.7692227000079583,qxs,m,19,2024_Apr_21_1445,mian,2021.2.3,60.057679390517265,
,,,,,,1,1,pic/flanker6.png,pic/flanker4.png,s,k,pic/AffRest1.png,,,,,,,,,,,,,,,,,,,,,,,,,0,0,0,0,0,28,28,30,,,,696.516564599995,None,695.3333879999991,696.5332728000067,s,1,0.4517166999867186,豪放,k,1,0.7406870000122581,qxs,m,19,2024_Apr_21_1445,mian,2021.2.3,60.057679390517265,
,,,,,,0,1,pic/flanker5.png,pic/flanker1.png,s,k,pic/AffRest1.png,,,,,,,,,,,,,,,,,,,,,,,,,0,0,0,0,0,29,29,56,,,,699.5667025999865,None,698.3828787000093,699.5830478999997,s,1,0.36471370002254844,精致,k,1,0.5184550999838393,qxs,m,19,2024_Apr_21_1445,mian,2021.2.3,60.057679390517265,
,,,,,,0,0,pic/flanker6.png,pic/flanker2.png,a,l,pic/AffRest1.png,,,,,,,,,,,,,,,,,,,,,,,,,0,0,0,0,0,30,30,49,,,,702.3158069000056,None,701.1341530999925,702.34935579999,a,1,0.34378499997546896,悲观,l,1,0.6271954999829177,qxs,m,19,2024_Apr_21_1445,mian,2021.2.3,60.057679390517265,
,,,,,,1,1,pic/flanker5.png,pic/flanker3.png,a,k,pic/AffRest1.png,,,,,,,,,,,,,,,,,,,,,,,,,0,0,0,0,0,31,31,44,,,,705.2995419999934,None,704.1156749000074,705.3161720999924,a,1,0.48301919997902587,享受,k,1,0.8098144000105094,qxs,m,19,2024_Apr_21_1445,mian,2021.2.3,60.057679390517265,
,,,,,,0,0,pic/flanker6.png,pic/flanker2.png,a,l,pic/AffRest1.png,,,,,,,,,,,,,,,,,,,,,,,,,0,0,0,0,0,32,32,25,,,,708.6321355999971,None,707.4488199999905,708.6486924999917,a,1,0.3359268000058364,丢失,l,1,0.5215248999884352,qxs,m,19,2024_Apr_21_1445,mian,2021.2.3,60.057679390517265,
,,,,,,0,1,pic/flanker6.png,pic/flanker2.png,a,k,pic/AffRest1.png,,,,,,,,,,,,,,,,,,,,,,,,,0,0,0,0,0,33,33,66,,,,711.4832554000022,None,710.3006307999894,711.4999592000095,a,1,0.3252044999971986,雄厚,k,1,0.5487347000162117,qxs,m,19,2024_Apr_21_1445,mian,2021.2.3,60.057679390517265,
,,,,,,0,0,pic/flanker6.png,pic/flanker2.png,a,l,pic/AffRest1.png,,,,,,,,,,,,,,,,,,,,,,,,,0,0,0,0,0,34,34,41,,,,714.3149056999828,None,713.1320665999956,714.331801399996,a,1,0.5366823000076693,罚款,l,1,0.6193228999909479,qxs,m,19,2024_Apr_21_1445,mian,2021.2.3,60.057679390517265,
,,,,,,1,1,pic/flanker6.png,pic/flanker4.png,s,k,pic/AffRest1.png,,,,,,,,,,,,,,,,,,,,,,,,,0,0,0,0,0,35,35,6,,,,717.3311408000009,None,716.1478448999987,717.3479222999886,s,1,0.41684130000066943,诚恳,k,1,2.4557988999877125,qxs,m,19,2024_Apr_21_1445,mian,2021.2.3,60.057679390517265,
,,,,,,0,1,pic/flanker6.png,pic/flanker2.png,a,k,pic/AffRest1.png,,,,,,,,,,,,,,,,,,,,,,,,,0,0,0,0,0,36,36,34,,,,722.0807977000077,None,720.8975940000091,722.0974411999923,a,1,0.32775409999885596,顽强,k,1,0.5272217000019737,qxs,m,19,2024_Apr_21_1445,mian,2021.2.3,60.057679390517265,
,,,,,,0,0,pic/flanker6.png,pic/flanker2.png,a,l,pic/AffRest1.png,,,,,,,,,,,,,,,,,,,,,,,,,0,0,0,0,0,37,37,73,,,,724.8969844999956,None,723.7142523000075,724.9135545000026,a,1,0.3484736999962479,争吵,l,1,0.49266990000614896,qxs,m,19,2024_Apr_21_1445,mian,2021.2.3,60.057679390517265,
,,,,,,1,0,pic/flanker5.png,pic/flanker3.png,a,l,pic/AffRest1.png,,,,,,,,,,,,,,,,,,,,,,,,,0,0,0,0,0,38,38,63,,,,727.7638696999929,None,726.5801643999876,727.7800620000053,a,1,0.4776324999984354,撒谎,l,1,0.8584906000178307,qxs,m,19,2024_Apr_21_1445,mian,2021.2.3,60.057679390517265,
,,,,,,1,0,pic/flanker5.png,pic/flanker3.png,a,l,pic/AffRest1.png,,,,,,,,,,,,,,,,,,,,,,,,,0,0,0,0,0,39,39,15,,,,731.0130606000021,None,729.8301588000031,731.0298633000057,a,1,0.46378990000812337,杂乱,l,1,0.6838128000090364,qxs,m,19,2024_Apr_21_1445,mian,2021.2.3,60.057679390517265,
,,,,,,0,1,pic/flanker6.png,pic/flanker2.png,a,k,pic/AffRest1.png,,,,,,,,,,,,,,,,,,,,,,,,,0,0,0,0,0,40,40,18,,,,734.1129328999959,None,732.929607099999,734.1293890000088,a,1,0.35106420001829974,奉献,k,1,0.4659749999991618,qxs,m,19,2024_Apr_21_1445,mian,2021.2.3,60.057679390517265,
,,,,,,1,0,pic/flanker5.png,pic/flanker3.png,a,l,pic/AffRest1.png,,,,,,,,,,,,,,,,,,,,,,,,,0,0,0,0,0,41,41,79,,,,736.9293490999844,None,735.7458075000031,736.9459896000044,a,1,0.4717579999996815,鲁莽,l,1,0.722776700014947,qxs,m,19,2024_Apr_21_1445,mian,2021.2.3,60.057679390517265,
,,,,,,1,1,pic/flanker6.png,pic/flanker4.png,s,k,pic/AffRest1.png,,,,,,,,,,,,,,,,,,,,,,,,,0,0,0,0,0,42,42,70,,,,740.0954412999854,None,738.9126502999861,740.1119450999831,s,1,0.5102535999903921,廉洁,k,1,1.592457300022943,qxs,m,19,2024_Apr_21_1445,mian,2021.2.3,60.057679390517265,
,,,,,,1,1,pic/flanker5.png,pic/flanker3.png,a,k,pic/AffRest1.png,,,,,,,,,,,,,,,,,,,,,,,,,0,0,0,0,0,43,43,52,,,,744.1454232000106,None,742.9626776000077,744.16206219999,a,1,0.4404633000085596,舒畅,k,1,0.5180125000188127,qxs,m,19,2024_Apr_21_1445,mian,2021.2.3,60.057679390517265,
,,,,,,1,1,pic/flanker5.png,pic/flanker3.png,a,k,pic/AffRest1.png,,,,,,,,,,,,,,,,,,,,,,,,,0,0,0,0,0,44,44,60,,,,747.1616850999999,None,745.9785561999888,747.1785511999915,a,1,0.47669939999468625,有利,k,1,0.5521758999966551,qxs,m,19,2024_Apr_21_1445,mian,2021.2.3,60.057679390517265,
,,,,,,0,1,pic/flanker6.png,pic/flanker2.png,a,k,pic/AffRest1.png,,,,,,,,,,,,,,,,,,,,,,,,,0,0,0,0,0,45,45,42,,,,750.0613883000042,None,748.8781355000101,750.0780602000013,a,1,0.33108120001270436,赞成,k,1,0.4348928999970667,qxs,m,19,2024_Apr_21_1445,mian,2021.2.3,60.057679390517265,
,,,,,,1,0,pic/flanker6.png,pic/flanker4.png,s,l,pic/AffRest1.png,,,,,,,,,,,,,,,,,,,,,,,,,0,0,0,0,0,46,46,53,,,,752.7111709000019,None,751.5278526000038,752.7276666999969,s,1,0.4964280999847688,排斥,k,0,0.3973159000161104,qxs,m,19,2024_Apr_21_1445,mian,2021.2.3,60.057679390517265,
,,,,,,1,0,pic/flanker5.png,pic/flanker3.png,a,l,pic/AffRest1.png,,,,,,,,,,,,,,,,,,,,,,,,,0,0,0,0,0,47,47,39,,,,755.5273319999978,None,754.3441680999822,755.5437820999941,a,1,0.46404599997913465,逃避,l,1,0.6766618999827188,qxs,m,19,2024_Apr_21_1445,mian,2021.2.3,60.057679390517265,
,,,,,,0,0,pic/flanker6.png,pic/flanker2.png,a,l,pic/AffRest1.png,,,,,,,,,,,,,,,,,,,,,,,,,0,0,0,0,0,48,48,57,,,,758.610577399988,None,757.4275030999852,758.6271804999851,a,1,0.39609560000826605,缺乏,l,1,0.6805916999874171,qxs,m,19,2024_Apr_21_1445,mian,2021.2.3,60.057679390517265,
,,,,,,0,1,pic/flanker6.png,pic/flanker2.png,a,k,pic/AffRest1.png,,,,,,,,,,,,,,,,,,,,,,,,,0,0,0,0,0,49,49,2,,,,761.7434614000085,None,760.5599984999862,761.7601494999835,a,1,0.49150070000905544,珍藏,k,1,0.5687013000133447,qxs,m,19,2024_Apr_21_1445,mian,2021.2.3,60.057679390517265,
,,,,,,1,1,pic/flanker5.png,pic/flanker3.png,a,k,pic/AffRest1.png,,,,,,,,,,,,,,,,,,,,,,,,,0,0,0,0,0,50,50,76,,,,764.9263370999834,None,763.7431603999867,764.9431577000069,a,1,0.47958489999291487,羡慕,k,1,0.6641238000011072,qxs,m,19,2024_Apr_21_1445,mian,2021.2.3,60.057679390517265,
,,,,,,1,1,pic/flanker5.png,pic/flanker3.png,a,k,pic/AffRest1.png,,,,,,,,,,,,,,,,,,,,,,,,,0,0,0,0,0,51,51,20,,,,768.1925938999921,None,767.0094889999891,768.2096822999883,a,1,0.45649400001275353,卓越,k,1,0.4767096000141464,qxs,m,19,2024_Apr_21_1445,mian,2021.2.3,60.057679390517265,
,,,,,,0,0,pic/flanker5.png,pic/flanker1.png,s,l,pic/AffRest1.png,,,,,,,,,,,,,,,,,,,,,,,,,0,0,0,0,0,52,52,59,,,,771.1762101000058,None,769.9922250999953,771.1925610000035,s,1,0.4248824000242166,焦躁,l,1,0.7691171999904327,qxs,m,19,2024_Apr_21_1445,mian,2021.2.3,60.057679390517265,
,,,,,,0,1,pic/flanker5.png,pic/flanker1.png,s,k,pic/AffRest1.png,,,,,,,,,,,,,,,,,,,,,,,,,0,0,0,0,0,53,53,48,,,,774.3587992999819,None,773.175786799984,774.3754492999869,s,1,0.6552489000023343,振作,k,1,0.5899042999953963,qxs,m,19,2024_Apr_21_1445,mian,2021.2.3,60.057679390517265,
,,,,,,0,0,pic/flanker5.png,pic/flanker1.png,s,l,pic/AffRest1.png,,,,,,,,,,,,,,,,,,,,,,,,,0,0,0,0,0,54,54,11,,,,777.675445300003,None,776.4919013000035,777.6919796000002,s,1,0.37808269998640753,懒惰,l,1,0.5624626000062563,qxs,m,19,2024_Apr_21_1445,mian,2021.2.3,60.057679390517265,
,,,,,,1,1,pic/flanker5.png,pic/flanker3.png,a,k,pic/AffRest1.png,,,,,,,,,,,,,,,,,,,,,,,,,0,0,0,0,0,55,55,4,,,,780.5433062000084,None,779.3602397000068,780.5601526999963,a,1,0.5637528000224847,公平,k,1,0.6782999999995809,qxs,m,19,2024_Apr_21_1445,mian,2021.2.3,60.057679390517265,
,,,,,,0,0,pic/flanker5.png,pic/flanker1.png,s,l,pic/AffRest1.png,,,,,,,,,,,,,,,,,,,,,,,,,0,0,0,0,0,56,56,43,,,,783.7911699999822,None,782.6082453999843,783.8083006000088,s,1,0.37715069999103434,处罚,l,1,0.6430687999818474,qxs,m,19,2024_Apr_21_1445,mian,2021.2.3,60.057679390517265,
,,,,,,1,0,pic/flanker5.png,pic/flanker3.png,a,l,pic/AffRest1.png,,,,,,,,,,,,,,,,,,,,,,,,,0,0,0,0,0,57,57,47,,,,786.8590385999996,None,785.6764964000031,786.8760831000109,a,1,0.541943899996113,禁止,l,1,0.7216055000026245,qxs,m,19,2024_Apr_21_1445,mian,2021.2.3,60.057679390517265,
,,,,,,0,1,pic/flanker6.png,pic/flanker2.png,a,k,pic/AffRest1.png,,,,,,,,,,,,,,,,,,,,,,,,,0,0,0,0,0,58,58,58,,,,790.0908508999855,None,788.9079359000025,790.1072704999824,a,1,0.42377749999286607,清秀,k,1,0.49479980001342483,qxs,m,19,2024_Apr_21_1445,mian,2021.2.3,60.057679390517265,
,,,,,,1,1,pic/flanker6.png,pic/flanker4.png,s,k,pic/AffRest1.png,,,,,,,,,,,,,,,,,,,,,,,,,0,0,0,0,0,59,59,14,,,,792.8587604000058,None,791.6757039999939,792.8756626000104,s,1,0.5062277999822982,吉祥,k,1,0.5976152000075672,qxs,m,19,2024_Apr_21_1445,mian,2021.2.3,60.057679390517265,
,,,,,,0,0,pic/flanker5.png,pic/flanker1.png,s,l,pic/AffRest1.png,,,,,,,,,,,,,,,,,,,,,,,,,0,0,0,0,0,60,60,35,,,,795.856998400006,None,794.673832600005,795.8735034999845,s,1,0.4430376999953296,黑暗,l,1,0.5543259999831207,qxs,m,19,2024_Apr_21_1445,mian,2021.2.3,60.057679390517265,
,,,,,,0,0,pic/flanker6.png,pic/flanker2.png,a,l,pic/AffRest1.png,,,,,,,,,,,,,,,,,,,,,,,,,0,0,0,0,0,61,61,65,,,,798.7735083999869,None,797.5900202000048,798.7904027999903,a,1,0.39161540000350215,沮丧,l,1,0.6222702000231948,qxs,m,19,2024_Apr_21_1445,mian,2021.2.3,60.057679390517265,
,,,,,,0,0,pic/flanker5.png,pic/flanker1.png,s,l,pic/AffRest1.png,,,,,,,,,,,,,,,,,,,,,,,,,0,0,0,0,0,62,62,19,,,,801.6561621000001,None,800.4729986999882,801.6729178999958,s,1,0.36464290000731125,胡涂,l,1,1.012124800006859,qxs,m,19,2024_Apr_21_1445,mian,2021.2.3,60.057679390517265,
,,,,,,0,0,pic/flanker6.png,pic/flanker2.png,a,l,pic/AffRest1.png,,,,,,,,,,,,,,,,,,,,,,,,,0,0,0,0,0,63,63,33,,,,804.9559556999884,None,803.7730798999837,804.972672999982,a,1,0.317206299980171,堵塞,l,1,0.5429317000089213,qxs,m,19,2024_Apr_21_1445,mian,2021.2.3,60.057679390517265,
,,,,,,0,1,pic/flanker6.png,pic/flanker2.png,a,k,pic/AffRest1.png,,,,,,,,,,,,,,,,,,,,,,,,,0,0,0,0,0,64,64,10,,,,807.8223215999897,None,806.639250200009,807.8391221000056,a,1,0.4309804000076838,瑰丽,k,1,0.5317211000074167,qxs,m,19,2024_Apr_21_1445,mian,2021.2.3,60.057679390517265,
,,,,,,0,0,pic/flanker5.png,pic/flanker1.png,s,l,pic/AffRest1.png,,,,,,,,,,,,,,,,,,,,,,,,,0,0,0,0,0,65,65,51,,,,810.6222579999885,None,809.4388018999889,810.6389186999877,s,1,0.35250720000476576,慌忙,l,1,0.6115215000172611,qxs,m,19,2024_Apr_21_1445,mian,2021.2.3,60.057679390517265,
,,,,,,0,0,pic/flanker5.png,pic/flanker1.png,s,l,pic/AffRest1.png,,,,,,,,,,,,,,,,,,,,,,,,,0,0,0,0,0,66,66,67,,,,813.7554146999901,None,812.572081899998,813.7720143999904,s,1,0.4059420000121463,消沉,l,1,0.5062109999998938,qxs,m,19,2024_Apr_21_1445,mian,2021.2.3,60.057679390517265,
,,,,,,1,1,pic/flanker5.png,pic/flanker3.png,a,k,pic/AffRest1.png,,,,,,,,,,,,,,,,,,,,,,,,,0,0,0,0,0,67,67,28,,,,816.7381527999823,None,815.5548578999878,816.7546573999862,a,1,0.43528380000498146,鲜艳,k,1,0.5358465999888722,qxs,m,19,2024_Apr_21_1445,mian,2021.2.3,60.057679390517265,
,,,,,,1,1,pic/flanker6.png,pic/flanker4.png,s,k,pic/AffRest1.png,,,,,,,,,,,,,,,,,,,,,,,,,0,0,0,0,0,68,68,38,,,,819.7212698000076,None,818.5381657000107,819.7380391999905,s,1,0.713305399985984,圣洁,k,1,0.706823299988173,qxs,m,19,2024_Apr_21_1445,mian,2021.2.3,60.057679390517265,
,,,,,,0,1,pic/flanker5.png,pic/flanker1.png,s,k,pic/AffRest1.png,,,,,,,,,,,,,,,,,,,,,,,,,0,0,0,0,0,69,69,8,,,,823.1374949000019,None,821.955873400002,823.1709896999819,s,1,0.36431209999136627,正直,k,1,0.6737085000204388,qxs,m,19,2024_Apr_21_1445,mian,2021.2.3,60.057679390517265,
,,,,,,1,0,pic/flanker6.png,pic/flanker4.png,s,l,pic/AffRest1.png,,,,,,,,,,,,,,,,,,,,,,,,,0,0,0,0,0,70,70,21,,,,826.2375505999953,None,825.0541033000045,826.2540544999938,s,1,0.7517889000009745,失意,l,1,0.5965867000049911,qxs,m,19,2024_Apr_21_1445,mian,2021.2.3,60.057679390517265,
,,,,,,1,0,pic/flanker6.png,pic/flanker4.png,s,l,pic/AffRest1.png,,,,,,,,,,,,,,,,,,,,,,,,,0,0,0,0,0,71,71,5,,,,829.5869755999884,None,828.4038744999852,829.6041290999856,s,1,0.4704247000045143,别扭,l,1,1.1852922999823932,qxs,m,19,2024_Apr_21_1445,mian,2021.2.3,60.057679390517265,
,,,,,,0,1,pic/flanker5.png,pic/flanker1.png,s,k,pic/AffRest1.png,,,,,,,,,,,,,,,,,,,,,,,,,0,0,0,0,0,72,72,24,,,,833.1033048999961,None,831.9201498999901,833.1196652000071,s,1,0.36185980000300333,热切,k,1,0.5147082000039518,qxs,m,19,2024_Apr_21_1445,mian,2021.2.3,60.057679390517265,
,,,,,,1,1,pic/flanker6.png,pic/flanker4.png,s,k,pic/AffRest1.png,,,,,,,,,,,,,,,,,,,,,,,,,0,0,0,0,0,73,73,54,,,,835.9861533000076,None,834.8031894000014,836.0028161999944,s,1,0.5797543999797199,生动,k,1,0.5594860000128392,qxs,m,19,2024_Apr_21_1445,mian,2021.2.3,60.057679390517265,
,,,,,,1,0,pic/flanker6.png,pic/flanker4.png,s,l,pic/AffRest1.png,,,,,,,,,,,,,,,,,,,,,,,,,0,0,0,0,0,74,74,69,,,,839.0361501000007,None,837.8528011000017,839.0525232999935,s,1,0.5264656000072137,厌恶,l,1,0.5801193999941461,qxs,m,19,2024_Apr_21_1445,mian,2021.2.3,60.057679390517265,
,,,,,,1,0,pic/flanker5.png,pic/flanker3.png,a,l,pic/AffRest1.png,,,,,,,,,,,,,,,,,,,,,,,,,0,0,0,0,0,75,75,71,,,,842.2025727999862,None,841.0194262999867,842.2192650999932,a,1,0.533107099996414,郁闷,k,0,0.526170600001933,qxs,m,19,2024_Apr_21_1445,mian,2021.2.3,60.057679390517265,
,,,,,,0,1,pic/flanker5.png,pic/flanker1.png,s,k,pic/AffRest1.png,,,,,,,,,,,,,,,,,,,,,,,,,0,0,0,0,0,76,76,32,,,,845.11941449999,None,843.9357637999929,845.1362339000043,s,1,0.35537880001356825,前进,k,1,0.5307990000001155,qxs,m,19,2024_Apr_21_1445,mian,2021.2.3,60.057679390517265,
,,,,,,0,1,pic/flanker6.png,pic/flanker2.png,a,k,pic/AffRest1.png,,,,,,,,,,,,,,,,,,,,,,,,,0,0,0,0,0,77,77,74,,,,847.9187393999891,None,846.7354292999953,847.9352507999865,a,1,0.3703537999826949,如愿,k,1,0.59654810000211,qxs,m,19,2024_Apr_21_1445,mian,2021.2.3,60.057679390517265,
,,,,,,0,0,pic/flanker6.png,pic/flanker2.png,a,l,pic/AffRest1.png,,,,,,,,,,,,,,,,,,,,,,,,,0,0,0,0,0,78,78,1,,,,850.7847073999874,None,849.6018642999989,850.8016522999969,a,1,0.3858141000091564,闷热,l,1,0.9282929000037257,qxs,m,19,2024_Apr_21_1445,mian,2021.2.3,60.057679390517265,
,,,,,,1,0,pic/flanker5.png,pic/flanker3.png,a,l,pic/AffRest1.png,,,,,,,,,,,,,,,,,,,,,,,,,0,0,0,0,0,79,79,7,,,,854.0029300999886,None,852.8195210999984,854.0196588000108,a,1,0.6426420000207145,伤心,l,1,0.5141265999991447,qxs,m,19,2024_Apr_21_1445,mian,2021.2.3,60.057679390517265,
,,,,,,,,,,,,pic/AffRest1.png,,,,,,,,,,,,,,,,,,,,,,,,,0,0,0,0,,,,,,,,,,,,,,,,,,,qxs,m,19,2024_Apr_21_1445,mian,2021.2.3,60.057679390517265,
,,,,,,0,0,pic/flanker6.png,pic/flanker2.png,a,l,pic/AffRest2.png,,,,,,,,,,,,,,,,,,,,,,,,,0,1,1,1,0,0,0,65,,,,879.1824867000105,None,877.998888400005,879.1987964999862,a,1,0.9373769999947399,处罚,l,1,1.195683400001144,qxs,m,19,2024_Apr_21_1445,mian,2021.2.3,60.057679390517265,
,,,,,,1,0,pic/flanker5.png,pic/flanker3.png,a,l,pic/AffRest2.png,,,,,,,,,,,,,,,,,,,,,,,,,0,1,1,1,0,1,1,63,,,,883.2151707999874,None,882.033632799983,883.248958399985,a,1,0.6540430000168271,悲观,l,1,0.7088863000099082,qxs,m,19,2024_Apr_21_1445,mian,2021.2.3,60.057679390517265,
,,,,,,0,0,pic/flanker6.png,pic/flanker2.png,a,l,pic/AffRest2.png,,,,,,,,,,,,,,,,,,,,,,,,,0,1,1,1,0,2,2,49,,,,886.6166703999916,None,885.4330374999845,886.6329785999842,a,1,0.3483229999837931,丢失,l,1,0.5012612999998964,qxs,m,19,2024_Apr_21_1445,mian,2021.2.3,60.057679390517265,
,,,,,,0,1,pic/flanker5.png,pic/flanker1.png,s,k,pic/AffRest2.png,,,,,,,,,,,,,,,,,,,,,,,,,0,1,1,1,0,3,3,24,,,,889.4328076000093,None,888.2499288999825,889.4497035999957,s,1,0.3822107999876607,羡慕,l,0,0.41343509999569505,qxs,m,19,2024_Apr_21_1445,mian,2021.2.3,60.057679390517265,
,,,,,,1,1,pic/flanker5.png,pic/flanker3.png,a,k,pic/AffRest2.png,,,,,,,,,,,,,,,,,,,,,,,,,0,1,1,1,0,4,4,52,,,,892.1491208999942,None,890.9661660999991,892.1660492999945,a,1,0.484265899984166,旺盛,k,1,0.5343391000060365,qxs,m,19,2024_Apr_21_1445,mian,2021.2.3,60.057679390517265,
,,,,,,0,0,pic/flanker5.png,pic/flanker1.png,s,l,pic/AffRest2.png,,,,,,,,,,,,,,,,,,,,,,,,,0,1,1,1,0,5,5,35,,,,895.1489185999963,None,893.9658453000011,895.1657311999879,s,1,0.41870949999429286,别扭,l,1,0.603788699983852,qxs,m,19,2024_Apr_21_1445,mian,2021.2.3,60.057679390517265,
,,,,,,1,1,pic/flanker6.png,pic/flanker4.png,s,k,pic/AffRest2.png,,,,,,,,,,,,,,,,,,,,,,,,,0,1,1,1,0,6,6,70,,,,898.0485654000076,None,896.8653176999942,898.0656778999837,s,1,0.6820957000018097,豪放,k,1,0.5445319999998901,qxs,m,19,2024_Apr_21_1445,mian,2021.2.3,60.057679390517265,
,,,,,,0,0,pic/flanker5.png,pic/flanker1.png,s,l,pic/AffRest2.png,,,,,,,,,,,,,,,,,,,,,,,,,0,1,1,1,0,7,7,51,,,,901.215020100004,None,900.0320410999993,901.2319758000085,s,1,0.39840219999314286,消沉,l,1,0.7039910999883432,qxs,m,19,2024_Apr_21_1445,mian,2021.2.3,60.057679390517265,
,,,,,,0,1,pic/flanker6.png,pic/flanker2.png,a,k,pic/AffRest2.png,,,,,,,,,,,,,,,,,,,,,,,,,0,1,1,1,0,8,8,2,,,,904.2651375999849,None,903.0813991999894,904.2815725999826,a,1,0.3380775999976322,爽朗,k,1,0.5500495999876875,qxs,m,19,2024_Apr_21_1445,mian,2021.2.3,60.057679390517265,
,,,,,,1,1,pic/flanker6.png,pic/flanker4.png,s,k,pic/AffRest2.png,,,,,,,,,,,,,,,,,,,,,,,,,0,1,1,1,0,9,9,6,,,,907.097967299982,None,905.9147781000065,907.1143353999942,s,1,0.4847508000093512,圣洁,k,1,0.517746099998476,qxs,m,19,2024_Apr_21_1445,mian,2021.2.3,60.057679390517265,
,,,,,,0,1,pic/flanker5.png,pic/flanker1.png,s,k,pic/AffRest2.png,,,,,,,,,,,,,,,,,,,,,,,,,0,1,1,1,0,10,10,48,,,,910.0129965000087,None,908.8294695999939,910.029849899991,s,1,0.4374387999996543,瑰丽,k,1,0.4953399999940302,qxs,m,19,2024_Apr_21_1445,mian,2021.2.3,60.057679390517265,
,,,,,,1,1,pic/flanker5.png,pic/flanker3.png,a,k,pic/AffRest2.png,,,,,,,,,,,,,,,,,,,,,,,,,0,1,1,1,0,11,11,44,,,,912.9806344000099,None,911.7973696999834,912.997632899991,a,1,0.5365192000172101,精致,k,1,0.505709500022931,qxs,m,19,2024_Apr_21_1445,mian,2021.2.3,60.057679390517265,
,,,,,,1,1,pic/flanker6.png,pic/flanker4.png,s,k,pic/AffRest2.png,,,,,,,,,,,,,,,,,,,,,,,,,0,1,1,1,0,12,12,62,,,,915.8638537999941,None,914.6804987000069,915.8802152999851,s,1,0.5139530999877024,富足,k,1,0.5391764999949373,qxs,m,19,2024_Apr_21_1445,mian,2021.2.3,60.057679390517265,
,,,,,,0,0,pic/flanker6.png,pic/flanker2.png,a,l,pic/AffRest2.png,,,,,,,,,,,,,,,,,,,,,,,,,0,1,1,1,0,13,13,73,,,,918.813167699991,None,917.6301107000036,918.8301553000056,a,1,0.321280400006799,烦恼,l,1,0.5734030000166968,qxs,m,19,2024_Apr_21_1445,mian,2021.2.3,60.057679390517265,
,,,,,,1,1,pic/flanker5.png,pic/flanker3.png,a,k,pic/AffRest2.png,,,,,,,,,,,,,,,,,,,,,,,,,0,1,1,1,0,14,14,76,,,,921.7128566000029,None,920.5302845999831,921.7298030999955,a,1,0.5639847000129521,生动,k,1,0.527618700027233,qxs,m,19,2024_Apr_21_1445,mian,2021.2.3,60.057679390517265,
,,,,,,0,0,pic/flanker5.png,pic/flanker1.png,s,l,pic/AffRest2.png,,,,,,,,,,,,,,,,,,,,,,,,,0,1,1,1,0,15,15,19,,,,924.7445797999972,None,923.5613120000053,924.7610961000028,s,1,0.35013390000676736,怀疑,l,1,0.5567466999928001,qxs,m,19,2024_Apr_21_1445,mian,2021.2.3,60.057679390517265,
,,,,,,0,1,pic/flanker5.png,pic/flanker1.png,s,k,pic/AffRest2.png,,,,,,,,,,,,,,,,,,,,,,,,,0,1,1,1,0,16,16,0,,,,927.6626498999831,None,926.479502800008,927.6798684000096,s,1,0.31252879998646677,留恋,k,1,0.9294943000131752,qxs,m,19,2024_Apr_21_1445,mian,2021.2.3,60.057679390517265,
,,,,,,1,0,pic/flanker5.png,pic/flanker3.png,a,l,pic/AffRest2.png,,,,,,,,,,,,,,,,,,,,,,,,,0,1,1,1,0,17,17,55,,,,930.9456566000008,None,929.7623213999905,930.9621161999821,a,1,0.5758645000169054,排斥,l,1,0.51740080001764,qxs,m,19,2024_Apr_21_1445,mian,2021.2.3,60.057679390517265,
,,,,,,1,0,pic/flanker6.png,pic/flanker4.png,s,l,pic/AffRest2.png,,,,,,,,,,,,,,,,,,,,,,,,,0,1,1,1,0,18,18,21,,,,934.0787539999874,None,932.8956424999924,934.0954823000066,s,1,0.5724821999901906,心慌,l,1,0.64009519998217,qxs,m,19,2024_Apr_21_1445,mian,2021.2.3,60.057679390517265,
,,,,,,0,1,pic/flanker6.png,pic/flanker2.png,a,k,pic/AffRest2.png,,,,,,,,,,,,,,,,,,,,,,,,,0,1,1,1,0,19,19,42,,,,937.2283866000071,None,936.0452836999903,937.2451721999969,a,1,0.35091900001862086,优雅,k,1,0.6880330000130925,qxs,m,19,2024_Apr_21_1445,mian,2021.2.3,60.057679390517265,
,,,,,,1,1,pic/flanker6.png,pic/flanker4.png,s,k,pic/AffRest2.png,,,,,,,,,,,,,,,,,,,,,,,,,0,1,1,1,0,20,20,78,,,,940.2112510000006,None,939.0284715000016,940.2281775999872,s,1,0.864402599981986,舒畅,k,1,0.7143134000070859,qxs,m,19,2024_Apr_21_1445,mian,2021.2.3,60.057679390517265,
,,,,,,0,0,pic/flanker5.png,pic/flanker1.png,s,l,pic/AffRest2.png,,,,,,,,,,,,,,,,,,,,,,,,,0,1,1,1,0,21,21,3,,,,943.8095146999985,None,942.626202799991,943.8259942999866,s,1,0.37308049999410287,自卑,l,1,0.7457863999879919,qxs,m,19,2024_Apr_21_1445,mian,2021.2.3,60.057679390517265,
,,,,,,0,1,pic/flanker6.png,pic/flanker2.png,a,k,pic/AffRest2.png,,,,,,,,,,,,,,,,,,,,,,,,,0,1,1,1,0,22,22,58,,,,946.8779658999993,None,945.6941738000023,946.8943903000036,a,1,0.3700132000085432,前进,k,1,0.5371927999949548,qxs,m,19,2024_Apr_21_1445,mian,2021.2.3,60.057679390517265,
,,,,,,1,1,pic/flanker5.png,pic/flanker3.png,a,k,pic/AffRest2.png,,,,,,,,,,,,,,,,,,,,,,,,,0,1,1,1,0,23,23,60,,,,949.6770379999944,None,948.4938299999922,949.6938664999907,a,1,0.49936499999603257,奉献,k,1,0.534556500002509,qxs,m,19,2024_Apr_21_1445,mian,2021.2.3,60.057679390517265,
,,,,,,0,1,pic/flanker6.png,pic/flanker2.png,a,k,pic/AffRest2.png,,,,,,,,,,,,,,,,,,,,,,,,,0,1,1,1,0,24,24,26,,,,952.6251081000082,None,951.4421895999985,952.6416641999967,a,1,0.40323319999151863,廉洁,l,0,0.46720519999507815,qxs,m,19,2024_Apr_21_1445,mian,2021.2.3,60.057679390517265,
,,,,,,1,1,pic/flanker6.png,pic/flanker4.png,s,k,pic/AffRest2.png,,,,,,,,,,,,,,,,,,,,,,,,,0,1,1,1,0,25,25,46,,,,955.4933631999884,None,954.3101369999931,955.5100755000021,s,1,0.6755498000129592,赞成,k,1,0.5524829999776557,qxs,m,19,2024_Apr_21_1445,mian,2021.2.3,60.057679390517265,
,,,,,,0,0,pic/flanker6.png,pic/flanker2.png,a,l,pic/AffRest2.png,,,,,,,,,,,,,,,,,,,,,,,,,0,1,1,1,0,26,26,9,,,,958.6929530999914,None,957.5095411000075,958.7095593999838,a,1,0.4025532999949064,嘲笑,l,1,0.5704654000001028,qxs,m,19,2024_Apr_21_1445,mian,2021.2.3,60.057679390517265,
,,,,,,1,0,pic/flanker6.png,pic/flanker4.png,s,l,pic/AffRest2.png,,,,,,,,,,,,,,,,,,,,,,,,,0,1,1,1,0,27,27,13,,,,961.5259969999897,None,960.3425666999829,961.5427706000046,s,1,0.6450613999913912,失意,l,1,0.5445373999828007,qxs,m,19,2024_Apr_21_1445,mian,2021.2.3,60.057679390517265,
,,,,,,0,0,pic/flanker6.png,pic/flanker2.png,a,l,pic/AffRest2.png,,,,,,,,,,,,,,,,,,,,,,,,,0,1,1,1,0,28,28,41,,,,964.5589274000085,None,963.3757716999971,964.5755364999932,a,1,0.3888110000116285,撒谎,l,1,0.591028599999845,qxs,m,19,2024_Apr_21_1445,mian,2021.2.3,60.057679390517265,
,,,,,,0,1,pic/flanker6.png,pic/flanker2.png,a,k,pic/AffRest2.png,,,,,,,,,,,,,,,,,,,,,,,,,0,1,1,1,0,29,29,10,,,,967.592068900005,None,966.4086606999917,967.6083291000105,a,1,0.4064050999877509,有利,k,1,0.45332579998648725,qxs,m,19,2024_Apr_21_1445,mian,2021.2.3,60.057679390517265,
,,,,,,1,0,pic/flanker5.png,pic/flanker3.png,a,l,pic/AffRest2.png,,,,,,,,,,,,,,,,,,,,,,,,,0,1,1,1,0,30,30,31,,,,970.4586609000107,None,969.2754778999952,970.4750613000069,a,1,0.6563142999948468,争吵,l,1,0.47412170001189224,qxs,m,19,2024_Apr_21_1445,mian,2021.2.3,60.057679390517265,
,,,,,,0,0,pic/flanker6.png,pic/flanker2.png,a,l,pic/AffRest2.png,,,,,,,,,,,,,,,,,,,,,,,,,0,1,1,1,0,31,31,25,,,,973.4918374999834,None,972.307954399992,973.5081804000074,a,1,0.4099817000096664,慌忙,l,1,0.5414217000070494,qxs,m,19,2024_Apr_21_1445,mian,2021.2.3,60.057679390517265,
,,,,,,1,0,pic/flanker5.png,pic/flanker3.png,a,l,pic/AffRest2.png,,,,,,,,,,,,,,,,,,,,,,,,,0,1,1,1,0,32,32,39,,,,976.5084594000073,None,975.3245377999847,976.524474100006,a,1,0.5854052999929991,落后,k,0,0.6327323000004981,qxs,m,19,2024_Apr_21_1445,mian,2021.2.3,60.057679390517265,
,,,,,,1,0,pic/flanker6.png,pic/flanker4.png,s,l,pic/AffRest2.png,,,,,,,,,,,,,,,,,,,,,,,,,0,1,1,1,0,33,33,77,,,,979.6574611999968,None,978.4743854999833,979.6743652999867,s,1,0.7264803999860305,轻率,l,1,0.617424399999436,qxs,m,19,2024_Apr_21_1445,mian,2021.2.3,60.057679390517265,
,,,,,,0,1,pic/flanker5.png,pic/flanker1.png,s,k,pic/AffRest2.png,,,,,,,,,,,,,,,,,,,,,,,,,0,1,1,1,0,34,34,56,,,,982.9557299999869,None,981.7724255000066,982.9725793999969,s,1,0.42330150000634603,敬佩,k,1,0.6208386000071187,qxs,m,19,2024_Apr_21_1445,mian,2021.2.3,60.057679390517265,
,,,,,,1,0,pic/flanker6.png,pic/flanker4.png,s,l,pic/AffRest2.png,,,,,,,,,,,,,,,,,,,,,,,,,0,1,1,1,0,35,35,69,,,,985.8572615000012,None,984.6737055999984,985.8735075999866,s,1,0.6734814000083134,忧虑,l,1,0.5088082000147551,qxs,m,19,2024_Apr_21_1445,mian,2021.2.3,60.057679390517265,
,,,,,,1,0,pic/flanker5.png,pic/flanker3.png,a,l,pic/AffRest2.png,,,,,,,,,,,,,,,,,,,,,,,,,0,1,1,1,0,36,36,7,,,,988.8900108000089,None,987.7070687999949,988.906873400003,a,1,0.5461896000197157,逃避,l,1,0.7984481999883428,qxs,m,19,2024_Apr_21_1445,mian,2021.2.3,60.057679390517265,
,,,,,,1,1,pic/flanker5.png,pic/flanker3.png,a,k,pic/AffRest2.png,,,,,,,,,,,,,,,,,,,,,,,,,0,1,1,1,0,37,37,20,,,,992.0729183999938,None,990.8897963000054,992.0898192999884,a,1,0.4965309000108391,丰满,k,1,0.6902973999967799,qxs,m,19,2024_Apr_21_1445,mian,2021.2.3,60.057679390517265,
,,,,,,0,0,pic/flanker5.png,pic/flanker1.png,s,l,pic/AffRest2.png,,,,,,,,,,,,,,,,,,,,,,,,,0,1,1,1,0,38,38,75,,,,995.1896590999968,None,994.0062395999848,995.2060832999996,s,1,0.402303100010613,郁闷,l,1,0.7403438000183087,qxs,m,19,2024_Apr_21_1445,mian,2021.2.3,60.057679390517265,
,,,,,,0,0,pic/flanker6.png,pic/flanker2.png,a,l,pic/AffRest2.png,,,,,,,,,,,,,,,,,,,,,,,,,0,1,1,1,0,39,39,33,,,,998.1893781999825,None,997.0055853000085,998.2060306000058,a,1,0.347587600001134,缺乏,l,1,0.6000353999843355,qxs,m,19,2024_Apr_21_1445,mian,2021.2.3,60.057679390517265,
,,,,,,1,0,pic/flanker6.png,pic/flanker4.png,s,l,pic/AffRest2.png,,,,,,,,,,,,,,,,,,,,,,,,,0,1,1,1,0,40,40,45,,,,1001.1386409999977,None,999.9556339999835,1001.1557877000014,s,1,0.6206555000098888,黑暗,l,1,0.5198438999941573,qxs,m,19,2024_Apr_21_1445,mian,2021.2.3,60.057679390517265,
,,,,,,1,1,pic/flanker6.png,pic/flanker4.png,s,k,pic/AffRest2.png,,,,,,,,,,,,,,,,,,,,,,,,,0,1,1,1,0,41,41,54,,,,1004.3867307000037,None,1003.2036111000052,1004.4033266000042,s,1,0.5422372000175528,富丽,k,1,0.6419485000078566,qxs,m,19,2024_Apr_21_1445,mian,2021.2.3,60.057679390517265,
,,,,,,0,0,pic/flanker5.png,pic/flanker1.png,s,l,pic/AffRest2.png,,,,,,,,,,,,,,,,,,,,,,,,,0,1,1,1,0,42,42,27,,,,1007.655012800009,None,1006.4715830000059,1007.6717719000007,s,1,0.3695068000233732,损害,l,1,0.7871886999928392,qxs,m,19,2024_Apr_21_1445,mian,2021.2.3,60.057679390517265,
,,,,,,0,1,pic/flanker5.png,pic/flanker1.png,s,k,pic/AffRest2.png,,,,,,,,,,,,,,,,,,,,,,,,,0,1,1,1,0,43,43,16,,,,1010.7045668000064,None,1009.521198500006,1010.7211835999915,s,1,0.3425238000054378,雄厚,k,1,0.605153699987568,qxs,m,19,2024_Apr_21_1445,mian,2021.2.3,60.057679390517265,
,,,,,,0,1,pic/flanker5.png,pic/flanker1.png,s,k,pic/AffRest2.png,,,,,,,,,,,,,,,,,,,,,,,,,0,1,1,1,0,44,44,72,,,,1013.6044111000083,None,1012.4211527000007,1013.6210353999923,s,1,0.3368551000021398,卓越,k,1,0.694254500005627,qxs,m,19,2024_Apr_21_1445,mian,2021.2.3,60.057679390517265,
,,,,,,0,0,pic/flanker5.png,pic/flanker1.png,s,l,pic/AffRest2.png,,,,,,,,,,,,,,,,,,,,,,,,,0,1,1,1,0,45,45,43,,,,1016.587784000003,None,1015.404137000005,1016.6039648999867,s,1,0.3935856999887619,胡涂,l,1,0.5621391000167932,qxs,m,19,2024_Apr_21_1445,mian,2021.2.3,60.057679390517265,
,,,,,,1,0,pic/flanker5.png,pic/flanker3.png,a,l,pic/AffRest2.png,,,,,,,,,,,,,,,,,,,,,,,,,0,1,1,1,0,46,46,71,,,,1019.4368835999921,None,1018.2539876000083,1019.4536251999962,a,1,0.5041749000083655,孤单,l,1,0.4893902000039816,qxs,m,19,2024_Apr_21_1445,mian,2021.2.3,60.057679390517265,
,,,,,,1,1,pic/flanker6.png,pic/flanker4.png,s,k,pic/AffRest2.png,,,,,,,,,,,,,,,,,,,,,,,,,0,1,1,1,0,47,47,14,,,,1022.3701216999907,None,1021.1872448000067,1022.387130099989,s,1,0.6486663999967277,热切,k,1,0.5602231999801006,qxs,m,19,2024_Apr_21_1445,mian,2021.2.3,60.057679390517265,
,,,,,,0,1,pic/flanker6.png,pic/flanker2.png,a,k,pic/AffRest2.png,,,,,,,,,,,,,,,,,,,,,,,,,0,1,1,1,0,48,48,50,,,,1025.570034000004,None,1024.3867484999937,1025.5863895000075,a,1,0.3830389000067953,珍藏,k,1,0.5554009999905247,qxs,m,19,2024_Apr_21_1445,mian,2021.2.3,60.057679390517265,
,,,,,,0,0,pic/flanker5.png,pic/flanker1.png,s,l,pic/AffRest2.png,,,,,,,,,,,,,,,,,,,,,,,,,0,1,1,1,0,49,49,11,,,,1028.4860616000078,None,1027.3027463000035,1028.5026799000043,s,1,0.3596974999818485,沮丧,l,1,0.5009720000089146,qxs,m,19,2024_Apr_21_1445,mian,2021.2.3,60.057679390517265,
,,,,,,0,0,pic/flanker6.png,pic/flanker2.png,a,l,pic/AffRest2.png,,,,,,,,,,,,,,,,,,,,,,,,,0,1,1,1,0,50,50,57,,,,1031.3857886999904,None,1030.2025521000032,1031.4024847999972,a,1,0.31341899998369627,焦躁,l,1,0.7436454999842681,qxs,m,19,2024_Apr_21_1445,mian,2021.2.3,60.057679390517265,
,,,,,,0,0,pic/flanker5.png,pic/flanker1.png,s,l,pic/AffRest2.png,,,,,,,,,,,,,,,,,,,,,,,,,0,1,1,1,0,51,51,59,,,,1034.4856481000024,None,1033.3021244999836,1034.5024610999972,s,1,0.3947610000032,穷苦,l,1,0.4544801999873016,qxs,m,19,2024_Apr_21_1445,mian,2021.2.3,60.057679390517265,
,,,,,,1,0,pic/flanker5.png,pic/flanker3.png,a,l,pic/AffRest2.png,,,,,,,,,,,,,,,,,,,,,,,,,0,1,1,1,0,52,52,23,,,,1037.285413799982,None,1036.101731600007,1037.3021137999895,a,1,0.623790799989365,杂乱,l,1,0.3918771999888122,qxs,m,19,2024_Apr_21_1445,mian,2021.2.3,60.057679390517265,
,,,,,,1,0,pic/flanker6.png,pic/flanker4.png,s,l,pic/AffRest2.png,,,,,,,,,,,,,,,,,,,,,,,,,0,1,1,1,0,53,53,53,,,,1040.3351037999964,None,1039.151612799993,1040.3517617000034,s,1,0.47839549998752773,禁止,l,1,0.5561923000204843,qxs,m,19,2024_Apr_21_1445,mian,2021.2.3,60.057679390517265,
,,,,,,0,1,pic/flanker5.png,pic/flanker1.png,s,k,pic/AffRest2.png,,,,,,,,,,,,,,,,,,,,,,,,,0,1,1,1,0,54,54,8,,,,1043.2176383000042,None,1042.0351462999824,1043.2347362999863,s,1,0.3958783999842126,振作,l,0,0.41114789998391643,qxs,m,19,2024_Apr_21_1445,mian,2021.2.3,60.057679390517265,
,,,,,,0,0,pic/flanker5.png,pic/flanker1.png,s,l,pic/AffRest2.png,,,,,,,,,,,,,,,,,,,,,,,,,0,1,1,1,0,55,55,67,,,,1045.8678886999842,None,1044.684503700002,1045.884332799993,s,1,0.5168568000080995,假冒,l,1,0.6975994999811519,qxs,m,19,2024_Apr_21_1445,mian,2021.2.3,60.057679390517265,
,,,,,,0,0,pic/flanker6.png,pic/flanker2.png,a,l,pic/AffRest2.png,,,,,,,,,,,,,,,,,,,,,,,,,0,1,1,1,0,56,56,17,,,,1048.9175297000038,None,1047.7343343000102,1048.9341776999936,a,1,0.4581946000107564,冷笑,l,1,1.0865461999783292,qxs,m,19,2024_Apr_21_1445,mian,2021.2.3,60.057679390517265,
,,,,,,1,1,pic/flanker5.png,pic/flanker3.png,a,k,pic/AffRest2.png,,,,,,,,,,,,,,,,,,,,,,,,,0,1,1,1,0,57,57,28,,,,1052.5174364999984,None,1051.3342172999983,1052.5342325000092,a,1,0.5528641999990214,永恒,k,1,0.7407129000057466,qxs,m,19,2024_Apr_21_1445,mian,2021.2.3,60.057679390517265,
,,,,,,1,1,pic/flanker6.png,pic/flanker4.png,s,k,pic/AffRest2.png,,,,,,,,,,,,,,,,,,,,,,,,,0,1,1,1,0,58,58,30,,,,1055.7999699999928,None,1054.6169911999896,1055.816797699983,s,1,0.512933600024553,正直,k,1,0.671549499995308,qxs,m,19,2024_Apr_21_1445,mian,2021.2.3,60.057679390517265,
,,,,,,1,0,pic/flanker5.png,pic/flanker3.png,a,l,pic/AffRest2.png,,,,,,,,,,,,,,,,,,,,,,,,,0,1,1,1,0,59,59,15,,,,1058.8832507999905,None,1057.6998228000011,1058.899946599995,a,1,0.5313012000115123,闷热,l,1,0.5285583999939263,qxs,m,19,2024_Apr_21_1445,mian,2021.2.3,60.057679390517265,
,,,,,,1,0,pic/flanker6.png,pic/flanker4.png,s,l,pic/AffRest2.png,,,,,,,,,,,,,,,,,,,,,,,,,0,1,1,1,0,60,60,61,,,,1061.8824771000072,None,1060.6997492999944,1061.899513899989,s,1,0.552680099994177,浪费,l,1,0.6140555000165477,qxs,m,19,2024_Apr_21_1445,mian,2021.2.3,60.057679390517265,
,,,,,,1,0,pic/flanker6.png,pic/flanker4.png,s,l,pic/AffRest2.png,,,,,,,,,,,,,,,,,,,,,,,,,0,1,1,1,0,61,61,29,,,,1064.8989413999952,None,1063.7163481999887,1064.9159274999984,s,1,0.5102370999811683,厌恶,l,1,0.6211197999946307,qxs,m,19,2024_Apr_21_1445,mian,2021.2.3,60.057679390517265,
,,,,,,0,1,pic/flanker5.png,pic/flanker1.png,s,k,pic/AffRest2.png,,,,,,,,,,,,,,,,,,,,,,,,,0,1,1,1,0,62,62,40,,,,1068.0322483000054,None,1066.8490387999918,1068.0486142000009,s,1,0.42006870001205243,享受,k,1,0.5690923999936786,qxs,m,19,2024_Apr_21_1445,mian,2021.2.3,60.057679390517265,
,,,,,,0,0,pic/flanker6.png,pic/flanker2.png,a,l,pic/AffRest2.png,,,,,,,,,,,,,,,,,,,,,,,,,0,1,1,1,0,63,63,1,,,,1070.8483276999905,None,1069.6659135000082,1070.8654061999987,a,1,0.4001120000029914,堵塞,l,1,0.4948597000038717,qxs,m,19,2024_Apr_21_1445,mian,2021.2.3,60.057679390517265,
,,,,,,1,1,pic/flanker5.png,pic/flanker3.png,a,k,pic/AffRest2.png,,,,,,,,,,,,,,,,,,,,,,,,,0,1,1,1,0,64,64,12,,,,1073.5639855999907,None,1072.3799125000078,1073.5802846000006,a,1,0.7393339000118431,畅销,k,1,0.8072524000017438,qxs,m,19,2024_Apr_21_1445,mian,2021.2.3,60.057679390517265,
,,,,,,1,1,pic/flanker6.png,pic/flanker4.png,s,k,pic/AffRest2.png,,,,,,,,,,,,,,,,,,,,,,,,,0,1,1,1,0,65,65,22,,,,1077.1648216999893,None,1075.9812198999862,1077.1814506000082,s,1,0.7288449000043329,清秀,k,1,0.5859806000080425,qxs,m,19,2024_Apr_21_1445,mian,2021.2.3,60.057679390517265,
,,,,,,0,1,pic/flanker6.png,pic/flanker2.png,a,k,pic/AffRest2.png,,,,,,,,,,,,,,,,,,,,,,,,,0,1,1,1,0,66,66,74,,,,1080.4143638999958,None,1079.230873499997,1080.4311984000087,a,1,0.46063560000038706,如愿,k,1,0.5655433000065386,qxs,m,19,2024_Apr_21_1445,mian,2021.2.3,60.057679390517265,
,,,,,,1,1,pic/flanker5.png,pic/flanker3.png,a,k,pic/AffRest2.png,,,,,,,,,,,,,,,,,,,,,,,,,0,1,1,1,0,67,67,4,,,,1083.4302292999928,None,1082.2468995999952,1083.4463786999986,a,1,0.46425859999726526,顽强,k,1,0.7605143999971915,qxs,m,19,2024_Apr_21_1445,mian,2021.2.3,60.057679390517265,
,,,,,,0,1,pic/flanker5.png,pic/flanker1.png,s,k,pic/AffRest2.png,,,,,,,,,,,,,,,,,,,,,,,,,0,1,1,1,0,68,68,64,,,,1086.7143152999924,None,1085.530698699993,1086.730670399993,s,1,0.4239737000025343,鲜艳,k,1,0.5895529999979772,qxs,m,19,2024_Apr_21_1445,mian,2021.2.3,60.057679390517265,
,,,,,,1,1,pic/flanker6.png,pic/flanker4.png,s,k,pic/AffRest2.png,,,,,,,,,,,,,,,,,,,,,,,,,0,1,1,1,0,69,69,38,,,,1089.6137795000104,None,1088.4305576999905,1089.630281699996,s,1,0.7238821999926586,吉祥,k,1,0.508713599992916,qxs,m,19,2024_Apr_21_1445,mian,2021.2.3,60.057679390517265,
,,,,,,1,1,pic/flanker5.png,pic/flanker3.png,a,k,pic/AffRest2.png,,,,,,,,,,,,,,,,,,,,,,,,,0,1,1,1,0,70,70,68,,,,1092.6967595999886,None,1091.513341999991,1092.7130206000002,a,1,0.424719600006938,秀丽,k,1,0.48674940000637434,qxs,m,19,2024_Apr_21_1445,mian,2021.2.3,60.057679390517265,
,,,,,,1,0,pic/flanker6.png,pic/flanker4.png,s,l,pic/AffRest2.png,,,,,,,,,,,,,,,,,,,,,,,,,0,1,1,1,0,71,71,5,,,,1095.5617413999862,None,1094.3780942999874,1095.578088499984,s,1,0.8086479000048712,罚款,l,1,0.5275395000062417,qxs,m,19,2024_Apr_21_1445,mian,2021.2.3,60.057679390517265,
,,,,,,1,0,pic/flanker6.png,pic/flanker4.png,s,l,pic/AffRest2.png,,,,,,,,,,,,,,,,,,,,,,,,,0,1,1,1,0,72,72,37,,,,1098.8460368000087,None,1097.6628089000005,1098.8629832000006,s,1,0.5415672999806702,懒惰,k,0,0.5845436999807134,qxs,m,19,2024_Apr_21_1445,mian,2021.2.3,60.057679390517265,
,,,,,,1,0,pic/flanker5.png,pic/flanker3.png,a,l,pic/AffRest2.png,,,,,,,,,,,,,,,,,,,,,,,,,0,1,1,1,0,73,73,47,,,,1101.7958380999917,None,1100.6126091000042,1101.8125115000003,a,1,0.4528857999830507,伤心,l,1,0.5252781999879517,qxs,m,19,2024_Apr_21_1445,mian,2021.2.3,60.057679390517265,
,,,,,,0,1,pic/flanker5.png,pic/flanker1.png,s,k,pic/AffRest2.png,,,,,,,,,,,,,,,,,,,,,,,,,0,1,1,1,0,74,74,32,,,,1104.745332099992,None,1103.5622583999939,1104.762508099986,s,1,0.45826160002616234,俊秀,k,1,0.789050599996699,qxs,m,19,2024_Apr_21_1445,mian,2021.2.3,60.057679390517265,
,,,,,,0,1,pic/flanker6.png,pic/flanker2.png,a,k,pic/AffRest2.png,,,,,,,,,,,,,,,,,,,,,,,,,0,1,1,1,0,75,75,18,,,,1107.8433490000025,None,1106.6605578000017,1107.8600454999832,a,1,0.4358776000153739,典雅,k,1,0.5673394000041299,qxs,m,19,2024_Apr_21_1445,mian,2021.2.3,60.057679390517265,
,,,,,,0,1,pic/flanker6.png,pic/flanker2.png,a,k,pic/AffRest2.png,,,,,,,,,,,,,,,,,,,,,,,,,0,1,1,1,0,76,76,34,,,,1110.7784320999926,None,1109.5949808000005,1110.7950058999995,a,1,0.9558017000090331,诚恳,k,1,0.7233692999870982,qxs,m,19,2024_Apr_21_1445,mian,2021.2.3,60.057679390517265,
,,,,,,1,0,pic/flanker5.png,pic/flanker3.png,a,l,pic/AffRest2.png,,,,,,,,,,,,,,,,,,,,,,,,,0,1,1,1,0,77,77,79,,,,1114.4615018999903,None,1113.2783667999902,1114.4778970000043,a,1,0.482410800002981,鲁莽,l,1,0.5708701999974437,qxs,m,19,2024_Apr_21_1445,mian,2021.2.3,60.057679390517265,
,,,,,,0,1,pic/flanker6.png,pic/flanker2.png,a,k,pic/AffRest2.png,,,,,,,,,,,,,,,,,,,,,,,,,0,1,1,1,0,78,78,66,,,,1117.5773438999895,None,1116.3942531000066,1117.5944043000054,a,1,0.42367649998050183,充裕,k,1,0.6031671999953687,qxs,m,19,2024_Apr_21_1445,mian,2021.2.3,60.057679390517265,
,,,,,,1,1,pic/flanker5.png,pic/flanker3.png,a,k,pic/AffRest2.png,,,,,,,,,,,,,,,,,,,,,,,,,0,1,1,1,0,79,79,36,,,,1120.510565100005,None,1119.3271599999862,1120.5275110999937,a,1,0.4789804999891203,公平,k,1,0.7910073999955785,qxs,m,19,2024_Apr_21_1445,mian,2021.2.3,60.057679390517265,
,,,,,,,,,,,,pic/AffRest2.png,,,,,,,,,,,,,,,,,,,,,,,,,0,1,1,1,,,,,,,,,,,,,,,,,,,qxs,m,19,2024_Apr_21_1445,mian,2021.2.3,60.057679390517265,
,,,,,,1,0,pic/flanker6.png,pic/flanker4.png,s,l,pic/AffRest3.png,,,,,,,,,,,,,,,,,,,,,,,,,0,2,2,2,0,0,0,13,,,,1135.391317200003,None,1134.2079650000087,1135.4075411999947,s,1,0.5948041000228841,别扭,l,1,0.6355363000184298,qxs,m,19,2024_Apr_21_1445,mian,2021.2.3,60.057679390517265,
,,,,,,1,1,pic/flanker6.png,pic/flanker4.png,s,k,pic/AffRest3.png,,,,,,,,,,,,,,,,,,,,,,,,,0,2,2,2,0,1,1,62,,,,1138.6756250000035,None,1137.4925808999978,1138.6924643999955,s,1,1.1629605000198353,如愿,k,1,0.4992887999978848,qxs,m,19,2024_Apr_21_1445,mian,2021.2.3,60.057679390517265,
,,,,,,0,1,pic/flanker6.png,pic/flanker2.png,a,k,pic/AffRest3.png,,,,,,,,,,,,,,,,,,,,,,,,,0,2,2,2,0,2,2,18,,,,1142.3589047999994,None,1141.1749660999922,1142.3754578999942,a,1,0.45496669999556616,廉洁,l,0,0.7243192000023555,qxs,m,19,2024_Apr_21_1445,mian,2021.2.3,60.057679390517265,
,,,,,,1,1,pic/flanker6.png,pic/flanker4.png,s,k,pic/AffRest3.png,,,,,,,,,,,,,,,,,,,,,,,,,0,2,2,2,0,3,3,14,,,,1145.391642100003,None,1144.2084322999872,1145.4086519999837,s,1,0.5247387000126764,羡慕,k,1,0.5075606000027619,qxs,m,19,2024_Apr_21_1445,mian,2021.2.3,60.057679390517265,
,,,,,,0,1,pic/flanker6.png,pic/flanker2.png,a,k,pic/AffRest3.png,,,,,,,,,,,,,,,,,,,,,,,,,0,2,2,2,0,4,4,42,,,,1148.2747076000087,None,1147.091257699998,1148.2912644000025,a,1,0.40790479999850504,奉献,k,1,0.9139385999878868,qxs,m,19,2024_Apr_21_1445,mian,2021.2.3,60.057679390517265,
,,,,,,1,1,pic/flanker5.png,pic/flanker3.png,a,k,pic/AffRest3.png,,,,,,,,,,,,,,,,,,,,,,,,,0,2,2,2,0,5,5,12,,,,1151.6243464,None,1150.4412980999914,1151.6409831999918,a,1,0.46252390000154264,圣洁,k,1,0.6200379000219982,qxs,m,19,2024_Apr_21_1445,mian,2021.2.3,60.057679390517265,
,,,,,,0,1,pic/flanker6.png,pic/flanker2.png,a,k,pic/AffRest3.png,,,,,,,,,,,,,,,,,,,,,,,,,0,2,2,2,0,6,6,10,,,,1154.707687099988,None,1153.5241680000036,1154.7239351999888,a,1,0.36459409998496994,优雅,k,1,0.4441338000178803,qxs,m,19,2024_Apr_21_1445,mian,2021.2.3,60.057679390517265,
,,,,,,0,0,pic/flanker5.png,pic/flanker1.png,s,l,pic/AffRest3.png,,,,,,,,,,,,,,,,,,,,,,,,,0,2,2,2,0,7,7,75,,,,1157.505575099989,None,1156.322277500003,1157.5221272000053,s,1,0.4182343000138644,伤心,l,1,0.5885474999959115,qxs,m,19,2024_Apr_21_1445,mian,2021.2.3,60.057679390517265,
,,,,,,0,0,pic/flanker6.png,pic/flanker2.png,a,l,pic/AffRest3.png,,,,,,,,,,,,,,,,,,,,,,,,,0,2,2,2,0,8,8,57,,,,1160.4067245000042,None,1159.2242097999842,1160.4236000000092,a,1,0.41384999998263083,浪费,l,1,0.5971686000120826,qxs,m,19,2024_Apr_21_1445,mian,2021.2.3,60.057679390517265,
,,,,,,0,1,pic/flanker5.png,pic/flanker1.png,s,k,pic/AffRest3.png,,,,,,,,,,,,,,,,,,,,,,,,,0,2,2,2,0,9,9,8,,,,1163.3568552999932,None,1162.1735815999855,1163.3732498000027,s,1,0.8440876000095159,振作,k,1,0.5118700999883004,qxs,m,19,2024_Apr_21_1445,mian,2021.2.3,60.057679390517265,
,,,,,,1,0,pic/flanker5.png,pic/flanker3.png,a,l,pic/AffRest3.png,,,,,,,,,,,,,,,,,,,,,,,,,0,2,2,2,0,10,10,71,,,,1166.6046623000002,None,1165.4217995000072,1166.6217795999837,a,1,0.4421442000020761,假冒,l,1,0.7980429000162985,qxs,m,19,2024_Apr_21_1445,mian,2021.2.3,60.057679390517265,
,,,,,,1,0,pic/flanker6.png,pic/flanker4.png,s,l,pic/AffRest3.png,,,,,,,,,,,,,,,,,,,,,,,,,0,2,2,2,0,11,11,53,,,,1169.6891096000036,None,1168.5061900999863,1169.7060708999925,s,1,0.6792716000054497,沮丧,l,1,0.5117410999955609,qxs,m,19,2024_Apr_21_1445,mian,2021.2.3,60.057679390517265,
,,,,,,1,1,pic/flanker5.png,pic/flanker3.png,a,k,pic/AffRest3.png,,,,,,,,,,,,,,,,,,,,,,,,,0,2,2,2,0,12,12,20,,,,1172.722142099985,None,1171.5393267000036,1172.7390920000034,a,1,0.5113457999832463,前进,k,1,1.8845142000063788,qxs,m,19,2024_Apr_21_1445,mian,2021.2.3,60.057679390517265,
,,,,,,0,0,pic/flanker6.png,pic/flanker2.png,a,l,pic/AffRest3.png,,,,,,,,,,,,,,,,,,,,,,,,,0,2,2,2,0,13,13,25,,,,1177.1718989000074,None,1175.988509399991,1177.1885928999982,a,1,0.3905248999944888,焦躁,l,1,0.5334691999887582,qxs,m,19,2024_Apr_21_1445,mian,2021.2.3,60.057679390517265,
,,,,,,0,0,pic/flanker5.png,pic/flanker1.png,s,l,pic/AffRest3.png,,,,,,,,,,,,,,,,,,,,,,,,,0,2,2,2,0,14,14,67,,,,1180.0051893999917,None,1178.821680299996,1180.0213400000066,s,1,0.36190499999793246,排斥,l,1,0.6083638000127394,qxs,m,19,2024_Apr_21_1445,mian,2021.2.3,60.057679390517265,
,,,,,,0,1,pic/flanker5.png,pic/flanker1.png,s,k,pic/AffRest3.png,,,,,,,,,,,,,,,,,,,,,,,,,0,2,2,2,0,15,15,72,,,,1182.871553600009,None,1181.68813960001,1182.8877315999998,s,1,0.35343570000259206,敬佩,k,1,0.5444091999961529,qxs,m,19,2024_Apr_21_1445,mian,2021.2.3,60.057679390517265,
,,,,,,0,0,pic/flanker6.png,pic/flanker2.png,a,l,pic/AffRest3.png,,,,,,,,,,,,,,,,,,,,,,,,,0,2,2,2,0,16,16,9,,,,1185.654414699995,None,1184.4711495999945,1185.6712332000025,a,1,0.3405387999955565,慌忙,l,1,0.45701509999344125,qxs,m,19,2024_Apr_21_1445,mian,2021.2.3,60.057679390517265,
,,,,,,0,0,pic/flanker6.png,pic/flanker2.png,a,l,pic/AffRest3.png,,,,,,,,,,,,,,,,,,,,,,,,,0,2,2,2,0,17,17,33,,,,1188.354647500004,None,1187.1714537999942,1188.3714434999856,a,1,0.3322349999798462,冷笑,l,1,0.7756655999983195,qxs,m,19,2024_Apr_21_1445,mian,2021.2.3,60.057679390517265,
,,,,,,0,0,pic/flanker6.png,pic/flanker2.png,a,l,pic/AffRest3.png,,,,,,,,,,,,,,,,,,,,,,,,,0,2,2,2,0,18,18,41,,,,1191.5038064999972,None,1190.320616299985,1191.5206968999992,a,1,0.34301240000058897,鲁莽,l,1,0.5722542000003159,qxs,m,19,2024_Apr_21_1445,mian,2021.2.3,60.057679390517265,
,,,,,,0,0,pic/flanker6.png,pic/flanker2.png,a,l,pic/AffRest3.png,,,,,,,,,,,,,,,,,,,,,,,,,0,2,2,2,0,19,19,1,,,,1194.2701417999924,None,1193.0869539999985,1194.28702660001,a,1,0.5064914999820758,黑暗,l,1,0.5055430000065826,qxs,m,19,2024_Apr_21_1445,mian,2021.2.3,60.057679390517265,
,,,,,,0,0,pic/flanker5.png,pic/flanker1.png,s,l,pic/AffRest3.png,,,,,,,,,,,,,,,,,,,,,,,,,0,2,2,2,0,20,20,3,,,,1197.2870500999852,None,1196.1034945999854,1197.3034465000092,s,1,0.4828069999930449,懒惰,l,1,0.5476687000191305,qxs,m,19,2024_Apr_21_1445,mian,2021.2.3,60.057679390517265,
,,,,,,0,0,pic/flanker6.png,pic/flanker2.png,a,l,pic/AffRest3.png,,,,,,,,,,,,,,,,,,,,,,,,,0,2,2,2,0,21,21,17,,,,1200.3864890999976,None,1199.202827400004,1200.4028303000086,a,1,0.4062006000021938,落后,l,1,0.7391460999788251,qxs,m,19,2024_Apr_21_1445,mian,2021.2.3,60.057679390517265,
,,,,,,1,1,pic/flanker5.png,pic/flanker3.png,a,k,pic/AffRest3.png,,,,,,,,,,,,,,,,,,,,,,,,,0,2,2,2,0,22,22,28,,,,1203.5861447000061,None,1202.4026637999923,1203.6024982999952,a,1,0.9301330000162125,生动,k,1,0.7572578999970574,qxs,m,19,2024_Apr_21_1445,mian,2021.2.3,60.057679390517265,
,,,,,,0,1,pic/flanker6.png,pic/flanker2.png,a,k,pic/AffRest3.png,,,,,,,,,,,,,,,,,,,,,,,,,0,2,2,2,0,23,23,26,,,,1207.1524051000015,None,1205.96883659999,1207.1687759000051,a,1,0.9227166000055149,豪放,k,1,0.5988003000093158,qxs,m,19,2024_Apr_21_1445,mian,2021.2.3,60.057679390517265,
,,,,,,0,1,pic/flanker5.png,pic/flanker1.png,s,k,pic/AffRest3.png,,,,,,,,,,,,,,,,,,,,,,,,,0,2,2,2,0,24,24,16,,,,1210.5518464999914,None,1209.3689549999835,1210.5688814999885,s,1,0.3952761999971699,永恒,k,1,0.6494825000117999,qxs,m,19,2024_Apr_21_1445,mian,2021.2.3,60.057679390517265,
,,,,,,0,1,pic/flanker6.png,pic/flanker2.png,a,k,pic/AffRest3.png,,,,,,,,,,,,,,,,,,,,,,,,,0,2,2,2,0,25,25,58,,,,1213.5851426000008,None,1212.4018596000096,1213.601938000007,a,1,0.3525049999880139,丰满,k,1,0.7305261000001337,qxs,m,19,2024_Apr_21_1445,mian,2021.2.3,60.057679390517265,
,,,,,,0,0,pic/flanker6.png,pic/flanker2.png,a,l,pic/AffRest3.png,,,,,,,,,,,,,,,,,,,,,,,,,0,2,2,2,0,26,26,73,,,,1216.5513875999895,None,1215.3681379999907,1216.5682187000057,a,1,0.33060969997313805,胡涂,l,1,0.5214535999984946,qxs,m,19,2024_Apr_21_1445,mian,2021.2.3,60.057679390517265,
,,,,,,1,1,pic/flanker6.png,pic/flanker4.png,s,k,pic/AffRest3.png,,,,,,,,,,,,,,,,,,,,,,,,,0,2,2,2,0,27,27,6,,,,1219.301074899995,None,1218.117964200006,1219.3176070000045,s,1,0.5899422999937087,赞成,k,1,0.5552463000058196,qxs,m,19,2024_Apr_21_1445,mian,2021.2.3,60.057679390517265,
,,,,,,0,1,pic/flanker5.png,pic/flanker1.png,s,k,pic/AffRest3.png,,,,,,,,,,,,,,,,,,,,,,,,,0,2,2,2,0,28,28,24,,,,1222.5512455999851,None,1221.3674947000109,1222.5675602999981,s,1,0.3519664000195917,鲜艳,k,1,0.5221467000083067,qxs,m,19,2024_Apr_21_1445,mian,2021.2.3,60.057679390517265,
,,,,,,1,1,pic/flanker6.png,pic/flanker4.png,s,k,pic/AffRest3.png,,,,,,,,,,,,,,,,,,,,,,,,,0,2,2,2,0,29,29,54,,,,1225.3676580000028,None,1224.1839039000042,1225.3837182999996,s,1,0.5100832000025548,富丽,k,1,0.4527132000075653,qxs,m,19,2024_Apr_21_1445,mian,2021.2.3,60.057679390517265,
,,,,,,1,0,pic/flanker6.png,pic/flanker4.png,s,l,pic/AffRest3.png,,,,,,,,,,,,,,,,,,,,,,,,,0,2,2,2,0,30,30,69,,,,1228.2655435999914,None,1227.0823093999934,1228.2818487999903,s,1,0.5626285999896936,罚款,l,1,0.6279705000051763,qxs,m,19,2024_Apr_21_1445,mian,2021.2.3,60.057679390517265,
,,,,,,0,1,pic/flanker6.png,pic/flanker2.png,a,k,pic/AffRest3.png,,,,,,,,,,,,,,,,,,,,,,,,,0,2,2,2,0,31,31,34,,,,1231.3666422000097,None,1230.183767999988,1231.3837174999935,a,1,0.38625260000117123,享受,k,1,0.4217914000037126,qxs,m,19,2024_Apr_21_1445,mian,2021.2.3,60.057679390517265,
,,,,,,0,0,pic/flanker6.png,pic/flanker2.png,a,l,pic/AffRest3.png,,,,,,,,,,,,,,,,,,,,,,,,,0,2,2,2,0,32,32,49,,,,1234.0665031000099,None,1232.8830013999832,1234.0829763000074,a,1,0.3147713000071235,嘲笑,l,1,0.5574829000106547,qxs,m,19,2024_Apr_21_1445,mian,2021.2.3,60.057679390517265,
,,,,,,0,1,pic/flanker5.png,pic/flanker1.png,s,k,pic/AffRest3.png,,,,,,,,,,,,,,,,,,,,,,,,,0,2,2,2,0,33,33,0,,,,1237.016092100006,None,1235.833057699987,1237.0329483000096,s,1,0.3932102999824565,留恋,k,1,0.5505723000096623,qxs,m,19,2024_Apr_21_1445,mian,2021.2.3,60.057679390517265,
,,,,,,1,0,pic/flanker5.png,pic/flanker3.png,a,l,pic/AffRest3.png,,,,,,,,,,,,,,,,,,,,,,,,,0,2,2,2,0,34,34,39,,,,1239.9991376000107,None,1238.815875500004,1240.0158022000105,a,1,0.45479219997650944,悲观,l,1,0.47540680001839064,qxs,m,19,2024_Apr_21_1445,mian,2021.2.3,60.057679390517265,
,,,,,,0,1,pic/flanker6.png,pic/flanker2.png,a,k,pic/AffRest3.png,,,,,,,,,,,,,,,,,,,,,,,,,0,2,2,2,0,35,35,66,,,,1242.882071,None,1241.6993272999825,1242.8989266999997,a,1,0.38521120001678355,吉祥,k,1,0.618063500005519,qxs,m,19,2024_Apr_21_1445,mian,2021.2.3,60.057679390517265,
,,,,,,1,0,pic/flanker6.png,pic/flanker4.png,s,l,pic/AffRest3.png,,,,,,,,,,,,,,,,,,,,,,,,,0,2,2,2,0,36,36,61,,,,1245.7156044000003,None,1244.5321980000008,1245.7324363999942,s,1,0.5425002999836579,烦恼,l,1,0.6099468999891542,qxs,m,19,2024_Apr_21_1445,mian,2021.2.3,60.057679390517265,
,,,,,,1,0,pic/flanker5.png,pic/flanker3.png,a,l,pic/AffRest3.png,,,,,,,,,,,,,,,,,,,,,,,,,0,2,2,2,0,37,37,31,,,,1248.8313898000051,None,1247.648322699999,1248.8484392999962,a,1,0.44870819998322986,忧虑,l,1,0.7339033000171185,qxs,m,19,2024_Apr_21_1445,mian,2021.2.3,60.057679390517265,
,,,,,,0,0,pic/flanker5.png,pic/flanker1.png,s,l,pic/AffRest3.png,,,,,,,,,,,,,,,,,,,,,,,,,0,2,2,2,0,38,38,43,,,,1252.0650410999951,None,1250.8812815999845,1252.0817022999981,s,1,0.590772299998207,争吵,l,1,0.5937040999997407,qxs,m,19,2024_Apr_21_1445,mian,2021.2.3,60.057679390517265,
,,,,,,1,1,pic/flanker5.png,pic/flanker3.png,a,k,pic/AffRest3.png,,,,,,,,,,,,,,,,,,,,,,,,,0,2,2,2,0,39,39,68,,,,1255.097728199995,None,1253.914775399986,1255.1147154000064,a,1,0.5033462000137661,舒畅,k,1,0.5914628999889828,qxs,m,19,2024_Apr_21_1445,mian,2021.2.3,60.057679390517265,
,,,,,,1,0,pic/flanker5.png,pic/flanker3.png,a,l,pic/AffRest3.png,,,,,,,,,,,,,,,,,,,,,,,,,0,2,2,2,0,40,40,23,,,,1258.0141254999908,None,1256.8310415000014,1258.030752199993,a,1,0.7932130999979563,厌恶,l,1,0.49529760002042167,qxs,m,19,2024_Apr_21_1445,mian,2021.2.3,60.057679390517265,
,,,,,,0,0,pic/flanker6.png,pic/flanker2.png,a,l,pic/AffRest3.png,,,,,,,,,,,,,,,,,,,,,,,,,0,2,2,2,0,41,41,65,,,,1261.2972991999995,None,1260.1138369999826,1261.3138455000008,a,1,0.3736440999782644,穷苦,l,1,0.5044929000141565,qxs,m,19,2024_Apr_21_1445,mian,2021.2.3,60.057679390517265,
,,,,,,1,0,pic/flanker5.png,pic/flanker3.png,a,l,pic/AffRest3.png,,,,,,,,,,,,,,,,,,,,,,,,,0,2,2,2,0,42,42,15,,,,1264.263734999986,None,1263.0803471999825,1264.2799586000037,a,1,0.4701839000044856,心慌,l,1,0.4089743999938946,qxs,m,19,2024_Apr_21_1445,mian,2021.2.3,60.057679390517265,
,,,,,,1,0,pic/flanker6.png,pic/flanker4.png,s,l,pic/AffRest3.png,,,,,,,,,,,,,,,,,,,,,,,,,0,2,2,2,0,43,43,45,,,,1267.1966877999948,None,1266.0130765000067,1267.2134250999952,s,1,0.6493660999985877,损害,l,1,0.48668840000755154,qxs,m,19,2024_Apr_21_1445,mian,2021.2.3,60.057679390517265,
,,,,,,1,1,pic/flanker5.png,pic/flanker3.png,a,k,pic/AffRest3.png,,,,,,,,,,,,,,,,,,,,,,,,,0,2,2,2,0,44,44,36,,,,1270.2297839999956,None,1269.0463751000061,1270.2461777999997,a,1,0.40659910000977106,有利,k,1,0.46536279999418184,qxs,m,19,2024_Apr_21_1445,mian,2021.2.3,60.057679390517265,
,,,,,,0,1,pic/flanker6.png,pic/flanker2.png,a,k,pic/AffRest3.png,,,,,,,,,,,,,,,,,,,,,,,,,0,2,2,2,0,45,45,50,,,,1272.9793505999842,None,1271.7960945999948,1272.9960326,a,1,0.5912387999997009,雄厚,k,1,0.5210176999971736,qxs,m,19,2024_Apr_21_1445,mian,2021.2.3,60.057679390517265,
,,,,,,1,0,pic/flanker6.png,pic/flanker4.png,s,l,pic/AffRest3.png,,,,,,,,,,,,,,,,,,,,,,,,,0,2,2,2,0,46,46,21,,,,1276.0458410999854,None,1274.8625070999842,1276.062544299988,s,1,0.45408490000409074,孤单,l,1,0.3895769000228029,qxs,m,19,2024_Apr_21_1445,mian,2021.2.3,60.057679390517265,
,,,,,,0,0,pic/flanker5.png,pic/flanker1.png,s,l,pic/AffRest3.png,,,,,,,,,,,,,,,,,,,,,,,,,0,2,2,2,0,47,47,35,,,,1278.7455247000034,None,1277.5623064000101,1278.7620999999926,s,1,0.4729267000220716,处罚,k,0,0.45875650001107715,qxs,m,19,2024_Apr_21_1445,mian,2021.2.3,60.057679390517265,
,,,,,,1,1,pic/flanker5.png,pic/flanker3.png,a,k,pic/AffRest3.png,,,,,,,,,,,,,,,,,,,,,,,,,0,2,2,2,0,48,48,4,,,,1281.6286603999906,None,1280.4452318999975,1281.6451376999903,a,1,0.44743209998705424,爽朗,k,1,0.563206299993908,qxs,m,19,2024_Apr_21_1445,mian,2021.2.3,60.057679390517265,
,,,,,,0,0,pic/flanker5.png,pic/flanker1.png,s,l,pic/AffRest3.png,,,,,,,,,,,,,,,,,,,,,,,,,0,2,2,2,0,49,49,27,,,,1284.5780635999981,None,1283.3949183000077,1284.5949909999908,s,1,0.40704600000754,堵塞,l,1,0.5726806999882683,qxs,m,19,2024_Apr_21_1445,mian,2021.2.3,60.057679390517265,
,,,,,,1,1,pic/flanker5.png,pic/flanker3.png,a,k,pic/AffRest3.png,,,,,,,,,,,,,,,,,,,,,,,,,0,2,2,2,0,50,50,60,,,,1287.4944631999824,None,1286.3113034999988,1287.5111920000054,a,1,0.4134323000034783,旺盛,k,1,0.5744729000143707,qxs,m,19,2024_Apr_21_1445,mian,2021.2.3,60.057679390517265,
,,,,,,1,1,pic/flanker6.png,pic/flanker4.png,s,k,pic/AffRest3.png,,,,,,,,,,,,,,,,,,,,,,,,,0,2,2,2,0,51,51,46,,,,1290.3778588999994,None,1289.194729299983,1290.3942342000082,s,1,0.6326876000093762,公平,k,1,0.858047500019893,qxs,m,19,2024_Apr_21_1445,mian,2021.2.3,60.057679390517265,
,,,,,,0,0,pic/flanker5.png,pic/flanker1.png,s,l,pic/AffRest3.png,,,,,,,,,,,,,,,,,,,,,,,,,0,2,2,2,0,52,52,51,,,,1293.8777725999826,None,1292.6941749000107,1293.8940515999857,s,1,1.0546136999910232,自卑,l,1,0.4998347000218928,qxs,m,19,2024_Apr_21_1445,mian,2021.2.3,60.057679390517265,
,,,,,,0,1,pic/flanker6.png,pic/flanker2.png,a,k,pic/AffRest3.png,,,,,,,,,,,,,,,,,,,,,,,,,0,2,2,2,0,53,53,2,,,,1297.3602458999958,None,1296.1776920999982,1297.3772215000063,a,1,0.363940300012473,畅销,k,1,0.5983570000098553,qxs,m,19,2024_Apr_21_1445,mian,2021.2.3,60.057679390517265,
,,,,,,1,0,pic/flanker6.png,pic/flanker4.png,s,l,pic/AffRest3.png,,,,,,,,,,,,,,,,,,,,,,,,,0,2,2,2,0,54,54,77,,,,1300.2103203999868,None,1299.0267628000001,1300.2268167999864,s,1,0.8368700999999419,失意,l,1,0.557748499995796,qxs,m,19,2024_Apr_21_1445,mian,2021.2.3,60.057679390517265,
,,,,,,1,1,pic/flanker5.png,pic/flanker3.png,a,k,pic/AffRest3.png,,,,,,,,,,,,,,,,,,,,,,,,,0,2,2,2,0,55,55,44,,,,1303.4915961000079,None,1302.3090695999854,1303.5084791999834,a,1,0.4398796999885235,热切,k,1,0.438834600005066,qxs,m,19,2024_Apr_21_1445,mian,2021.2.3,60.057679390517265,
,,,,,,1,1,pic/flanker5.png,pic/flanker3.png,a,k,pic/AffRest3.png,,,,,,,,,,,,,,,,,,,,,,,,,0,2,2,2,0,56,56,52,,,,1306.4261145000055,None,1305.2431731999968,1306.4428792000108,a,1,0.4593629000009969,正直,k,1,0.6898559000110254,qxs,m,19,2024_Apr_21_1445,mian,2021.2.3,60.057679390517265,
,,,,,,1,0,pic/flanker5.png,pic/flanker3.png,a,l,pic/AffRest3.png,,,,,,,,,,,,,,,,,,,,,,,,,0,2,2,2,0,57,57,55,,,,1309.62599890001,None,1308.4423774000024,1309.6422483999922,a,1,0.6455995999858715,闷热,l,1,0.4910933000210207,qxs,m,19,2024_Apr_21_1445,mian,2021.2.3,60.057679390517265,
,,,,,,1,0,pic/flanker5.png,pic/flanker3.png,a,l,pic/AffRest3.png,,,,,,,,,,,,,,,,,,,,,,,,,0,2,2,2,0,58,58,47,,,,1312.7422851999872,None,1311.5589775999833,1312.759083299985,a,1,0.5864675999910105,禁止,l,1,0.5230078999884427,qxs,m,19,2024_Apr_21_1445,mian,2021.2.3,60.057679390517265,
,,,,,,1,1,pic/flanker6.png,pic/flanker4.png,s,k,pic/AffRest3.png,,,,,,,,,,,,,,,,,,,,,,,,,0,2,2,2,0,59,59,22,,,,1315.7919460999838,None,1314.6085580000072,1315.8082888000063,s,1,0.4909715999965556,诚恳,k,1,0.48259679999318905,qxs,m,19,2024_Apr_21_1445,mian,2021.2.3,60.057679390517265,
,,,,,,1,0,pic/flanker6.png,pic/flanker4.png,s,l,pic/AffRest3.png,,,,,,,,,,,,,,,,,,,,,,,,,0,2,2,2,0,60,60,29,,,,1318.6413504999946,None,1317.4583741000097,1318.6586288000108,s,1,0.42985090002184734,缺乏,l,1,0.472795399982715,qxs,m,19,2024_Apr_21_1445,mian,2021.2.3,60.057679390517265,
,,,,,,1,0,pic/flanker5.png,pic/flanker3.png,a,l,pic/AffRest3.png,,,,,,,,,,,,,,,,,,,,,,,,,0,2,2,2,0,61,61,63,,,,1321.4411309999996,None,1320.258860700007,1321.4746212000027,a,1,0.5025467000086792,郁闷,l,1,0.45525530001032166,qxs,m,19,2024_Apr_21_1445,mian,2021.2.3,60.057679390517265,
,,,,,,1,1,pic/flanker6.png,pic/flanker4.png,s,k,pic/AffRest3.png,,,,,,,,,,,,,,,,,,,,,,,,,0,2,2,2,0,62,62,78,,,,1324.4578825999924,None,1323.2746209999896,1324.4740211000026,s,1,0.4741626000031829,珍藏,l,0,0.45031590000144206,qxs,m,19,2024_Apr_21_1445,mian,2021.2.3,60.057679390517265,
,,,,,,0,0,pic/flanker5.png,pic/flanker1.png,s,l,pic/AffRest3.png,,,,,,,,,,,,,,,,,,,,,,,,,0,2,2,2,0,63,63,19,,,,1327.224421699997,None,1326.0410944999894,1327.2407170000079,s,1,0.44363179997890256,轻率,k,0,0.480386900017038,qxs,m,19,2024_Apr_21_1445,mian,2021.2.3,60.057679390517265,
,,,,,,0,1,pic/flanker5.png,pic/flanker1.png,s,k,pic/AffRest3.png,,,,,,,,,,,,,,,,,,,,,,,,,0,2,2,2,0,64,64,64,,,,1330.1909580999927,None,1329.0072111999907,1330.207470399997,s,1,0.4897869999986142,清秀,k,1,0.56337839999469,qxs,m,19,2024_Apr_21_1445,mian,2021.2.3,60.057679390517265,
,,,,,,0,1,pic/flanker6.png,pic/flanker2.png,a,k,pic/AffRest3.png,,,,,,,,,,,,,,,,,,,,,,,,,0,2,2,2,0,65,65,74,,,,1333.1902337000065,None,1332.0067426000023,1333.2066457000037,a,1,0.4030526999849826,顽强,k,1,0.4881030999822542,qxs,m,19,2024_Apr_21_1445,mian,2021.2.3,60.057679390517265,
,,,,,,1,0,pic/flanker5.png,pic/flanker3.png,a,l,pic/AffRest3.png,,,,,,,,,,,,,,,,,,,,,,,,,0,2,2,2,0,66,66,79,,,,1336.1233352999843,None,1334.9398400000064,1336.1396825999836,a,1,0.5449024999979883,杂乱,l,1,1.5144932999974117,qxs,m,19,2024_Apr_21_1445,mian,2021.2.3,60.057679390517265,
,,,,,,1,1,pic/flanker6.png,pic/flanker4.png,s,k,pic/AffRest3.png,,,,,,,,,,,,,,,,,,,,,,,,,0,2,2,2,0,67,67,30,,,,1340.2226855999907,None,1339.039727700001,1340.2394313999976,s,1,0.45790509998914786,典雅,k,1,0.48238540001329966,qxs,m,19,2024_Apr_21_1445,mian,2021.2.3,60.057679390517265,
,,,,,,1,0,pic/flanker6.png,pic/flanker4.png,s,l,pic/AffRest3.png,,,,,,,,,,,,,,,,,,,,,,,,,0,2,2,2,0,68,68,5,,,,1343.1057282999973,None,1341.922879299993,1343.1224243000033,s,1,0.49166780000086874,消沉,l,1,0.6301123999874108,qxs,m,19,2024_Apr_21_1445,mian,2021.2.3,60.057679390517265,
,,,,,,1,0,pic/flanker6.png,pic/flanker4.png,s,l,pic/AffRest3.png,,,,,,,,,,,,,,,,,,,,,,,,,0,2,2,2,0,69,69,37,,,,1346.1221274999843,None,1344.9389824999962,1346.1386759000015,s,1,0.5632975999906193,逃避,l,1,0.5782907999819145,qxs,m,19,2024_Apr_21_1445,mian,2021.2.3,60.057679390517265,
,,,,,,1,1,pic/flanker6.png,pic/flanker4.png,s,k,pic/AffRest3.png,,,,,,,,,,,,,,,,,,,,,,,,,0,2,2,2,0,70,70,38,,,,1349.20517619999,None,1348.0219532999909,1349.222156999982,s,1,0.4815595999825746,秀丽,k,1,0.558551099995384,qxs,m,19,2024_Apr_21_1445,mian,2021.2.3,60.057679390517265,
,,,,,,1,1,pic/flanker5.png,pic/flanker3.png,a,k,pic/AffRest3.png,,,,,,,,,,,,,,,,,,,,,,,,,0,2,2,2,0,71,71,76,,,,1352.0882478999847,None,1350.905430099985,1352.1051363000006,a,1,0.4439029000059236,卓越,k,1,0.5356771000078879,qxs,m,19,2024_Apr_21_1445,mian,2021.2.3,60.057679390517265,
,,,,,,0,0,pic/flanker5.png,pic/flanker1.png,s,l,pic/AffRest3.png,,,,,,,,,,,,,,,,,,,,,,,,,0,2,2,2,0,72,72,59,,,,1354.9214104999846,None,1353.7381490999833,1354.9381377999962,s,1,0.4694258999952581,撒谎,l,1,0.5160651999758556,qxs,m,19,2024_Apr_21_1445,mian,2021.2.3,60.057679390517265,
,,,,,,1,0,pic/flanker5.png,pic/flanker3.png,a,l,pic/AffRest3.png,,,,,,,,,,,,,,,,,,,,,,,,,0,2,2,2,0,73,73,7,,,,1357.737602100009,None,1356.5546990000003,1357.7547642999853,a,1,0.40014790001441725,怀疑,l,1,0.5630017999792472,qxs,m,19,2024_Apr_21_1445,mian,2021.2.3,60.057679390517265,
,,,,,,0,1,pic/flanker5.png,pic/flanker1.png,s,k,pic/AffRest3.png,,,,,,,,,,,,,,,,,,,,,,,,,0,2,2,2,0,74,74,48,,,,1360.5539238000056,None,1359.3709250999964,1360.5709895000036,s,1,0.345040499989409,俊秀,k,1,0.5091233999992255,qxs,m,19,2024_Apr_21_1445,mian,2021.2.3,60.057679390517265,
,,,,,,0,1,pic/flanker5.png,pic/flanker1.png,s,k,pic/AffRest3.png,,,,,,,,,,,,,,,,,,,,,,,,,0,2,2,2,0,75,75,32,,,,1363.2537474999845,None,1362.0709566999867,1363.2702526999929,s,1,0.35903479999979027,瑰丽,k,1,0.452135300001828,qxs,m,19,2024_Apr_21_1445,mian,2021.2.3,60.057679390517265,
,,,,,,0,1,pic/flanker5.png,pic/flanker1.png,s,k,pic/AffRest3.png,,,,,,,,,,,,,,,,,,,,,,,,,0,2,2,2,0,76,76,56,,,,1366.003358099988,None,1364.8206989000028,1366.020265500003,s,1,0.4369224999973085,富足,k,1,0.4518182000028901,qxs,m,19,2024_Apr_21_1445,mian,2021.2.3,60.057679390517265,
,,,,,,1,1,pic/flanker6.png,pic/flanker4.png,s,k,pic/AffRest3.png,,,,,,,,,,,,,,,,,,,,,,,,,0,2,2,2,0,77,77,70,,,,1368.870110399992,None,1367.6869394000096,1368.8872707999835,s,1,0.4211286000208929,充裕,l,0,0.5077058000024408,qxs,m,19,2024_Apr_21_1445,mian,2021.2.3,60.057679390517265,
