target,反应类型,条件,truetarget,CorAns,Position,congruency,AffValue,flankerPic,targetPic,corAnsF,corAnsA,RestPic,returnPractice.thisRepN,returnPractice.thisTrialN,returnPractice.thisN,returnPractice.thisIndex,pracNum.thisRepN,pracNum.thisTrialN,pracNum.thisN,pracNum.thisIndex,NumBlock1.thisRepN,NumBlock1.thisTrialN,NumBlock1.thisN,NumBlock1.thisIndex,NumBlock2.thisRepN,NumBlock2.thisTrialN,NumBlock2.thisN,NumBlock2.thisIndex,returnPrac.thisRepN,returnPrac.thisTrialN,returnPrac.thisN,returnPrac.thisIndex,PracAff.thisRepN,PracAff.thisTrialN,PracAff.thisN,PracAff.thisIndex,AffBlocks.thisRepN,AffBlocks.thisTrialN,AffBlocks.thisN,AffBlocks.thisIndex,AffBlock1.thisRepN,AffBlock1.thisTrialN,AffBlock1.thisN,AffBlock1.thisIndex,respNum2word.keys,respNum2word.corr,respNum2word.rt,text.started,text.stopped,blank.started,blank.stopped,respFlanker.keys,respFlanker.corr,respFlanker.rt,thisWord,respAffWord.keys,respAffWord.corr,respAffWord.rt,姓名,性别,年龄（周岁）,date,expName,psychopyVersion,frameRate,
2A,1,1,A,a,"[0.2, 0.2]",,,,,,,,0,0,0,0,0,0,0,0,,,,,,,,,,,,,,,,,,,,,,,,,a,1,1.141638300003251,,,,,,,,,,,,shj,m,21,2024_Apr_14_1723,mian,2021.2.3,59.940574908136234,
A9,1,2,A,a,"[-0.2, 0.2]",,,,,,,,0,0,0,0,0,1,1,1,,,,,,,,,,,,,,,,,,,,,,,,,a,1,0.7657842000189703,,,,,,,,,,,,shj,m,21,2024_Apr_14_1723,mian,2021.2.3,59.940574908136234,
7e,2,1,7.0,a,"[-0.2, -0.2]",,,,,,,,0,0,0,0,0,2,2,2,,,,,,,,,,,,,,,,,,,,,,,,,l,0,1.1113398000015877,,,,,,,,,,,,shj,m,21,2024_Apr_14_1723,mian,2021.2.3,59.940574908136234,
9H,2,2,9.0,a,"[0.2, -0.2]",,,,,,,,0,0,0,0,0,3,3,3,,,,,,,,,,,,,,,,,,,,,,,,,l,0,3.0061792000196874,,,,,,,,,,,,shj,m,21,2024_Apr_14_1723,mian,2021.2.3,59.940574908136234,
h4,1,1,h,l,"[0.2, 0.2]",,,,,,,,0,0,0,0,0,4,4,4,,,,,,,,,,,,,,,,,,,,,,,,,l,1,0.9863381000177469,,,,,,,,,,,,shj,m,21,2024_Apr_14_1723,mian,2021.2.3,59.940574908136234,
4H,1,2,H,a,"[-0.2, 0.2]",,,,,,,,0,0,0,0,0,5,5,5,,,,,,,,,,,,,,,,,,,,,,,,,a,1,1.54832569998689,,,,,,,,,,,,shj,m,21,2024_Apr_14_1723,mian,2021.2.3,59.940574908136234,
F8,2,1,8.0,l,"[-0.2, -0.2]",,,,,,,,0,0,0,0,0,6,6,6,,,,,,,,,,,,,,,,,,,,,,,,,a,0,1.424134300003061,,,,,,,,,,,,shj,m,21,2024_Apr_14_1723,mian,2021.2.3,59.940574908136234,
h7,2,2,7.0,a,"[0.2, -0.2]",,,,,,,,0,0,0,0,0,7,7,7,,,,,,,,,,,,,,,,,,,,,,,,,a,1,0.7967615000088699,,,,,,,,,,,,shj,m,21,2024_Apr_14_1723,mian,2021.2.3,59.940574908136234,
5e,1,1,e,l,"[0.2, 0.2]",,,,,,,,0,0,0,0,0,8,8,8,,,,,,,,,,,,,,,,,,,,,,,,,l,1,1.1498735999921337,,,,,,,,,,,,shj,m,21,2024_Apr_14_1723,mian,2021.2.3,59.940574908136234,
e8,1,2,e,l,"[-0.2, 0.2]",,,,,,,,0,0,0,0,0,9,9,9,,,,,,,,,,,,,,,,,,,,,,,,,l,1,1.0545922000019345,,,,,,,,,,,,shj,m,21,2024_Apr_14_1723,mian,2021.2.3,59.940574908136234,
4E,2,1,4.0,l,"[-0.2, -0.2]",,,,,,,,0,0,0,0,0,10,10,10,,,,,,,,,,,,,,,,,,,,,,,,,a,0,0.8545408999780193,,,,,,,,,,,,shj,m,21,2024_Apr_14_1723,mian,2021.2.3,59.940574908136234,
5H,2,2,5.0,a,"[0.2, -0.2]",,,,,,,,0,0,0,0,0,11,11,11,,,,,,,,,,,,,,,,,,,,,,,,,a,1,0.8884356000053231,,,,,,,,,,,,shj,m,21,2024_Apr_14_1723,mian,2021.2.3,59.940574908136234,
9E,1,1,E,a,"[0.2, 0.2]",,,,,,,,0,0,0,0,0,12,12,12,,,,,,,,,,,,,,,,,,,,,,,,,a,1,1.3849935999896843,,,,,,,,,,,,shj,m,21,2024_Apr_14_1723,mian,2021.2.3,59.940574908136234,
h9,1,2,h,l,"[-0.2, 0.2]",,,,,,,,0,0,0,0,0,13,13,13,,,,,,,,,,,,,,,,,,,,,,,,,l,1,0.5930749000108335,,,,,,,,,,,,shj,m,21,2024_Apr_14_1723,mian,2021.2.3,59.940574908136234,
2a,2,1,2.0,l,"[-0.2, -0.2]",,,,,,,,0,0,0,0,0,14,14,14,,,,,,,,,,,,,,,,,,,,,,,,,l,1,1.28961390000768,,,,,,,,,,,,shj,m,21,2024_Apr_14_1723,mian,2021.2.3,59.940574908136234,
e5,2,2,5.0,a,"[0.2, -0.2]",,,,,,,,0,0,0,0,0,15,15,15,,,,,,,,,,,,,,,,,,,,,,,,,a,1,0.5257980000169482,,,,,,,,,,,,shj,m,21,2024_Apr_14_1723,mian,2021.2.3,59.940574908136234,
A5,1,1,A,a,"[0.2, 0.2]",,,,,,,,0,0,0,0,0,16,16,16,,,,,,,,,,,,,,,,,,,,,,,,,l,0,0.9154625000082888,,,,,,,,,,,,shj,m,21,2024_Apr_14_1723,mian,2021.2.3,59.940574908136234,
a6,1,2,a,l,"[-0.2, 0.2]",,,,,,,,0,0,0,0,0,17,17,17,,,,,,,,,,,,,,,,,,,,,,,,,l,1,0.46581930000684224,,,,,,,,,,,,shj,m,21,2024_Apr_14_1723,mian,2021.2.3,59.940574908136234,
2F,2,1,2.0,l,"[-0.2, -0.2]",,,,,,,,0,0,0,0,0,18,18,18,,,,,,,,,,,,,,,,,,,,,,,,,l,1,1.445550500007812,,,,,,,,,,,,shj,m,21,2024_Apr_14_1723,mian,2021.2.3,59.940574908136234,
e4,2,2,4.0,l,"[0.2, -0.2]",,,,,,,,0,0,0,0,0,19,19,19,,,,,,,,,,,,,,,,,,,,,,,,,l,1,0.8460568000155035,,,,,,,,,,,,shj,m,21,2024_Apr_14_1723,mian,2021.2.3,59.940574908136234,
,,,,,,,,,,,,,0,0,0,0,,,,,,,,,,,,,,,,,,,,,,,,,,,,,,,,,,,,,,,,,,,shj,m,21,2024_Apr_14_1723,mian,2021.2.3,59.940574908136234,
7h,1,1,h,l,"[0.2, 0.2]",,,,,,,,,,,,,,,,0,0,0,0,,,,,,,,,,,,,,,,,,,,,l,1,1.5467455000034533,,,,,,,,,,,,shj,m,21,2024_Apr_14_1723,mian,2021.2.3,59.940574908136234,
8F,1,2,F,a,"[-0.2, 0.2]",,,,,,,,,,,,,,,,0,1,1,1,,,,,,,,,,,,,,,,,,,,,a,1,1.681127399991965,,,,,,,,,,,,shj,m,21,2024_Apr_14_1723,mian,2021.2.3,59.940574908136234,
8h,2,1,8.0,l,"[-0.2, -0.2]",,,,,,,,,,,,,,,,0,2,2,2,,,,,,,,,,,,,,,,,,,,,l,1,1.3167579000000842,,,,,,,,,,,,shj,m,21,2024_Apr_14_1723,mian,2021.2.3,59.940574908136234,
a2,2,2,2.0,l,"[0.2, -0.2]",,,,,,,,,,,,,,,,0,3,3,3,,,,,,,,,,,,,,,,,,,,,l,1,1.1337579999817535,,,,,,,,,,,,shj,m,21,2024_Apr_14_1723,mian,2021.2.3,59.940574908136234,
8f,1,1,f,l,"[0.2, 0.2]",,,,,,,,,,,,,,,,0,4,4,4,,,,,,,,,,,,,,,,,,,,,l,1,1.3499903999909293,,,,,,,,,,,,shj,m,21,2024_Apr_14_1723,mian,2021.2.3,59.940574908136234,
6a,1,2,a,l,"[-0.2, 0.2]",,,,,,,,,,,,,,,,0,5,5,5,,,,,,,,,,,,,,,,,,,,,a,0,1.0449061999970581,,,,,,,,,,,,shj,m,21,2024_Apr_14_1723,mian,2021.2.3,59.940574908136234,
h6,2,1,6.0,l,"[-0.2, -0.2]",,,,,,,,,,,,,,,,0,6,6,6,,,,,,,,,,,,,,,,,,,,,l,1,1.4808454999874812,,,,,,,,,,,,shj,m,21,2024_Apr_14_1723,mian,2021.2.3,59.940574908136234,
f9,2,2,9.0,a,"[0.2, -0.2]",,,,,,,,,,,,,,,,0,7,7,7,,,,,,,,,,,,,,,,,,,,,a,1,0.9006564999872353,,,,,,,,,,,,shj,m,21,2024_Apr_14_1723,mian,2021.2.3,59.940574908136234,
E4,1,1,E,a,"[0.2, 0.2]",,,,,,,,,,,,,,,,0,8,8,8,,,,,,,,,,,,,,,,,,,,,a,1,1.4340502000122797,,,,,,,,,,,,shj,m,21,2024_Apr_14_1723,mian,2021.2.3,59.940574908136234,
6e,1,2,e,l,"[-0.2, 0.2]",,,,,,,,,,,,,,,,0,9,9,9,,,,,,,,,,,,,,,,,,,,,l,1,0.5342510000045877,,,,,,,,,,,,shj,m,21,2024_Apr_14_1723,mian,2021.2.3,59.940574908136234,
5G,2,1,5.0,a,"[-0.2, -0.2]",,,,,,,,,,,,,,,,0,10,10,10,,,,,,,,,,,,,,,,,,,,,a,1,1.4899189999850933,,,,,,,,,,,,shj,m,21,2024_Apr_14_1723,mian,2021.2.3,59.940574908136234,
h3,2,2,3.0,a,"[0.2, -0.2]",,,,,,,,,,,,,,,,0,11,11,11,,,,,,,,,,,,,,,,,,,,,a,1,0.5694369000266306,,,,,,,,,,,,shj,m,21,2024_Apr_14_1723,mian,2021.2.3,59.940574908136234,
9e,1,1,e,l,"[0.2, 0.2]",,,,,,,,,,,,,,,,0,12,12,12,,,,,,,,,,,,,,,,,,,,,l,1,1.273368499998469,,,,,,,,,,,,shj,m,21,2024_Apr_14_1723,mian,2021.2.3,59.940574908136234,
a8,1,2,a,l,"[-0.2, 0.2]",,,,,,,,,,,,,,,,0,13,13,13,,,,,,,,,,,,,,,,,,,,,l,1,0.5954142000118736,,,,,,,,,,,,shj,m,21,2024_Apr_14_1723,mian,2021.2.3,59.940574908136234,
e8,2,1,8.0,l,"[-0.2, -0.2]",,,,,,,,,,,,,,,,0,14,14,14,,,,,,,,,,,,,,,,,,,,,l,1,1.7813219000236131,,,,,,,,,,,,shj,m,21,2024_Apr_14_1723,mian,2021.2.3,59.940574908136234,
3f,2,2,3.0,a,"[0.2, -0.2]",,,,,,,,,,,,,,,,0,15,15,15,,,,,,,,,,,,,,,,,,,,,a,1,0.44316900000558235,,,,,,,,,,,,shj,m,21,2024_Apr_14_1723,mian,2021.2.3,59.940574908136234,
7f,1,1,f,l,"[0.2, 0.2]",,,,,,,,,,,,,,,,0,16,16,16,,,,,,,,,,,,,,,,,,,,,l,1,0.7468963999999687,,,,,,,,,,,,shj,m,21,2024_Apr_14_1723,mian,2021.2.3,59.940574908136234,
a7,1,2,a,l,"[-0.2, 0.2]",,,,,,,,,,,,,,,,0,17,17,17,,,,,,,,,,,,,,,,,,,,,l,1,0.4679867999802809,,,,,,,,,,,,shj,m,21,2024_Apr_14_1723,mian,2021.2.3,59.940574908136234,
5A,2,1,5.0,a,"[-0.2, -0.2]",,,,,,,,,,,,,,,,0,18,18,18,,,,,,,,,,,,,,,,,,,,,a,1,1.1894124999816995,,,,,,,,,,,,shj,m,21,2024_Apr_14_1723,mian,2021.2.3,59.940574908136234,
8g,2,2,8.0,l,"[0.2, -0.2]",,,,,,,,,,,,,,,,0,19,19,19,,,,,,,,,,,,,,,,,,,,,l,1,0.4062979999871459,,,,,,,,,,,,shj,m,21,2024_Apr_14_1723,mian,2021.2.3,59.940574908136234,
9a,1,1,a,l,"[0.2, 0.2]",,,,,,,,,,,,,,,,0,20,20,20,,,,,,,,,,,,,,,,,,,,,l,1,1.4421308999881148,,,,,,,,,,,,shj,m,21,2024_Apr_14_1723,mian,2021.2.3,59.940574908136234,
f7,1,2,f,l,"[-0.2, 0.2]",,,,,,,,,,,,,,,,0,21,21,21,,,,,,,,,,,,,,,,,,,,,l,1,0.5223712000006344,,,,,,,,,,,,shj,m,21,2024_Apr_14_1723,mian,2021.2.3,59.940574908136234,
g9,2,1,9.0,a,"[-0.2, -0.2]",,,,,,,,,,,,,,,,0,22,22,22,,,,,,,,,,,,,,,,,,,,,l,0,1.412691099976655,,,,,,,,,,,,shj,m,21,2024_Apr_14_1723,mian,2021.2.3,59.940574908136234,
3h,2,2,3.0,a,"[0.2, -0.2]",,,,,,,,,,,,,,,,0,23,23,23,,,,,,,,,,,,,,,,,,,,,a,1,1.0537990000157151,,,,,,,,,,,,shj,m,21,2024_Apr_14_1723,mian,2021.2.3,59.940574908136234,
E6,1,1,E,a,"[0.2, 0.2]",,,,,,,,,,,,,,,,0,24,24,24,,,,,,,,,,,,,,,,,,,,,l,0,0.8231749000260606,,,,,,,,,,,,shj,m,21,2024_Apr_14_1723,mian,2021.2.3,59.940574908136234,
F6,1,2,F,a,"[-0.2, 0.2]",,,,,,,,,,,,,,,,0,25,25,25,,,,,,,,,,,,,,,,,,,,,a,1,0.5674826999893412,,,,,,,,,,,,shj,m,21,2024_Apr_14_1723,mian,2021.2.3,59.940574908136234,
3A,2,1,3.0,a,"[-0.2, -0.2]",,,,,,,,,,,,,,,,0,26,26,26,,,,,,,,,,,,,,,,,,,,,a,1,1.3936192999826744,,,,,,,,,,,,shj,m,21,2024_Apr_14_1723,mian,2021.2.3,59.940574908136234,
8H,2,2,8.0,l,"[0.2, -0.2]",,,,,,,,,,,,,,,,0,27,27,27,,,,,,,,,,,,,,,,,,,,,l,1,0.48288890000549145,,,,,,,,,,,,shj,m,21,2024_Apr_14_1723,mian,2021.2.3,59.940574908136234,
5a,1,1,a,l,"[0.2, 0.2]",,,,,,,,,,,,,,,,0,28,28,28,,,,,,,,,,,,,,,,,,,,,l,1,0.9460544000030495,,,,,,,,,,,,shj,m,21,2024_Apr_14_1723,mian,2021.2.3,59.940574908136234,
2h,1,2,h,l,"[-0.2, 0.2]",,,,,,,,,,,,,,,,0,29,29,29,,,,,,,,,,,,,,,,,,,,,l,1,0.8733821000205353,,,,,,,,,,,,shj,m,21,2024_Apr_14_1723,mian,2021.2.3,59.940574908136234,
e5,2,1,5.0,a,"[-0.2, -0.2]",,,,,,,,,,,,,,,,0,30,30,30,,,,,,,,,,,,,,,,,,,,,a,1,1.2853348999924492,,,,,,,,,,,,shj,m,21,2024_Apr_14_1723,mian,2021.2.3,59.940574908136234,
a3,2,2,3.0,a,"[0.2, -0.2]",,,,,,,,,,,,,,,,0,31,31,31,,,,,,,,,,,,,,,,,,,,,a,1,0.6569140000210609,,,,,,,,,,,,shj,m,21,2024_Apr_14_1723,mian,2021.2.3,59.940574908136234,
f3,1,1,f,l,"[0.2, 0.2]",,,,,,,,,,,,,,,,0,32,32,32,,,,,,,,,,,,,,,,,,,,,l,1,1.2425917999935336,,,,,,,,,,,,shj,m,21,2024_Apr_14_1723,mian,2021.2.3,59.940574908136234,
2E,1,2,E,a,"[-0.2, 0.2]",,,,,,,,,,,,,,,,0,33,33,33,,,,,,,,,,,,,,,,,,,,,l,0,0.7375658999953885,,,,,,,,,,,,shj,m,21,2024_Apr_14_1723,mian,2021.2.3,59.940574908136234,
2H,2,1,2.0,l,"[-0.2, -0.2]",,,,,,,,,,,,,,,,0,34,34,34,,,,,,,,,,,,,,,,,,,,,l,1,1.3966113999777008,,,,,,,,,,,,shj,m,21,2024_Apr_14_1723,mian,2021.2.3,59.940574908136234,
H8,2,2,8.0,l,"[0.2, -0.2]",,,,,,,,,,,,,,,,0,35,35,35,,,,,,,,,,,,,,,,,,,,,l,1,0.5593059999810066,,,,,,,,,,,,shj,m,21,2024_Apr_14_1723,mian,2021.2.3,59.940574908136234,
9g,1,1,g,l,"[0.2, 0.2]",,,,,,,,,,,,,,,,0,36,36,36,,,,,,,,,,,,,,,,,,,,,l,1,0.6228112000098918,,,,,,,,,,,,shj,m,21,2024_Apr_14_1723,mian,2021.2.3,59.940574908136234,
5h,1,2,h,l,"[-0.2, 0.2]",,,,,,,,,,,,,,,,0,37,37,37,,,,,,,,,,,,,,,,,,,,,l,1,1.0556017000053544,,,,,,,,,,,,shj,m,21,2024_Apr_14_1723,mian,2021.2.3,59.940574908136234,
e4,2,1,4.0,l,"[-0.2, -0.2]",,,,,,,,,,,,,,,,0,38,38,38,,,,,,,,,,,,,,,,,,,,,l,1,0.9028671999985818,,,,,,,,,,,,shj,m,21,2024_Apr_14_1723,mian,2021.2.3,59.940574908136234,
9h,2,2,9.0,a,"[0.2, -0.2]",,,,,,,,,,,,,,,,0,39,39,39,,,,,,,,,,,,,,,,,,,,,a,1,0.6023290000157431,,,,,,,,,,,,shj,m,21,2024_Apr_14_1723,mian,2021.2.3,59.940574908136234,
G3,1,1,G,a,"[0.2, 0.2]",,,,,,,,,,,,,,,,0,40,40,40,,,,,,,,,,,,,,,,,,,,,a,1,0.9824176999973133,,,,,,,,,,,,shj,m,21,2024_Apr_14_1723,mian,2021.2.3,59.940574908136234,
9A,1,2,A,a,"[-0.2, 0.2]",,,,,,,,,,,,,,,,0,41,41,41,,,,,,,,,,,,,,,,,,,,,a,1,0.4062798000231851,,,,,,,,,,,,shj,m,21,2024_Apr_14_1723,mian,2021.2.3,59.940574908136234,
H5,2,1,5.0,a,"[-0.2, -0.2]",,,,,,,,,,,,,,,,0,42,42,42,,,,,,,,,,,,,,,,,,,,,l,0,1.2843129000102635,,,,,,,,,,,,shj,m,21,2024_Apr_14_1723,mian,2021.2.3,59.940574908136234,
4e,2,2,4.0,l,"[0.2, -0.2]",,,,,,,,,,,,,,,,0,43,43,43,,,,,,,,,,,,,,,,,,,,,l,1,0.6581907999934629,,,,,,,,,,,,shj,m,21,2024_Apr_14_1723,mian,2021.2.3,59.940574908136234,
E2,1,1,E,a,"[0.2, 0.2]",,,,,,,,,,,,,,,,0,44,44,44,,,,,,,,,,,,,,,,,,,,,a,1,1.515924500010442,,,,,,,,,,,,shj,m,21,2024_Apr_14_1723,mian,2021.2.3,59.940574908136234,
A5,1,2,A,a,"[-0.2, 0.2]",,,,,,,,,,,,,,,,0,45,45,45,,,,,,,,,,,,,,,,,,,,,a,1,0.38487479998730123,,,,,,,,,,,,shj,m,21,2024_Apr_14_1723,mian,2021.2.3,59.940574908136234,
2A,2,1,2.0,l,"[-0.2, -0.2]",,,,,,,,,,,,,,,,0,46,46,46,,,,,,,,,,,,,,,,,,,,,l,1,1.3971003999758977,,,,,,,,,,,,shj,m,21,2024_Apr_14_1723,mian,2021.2.3,59.940574908136234,
6G,2,2,6.0,l,"[0.2, -0.2]",,,,,,,,,,,,,,,,0,47,47,47,,,,,,,,,,,,,,,,,,,,,l,1,1.4419574000057764,,,,,,,,,,,,shj,m,21,2024_Apr_14_1723,mian,2021.2.3,59.940574908136234,
H3,1,1,H,a,"[0.2, 0.2]",,,,,,,,,,,,,,,,0,48,48,48,,,,,,,,,,,,,,,,,,,,,a,1,0.9147792999865487,,,,,,,,,,,,shj,m,21,2024_Apr_14_1723,mian,2021.2.3,59.940574908136234,
H2,1,2,H,a,"[-0.2, 0.2]",,,,,,,,,,,,,,,,0,49,49,49,,,,,,,,,,,,,,,,,,,,,a,1,0.8534993999928702,,,,,,,,,,,,shj,m,21,2024_Apr_14_1723,mian,2021.2.3,59.940574908136234,
e9,2,1,9.0,a,"[-0.2, -0.2]",,,,,,,,,,,,,,,,0,50,50,50,,,,,,,,,,,,,,,,,,,,,a,1,1.2885062999848742,,,,,,,,,,,,shj,m,21,2024_Apr_14_1723,mian,2021.2.3,59.940574908136234,
2G,2,2,2.0,l,"[0.2, -0.2]",,,,,,,,,,,,,,,,0,51,51,51,,,,,,,,,,,,,,,,,,,,,l,1,0.5990574999887031,,,,,,,,,,,,shj,m,21,2024_Apr_14_1723,mian,2021.2.3,59.940574908136234,
4f,1,1,f,l,"[0.2, 0.2]",,,,,,,,,,,,,,,,0,52,52,52,,,,,,,,,,,,,,,,,,,,,l,1,0.675644300004933,,,,,,,,,,,,shj,m,21,2024_Apr_14_1723,mian,2021.2.3,59.940574908136234,
H6,1,2,H,a,"[-0.2, 0.2]",,,,,,,,,,,,,,,,0,53,53,53,,,,,,,,,,,,,,,,,,,,,a,1,0.5967124000017066,,,,,,,,,,,,shj,m,21,2024_Apr_14_1723,mian,2021.2.3,59.940574908136234,
A4,2,1,4.0,l,"[-0.2, -0.2]",,,,,,,,,,,,,,,,0,54,54,54,,,,,,,,,,,,,,,,,,,,,l,1,1.2949570000055246,,,,,,,,,,,,shj,m,21,2024_Apr_14_1723,mian,2021.2.3,59.940574908136234,
3F,2,2,3.0,a,"[0.2, -0.2]",,,,,,,,,,,,,,,,0,55,55,55,,,,,,,,,,,,,,,,,,,,,a,1,0.5027526000048965,,,,,,,,,,,,shj,m,21,2024_Apr_14_1723,mian,2021.2.3,59.940574908136234,
7e,1,1,e,l,"[0.2, 0.2]",,,,,,,,,,,,,,,,0,56,56,56,,,,,,,,,,,,,,,,,,,,,l,1,1.3255725000053644,,,,,,,,,,,,shj,m,21,2024_Apr_14_1723,mian,2021.2.3,59.940574908136234,
F9,1,2,F,a,"[-0.2, 0.2]",,,,,,,,,,,,,,,,0,57,57,57,,,,,,,,,,,,,,,,,,,,,a,1,0.35670639999443665,,,,,,,,,,,,shj,m,21,2024_Apr_14_1723,mian,2021.2.3,59.940574908136234,
e2,2,1,2.0,l,"[-0.2, -0.2]",,,,,,,,,,,,,,,,0,58,58,58,,,,,,,,,,,,,,,,,,,,,l,1,0.8717084999952931,,,,,,,,,,,,shj,m,21,2024_Apr_14_1723,mian,2021.2.3,59.940574908136234,
5F,2,2,5.0,a,"[0.2, -0.2]",,,,,,,,,,,,,,,,0,59,59,59,,,,,,,,,,,,,,,,,,,,,a,1,0.7017848000105005,,,,,,,,,,,,shj,m,21,2024_Apr_14_1723,mian,2021.2.3,59.940574908136234,
f6,1,1,f,l,"[0.2, 0.2]",,,,,,,,,,,,,,,,0,60,60,60,,,,,,,,,,,,,,,,,,,,,l,1,1.0132061000040267,,,,,,,,,,,,shj,m,21,2024_Apr_14_1723,mian,2021.2.3,59.940574908136234,
7G,1,2,G,a,"[-0.2, 0.2]",,,,,,,,,,,,,,,,0,61,61,61,,,,,,,,,,,,,,,,,,,,,a,1,0.6352617000229657,,,,,,,,,,,,shj,m,21,2024_Apr_14_1723,mian,2021.2.3,59.940574908136234,
e6,2,1,6.0,l,"[-0.2, -0.2]",,,,,,,,,,,,,,,,0,62,62,62,,,,,,,,,,,,,,,,,,,,,l,1,0.9840153999975882,,,,,,,,,,,,shj,m,21,2024_Apr_14_1723,mian,2021.2.3,59.940574908136234,
3G,2,2,3.0,a,"[0.2, -0.2]",,,,,,,,,,,,,,,,0,63,63,63,,,,,,,,,,,,,,,,,,,,,a,1,0.43291910001426004,,,,,,,,,,,,shj,m,21,2024_Apr_14_1723,mian,2021.2.3,59.940574908136234,
5E,1,1,E,a,"[0.2, 0.2]",,,,,,,,,,,,,,,,0,64,64,64,,,,,,,,,,,,,,,,,,,,,l,0,0.5383476999995764,,,,,,,,,,,,shj,m,21,2024_Apr_14_1723,mian,2021.2.3,59.940574908136234,
A6,1,2,A,a,"[-0.2, 0.2]",,,,,,,,,,,,,,,,0,65,65,65,,,,,,,,,,,,,,,,,,,,,a,1,0.9009591999929398,,,,,,,,,,,,shj,m,21,2024_Apr_14_1723,mian,2021.2.3,59.940574908136234,
E3,2,1,3.0,a,"[-0.2, -0.2]",,,,,,,,,,,,,,,,0,66,66,66,,,,,,,,,,,,,,,,,,,,,a,1,1.9784160999988671,,,,,,,,,,,,shj,m,21,2024_Apr_14_1723,mian,2021.2.3,59.940574908136234,
2f,2,2,2.0,l,"[0.2, -0.2]",,,,,,,,,,,,,,,,0,67,67,67,,,,,,,,,,,,,,,,,,,,,l,1,0.6271897999977227,,,,,,,,,,,,shj,m,21,2024_Apr_14_1723,mian,2021.2.3,59.940574908136234,
g3,1,1,g,l,"[0.2, 0.2]",,,,,,,,,,,,,,,,0,68,68,68,,,,,,,,,,,,,,,,,,,,,l,1,0.7627372999850195,,,,,,,,,,,,shj,m,21,2024_Apr_14_1723,mian,2021.2.3,59.940574908136234,
E8,1,2,E,a,"[-0.2, 0.2]",,,,,,,,,,,,,,,,0,69,69,69,,,,,,,,,,,,,,,,,,,,,a,1,0.45697880000807345,,,,,,,,,,,,shj,m,21,2024_Apr_14_1723,mian,2021.2.3,59.940574908136234,
6g,2,1,6.0,l,"[-0.2, -0.2]",,,,,,,,,,,,,,,,0,70,70,70,,,,,,,,,,,,,,,,,,,,,a,0,3.2361193999822717,,,,,,,,,,,,shj,m,21,2024_Apr_14_1723,mian,2021.2.3,59.940574908136234,
5H,2,2,5.0,a,"[0.2, -0.2]",,,,,,,,,,,,,,,,0,71,71,71,,,,,,,,,,,,,,,,,,,,,a,1,0.9491875999956392,,,,,,,,,,,,shj,m,21,2024_Apr_14_1723,mian,2021.2.3,59.940574908136234,
4A,1,1,A,a,"[0.2, 0.2]",,,,,,,,,,,,,,,,0,72,72,72,,,,,,,,,,,,,,,,,,,,,a,1,0.8885290000180248,,,,,,,,,,,,shj,m,21,2024_Apr_14_1723,mian,2021.2.3,59.940574908136234,
7F,1,2,F,a,"[-0.2, 0.2]",,,,,,,,,,,,,,,,0,73,73,73,,,,,,,,,,,,,,,,,,,,,a,1,0.7790090999915265,,,,,,,,,,,,shj,m,21,2024_Apr_14_1723,mian,2021.2.3,59.940574908136234,
6H,2,1,6.0,l,"[-0.2, -0.2]",,,,,,,,,,,,,,,,0,74,74,74,,,,,,,,,,,,,,,,,,,,,l,1,2.447834499995224,,,,,,,,,,,,shj,m,21,2024_Apr_14_1723,mian,2021.2.3,59.940574908136234,
3a,2,2,3.0,a,"[0.2, -0.2]",,,,,,,,,,,,,,,,0,75,75,75,,,,,,,,,,,,,,,,,,,,,a,1,1.848099299997557,,,,,,,,,,,,shj,m,21,2024_Apr_14_1723,mian,2021.2.3,59.940574908136234,
9F,1,1,F,a,"[0.2, 0.2]",,,,,,,,,,,,,,,,0,76,76,76,,,,,,,,,,,,,,,,,,,,,a,1,0.5469597000046633,,,,,,,,,,,,shj,m,21,2024_Apr_14_1723,mian,2021.2.3,59.940574908136234,
G7,1,2,G,a,"[-0.2, 0.2]",,,,,,,,,,,,,,,,0,77,77,77,,,,,,,,,,,,,,,,,,,,,a,1,1.6878826000029221,,,,,,,,,,,,shj,m,21,2024_Apr_14_1723,mian,2021.2.3,59.940574908136234,
a6,2,1,6.0,l,"[-0.2, -0.2]",,,,,,,,,,,,,,,,0,78,78,78,,,,,,,,,,,,,,,,,,,,,l,1,1.6592421000241302,,,,,,,,,,,,shj,m,21,2024_Apr_14_1723,mian,2021.2.3,59.940574908136234,
4h,2,2,4.0,l,"[0.2, -0.2]",,,,,,,,,,,,,,,,0,79,79,79,,,,,,,,,,,,,,,,,,,,,l,1,0.7493402999825776,,,,,,,,,,,,shj,m,21,2024_Apr_14_1723,mian,2021.2.3,59.940574908136234,
6A,1,1,A,a,"[0.2, 0.2]",,,,,,,,,,,,,,,,,,,,0,0,0,0,,,,,,,,,,,,,,,,,a,1,1.0365852999966592,,,,,,,,,,,,shj,m,21,2024_Apr_14_1723,mian,2021.2.3,59.940574908136234,
4H,1,2,H,a,"[-0.2, 0.2]",,,,,,,,,,,,,,,,,,,,0,1,1,1,,,,,,,,,,,,,,,,,a,1,0.9548059000226203,,,,,,,,,,,,shj,m,21,2024_Apr_14_1723,mian,2021.2.3,59.940574908136234,
3H,2,1,3.0,a,"[-0.2, -0.2]",,,,,,,,,,,,,,,,,,,,0,2,2,2,,,,,,,,,,,,,,,,,a,1,1.2983305999950971,,,,,,,,,,,,shj,m,21,2024_Apr_14_1723,mian,2021.2.3,59.940574908136234,
a9,2,2,9.0,a,"[0.2, -0.2]",,,,,,,,,,,,,,,,,,,,0,3,3,3,,,,,,,,,,,,,,,,,a,1,0.7588880999828689,,,,,,,,,,,,shj,m,21,2024_Apr_14_1723,mian,2021.2.3,59.940574908136234,
E7,1,1,E,a,"[0.2, 0.2]",,,,,,,,,,,,,,,,,,,,0,4,4,4,,,,,,,,,,,,,,,,,a,1,0.9892771000158973,,,,,,,,,,,,shj,m,21,2024_Apr_14_1723,mian,2021.2.3,59.940574908136234,
6h,1,2,h,l,"[-0.2, 0.2]",,,,,,,,,,,,,,,,,,,,0,5,5,5,,,,,,,,,,,,,,,,,l,1,1.1266640999820083,,,,,,,,,,,,shj,m,21,2024_Apr_14_1723,mian,2021.2.3,59.940574908136234,
8A,2,1,8.0,l,"[-0.2, -0.2]",,,,,,,,,,,,,,,,,,,,0,6,6,6,,,,,,,,,,,,,,,,,l,1,1.654320400004508,,,,,,,,,,,,shj,m,21,2024_Apr_14_1723,mian,2021.2.3,59.940574908136234,
f5,2,2,5.0,a,"[0.2, -0.2]",,,,,,,,,,,,,,,,,,,,0,7,7,7,,,,,,,,,,,,,,,,,a,1,0.6533871999999974,,,,,,,,,,,,shj,m,21,2024_Apr_14_1723,mian,2021.2.3,59.940574908136234,
2a,1,1,a,l,"[0.2, 0.2]",,,,,,,,,,,,,,,,,,,,0,8,8,8,,,,,,,,,,,,,,,,,l,1,0.7425947999872733,,,,,,,,,,,,shj,m,21,2024_Apr_14_1723,mian,2021.2.3,59.940574908136234,
F7,1,2,F,a,"[-0.2, 0.2]",,,,,,,,,,,,,,,,,,,,0,9,9,9,,,,,,,,,,,,,,,,,a,1,0.550305600016145,,,,,,,,,,,,shj,m,21,2024_Apr_14_1723,mian,2021.2.3,59.940574908136234,
h2,2,1,2.0,l,"[-0.2, -0.2]",,,,,,,,,,,,,,,,,,,,0,10,10,10,,,,,,,,,,,,,,,,,l,1,1.9991958999889903,,,,,,,,,,,,shj,m,21,2024_Apr_14_1723,mian,2021.2.3,59.940574908136234,
F5,2,2,5.0,a,"[0.2, -0.2]",,,,,,,,,,,,,,,,,,,,0,11,11,11,,,,,,,,,,,,,,,,,a,1,0.4974930000025779,,,,,,,,,,,,shj,m,21,2024_Apr_14_1723,mian,2021.2.3,59.940574908136234,
A9,1,1,A,a,"[0.2, 0.2]",,,,,,,,,,,,,,,,,,,,0,12,12,12,,,,,,,,,,,,,,,,,a,1,0.6975443999981508,,,,,,,,,,,,shj,m,21,2024_Apr_14_1723,mian,2021.2.3,59.940574908136234,
3e,1,2,e,l,"[-0.2, 0.2]",,,,,,,,,,,,,,,,,,,,0,13,13,13,,,,,,,,,,,,,,,,,l,1,0.5315124999906402,,,,,,,,,,,,shj,m,21,2024_Apr_14_1723,mian,2021.2.3,59.940574908136234,
f8,2,1,8.0,l,"[-0.2, -0.2]",,,,,,,,,,,,,,,,,,,,0,14,14,14,,,,,,,,,,,,,,,,,l,1,1.27623560000211,,,,,,,,,,,,shj,m,21,2024_Apr_14_1723,mian,2021.2.3,59.940574908136234,
G2,2,2,2.0,l,"[0.2, -0.2]",,,,,,,,,,,,,,,,,,,,0,15,15,15,,,,,,,,,,,,,,,,,l,1,0.6458890000067186,,,,,,,,,,,,shj,m,21,2024_Apr_14_1723,mian,2021.2.3,59.940574908136234,
F2,1,1,F,a,"[0.2, 0.2]",,,,,,,,,,,,,,,,,,,,0,16,16,16,,,,,,,,,,,,,,,,,a,1,1.0802928999764845,,,,,,,,,,,,shj,m,21,2024_Apr_14_1723,mian,2021.2.3,59.940574908136234,
5e,1,2,e,l,"[-0.2, 0.2]",,,,,,,,,,,,,,,,,,,,0,17,17,17,,,,,,,,,,,,,,,,,l,1,0.6293804999731947,,,,,,,,,,,,shj,m,21,2024_Apr_14_1723,mian,2021.2.3,59.940574908136234,
A3,2,1,3.0,a,"[-0.2, -0.2]",,,,,,,,,,,,,,,,,,,,0,18,18,18,,,,,,,,,,,,,,,,,a,1,1.085115699999733,,,,,,,,,,,,shj,m,21,2024_Apr_14_1723,mian,2021.2.3,59.940574908136234,
4g,2,2,4.0,l,"[0.2, -0.2]",,,,,,,,,,,,,,,,,,,,0,19,19,19,,,,,,,,,,,,,,,,,l,1,0.5992201000044588,,,,,,,,,,,,shj,m,21,2024_Apr_14_1723,mian,2021.2.3,59.940574908136234,
h7,1,1,h,l,"[0.2, 0.2]",,,,,,,,,,,,,,,,,,,,0,20,20,20,,,,,,,,,,,,,,,,,l,1,1.3549473999883048,,,,,,,,,,,,shj,m,21,2024_Apr_14_1723,mian,2021.2.3,59.940574908136234,
3g,1,2,g,l,"[-0.2, 0.2]",,,,,,,,,,,,,,,,,,,,0,21,21,21,,,,,,,,,,,,,,,,,l,1,0.6086971000186168,,,,,,,,,,,,shj,m,21,2024_Apr_14_1723,mian,2021.2.3,59.940574908136234,
8a,2,1,8.0,l,"[-0.2, -0.2]",,,,,,,,,,,,,,,,,,,,0,22,22,22,,,,,,,,,,,,,,,,,l,1,1.2794617999752518,,,,,,,,,,,,shj,m,21,2024_Apr_14_1723,mian,2021.2.3,59.940574908136234,
4E,2,2,4.0,l,"[0.2, -0.2]",,,,,,,,,,,,,,,,,,,,0,23,23,23,,,,,,,,,,,,,,,,,l,1,0.8072747000260279,,,,,,,,,,,,shj,m,21,2024_Apr_14_1723,mian,2021.2.3,59.940574908136234,
E5,1,1,E,a,"[0.2, 0.2]",,,,,,,,,,,,,,,,,,,,0,24,24,24,,,,,,,,,,,,,,,,,a,1,0.9261573000112548,,,,,,,,,,,,shj,m,21,2024_Apr_14_1723,mian,2021.2.3,59.940574908136234,
g6,1,2,g,l,"[-0.2, 0.2]",,,,,,,,,,,,,,,,,,,,0,25,25,25,,,,,,,,,,,,,,,,,l,1,0.6045686999859754,,,,,,,,,,,,shj,m,21,2024_Apr_14_1723,mian,2021.2.3,59.940574908136234,
2e,2,1,2.0,l,"[-0.2, -0.2]",,,,,,,,,,,,,,,,,,,,0,26,26,26,,,,,,,,,,,,,,,,,l,1,0.834453699993901,,,,,,,,,,,,shj,m,21,2024_Apr_14_1723,mian,2021.2.3,59.940574908136234,
h8,2,2,8.0,l,"[0.2, -0.2]",,,,,,,,,,,,,,,,,,,,0,27,27,27,,,,,,,,,,,,,,,,,l,1,0.7204932000022382,,,,,,,,,,,,shj,m,21,2024_Apr_14_1723,mian,2021.2.3,59.940574908136234,
G6,1,1,G,a,"[0.2, 0.2]",,,,,,,,,,,,,,,,,,,,0,28,28,28,,,,,,,,,,,,,,,,,a,1,0.7427919000037946,,,,,,,,,,,,shj,m,21,2024_Apr_14_1723,mian,2021.2.3,59.940574908136234,
a4,1,2,a,l,"[-0.2, 0.2]",,,,,,,,,,,,,,,,,,,,0,29,29,29,,,,,,,,,,,,,,,,,l,1,1.316179799992824,,,,,,,,,,,,shj,m,21,2024_Apr_14_1723,mian,2021.2.3,59.940574908136234,
9H,2,1,9.0,a,"[-0.2, -0.2]",,,,,,,,,,,,,,,,,,,,0,30,30,30,,,,,,,,,,,,,,,,,a,1,1.18901729999925,,,,,,,,,,,,shj,m,21,2024_Apr_14_1723,mian,2021.2.3,59.940574908136234,
7H,2,2,7.0,a,"[0.2, -0.2]",,,,,,,,,,,,,,,,,,,,0,31,31,31,,,,,,,,,,,,,,,,,a,1,0.5657846000103746,,,,,,,,,,,,shj,m,21,2024_Apr_14_1723,mian,2021.2.3,59.940574908136234,
9f,1,1,f,l,"[0.2, 0.2]",,,,,,,,,,,,,,,,,,,,0,32,32,32,,,,,,,,,,,,,,,,,l,1,1.1517266999871936,,,,,,,,,,,,shj,m,21,2024_Apr_14_1723,mian,2021.2.3,59.940574908136234,
8E,1,2,E,a,"[-0.2, 0.2]",,,,,,,,,,,,,,,,,,,,0,33,33,33,,,,,,,,,,,,,,,,,a,1,2.234338200010825,,,,,,,,,,,,shj,m,21,2024_Apr_14_1723,mian,2021.2.3,59.940574908136234,
A2,2,1,2.0,l,"[-0.2, -0.2]",,,,,,,,,,,,,,,,,,,,0,34,34,34,,,,,,,,,,,,,,,,,l,1,1.2077455000253394,,,,,,,,,,,,shj,m,21,2024_Apr_14_1723,mian,2021.2.3,59.940574908136234,
H7,2,2,7.0,a,"[0.2, -0.2]",,,,,,,,,,,,,,,,,,,,0,35,35,35,,,,,,,,,,,,,,,,,a,1,0.5161920000100508,,,,,,,,,,,,shj,m,21,2024_Apr_14_1723,mian,2021.2.3,59.940574908136234,
h9,1,1,h,l,"[0.2, 0.2]",,,,,,,,,,,,,,,,,,,,0,36,36,36,,,,,,,,,,,,,,,,,l,1,0.6150386999943294,,,,,,,,,,,,shj,m,21,2024_Apr_14_1723,mian,2021.2.3,59.940574908136234,
8G,1,2,G,a,"[-0.2, 0.2]",,,,,,,,,,,,,,,,,,,,0,37,37,37,,,,,,,,,,,,,,,,,a,1,0.5968846000032499,,,,,,,,,,,,shj,m,21,2024_Apr_14_1723,mian,2021.2.3,59.940574908136234,
H4,2,1,4.0,l,"[-0.2, -0.2]",,,,,,,,,,,,,,,,,,,,0,38,38,38,,,,,,,,,,,,,,,,,l,1,1.149252000002889,,,,,,,,,,,,shj,m,21,2024_Apr_14_1723,mian,2021.2.3,59.940574908136234,
A8,2,2,8.0,l,"[0.2, -0.2]",,,,,,,,,,,,,,,,,,,,0,39,39,39,,,,,,,,,,,,,,,,,l,1,0.5068555999896489,,,,,,,,,,,,shj,m,21,2024_Apr_14_1723,mian,2021.2.3,59.940574908136234,
g7,1,1,g,l,"[0.2, 0.2]",,,,,,,,,,,,,,,,,,,,0,40,40,40,,,,,,,,,,,,,,,,,l,1,0.8846754000114743,,,,,,,,,,,,shj,m,21,2024_Apr_14_1723,mian,2021.2.3,59.940574908136234,
H9,1,2,H,a,"[-0.2, 0.2]",,,,,,,,,,,,,,,,,,,,0,41,41,41,,,,,,,,,,,,,,,,,a,1,0.7153086000180338,,,,,,,,,,,,shj,m,21,2024_Apr_14_1723,mian,2021.2.3,59.940574908136234,
9E,2,1,9.0,a,"[-0.2, -0.2]",,,,,,,,,,,,,,,,,,,,0,42,42,42,,,,,,,,,,,,,,,,,a,1,0.9737242000119295,,,,,,,,,,,,shj,m,21,2024_Apr_14_1723,mian,2021.2.3,59.940574908136234,
a5,2,2,5.0,a,"[0.2, -0.2]",,,,,,,,,,,,,,,,,,,,0,43,43,43,,,,,,,,,,,,,,,,,a,1,0.9917350000177976,,,,,,,,,,,,shj,m,21,2024_Apr_14_1723,mian,2021.2.3,59.940574908136234,
3E,1,1,E,a,"[0.2, 0.2]",,,,,,,,,,,,,,,,,,,,0,44,44,44,,,,,,,,,,,,,,,,,a,1,0.9227820999803953,,,,,,,,,,,,shj,m,21,2024_Apr_14_1723,mian,2021.2.3,59.940574908136234,
6f,1,2,f,l,"[-0.2, 0.2]",,,,,,,,,,,,,,,,,,,,0,45,45,45,,,,,,,,,,,,,,,,,l,1,0.5898336000100244,,,,,,,,,,,,shj,m,21,2024_Apr_14_1723,mian,2021.2.3,59.940574908136234,
g8,2,1,8.0,l,"[-0.2, -0.2]",,,,,,,,,,,,,,,,,,,,0,46,46,46,,,,,,,,,,,,,,,,,l,1,0.828559799992945,,,,,,,,,,,,shj,m,21,2024_Apr_14_1723,mian,2021.2.3,59.940574908136234,
4F,2,2,4.0,l,"[0.2, -0.2]",,,,,,,,,,,,,,,,,,,,0,47,47,47,,,,,,,,,,,,,,,,,l,1,0.7656063999747857,,,,,,,,,,,,shj,m,21,2024_Apr_14_1723,mian,2021.2.3,59.940574908136234,
4a,1,1,a,l,"[0.2, 0.2]",,,,,,,,,,,,,,,,,,,,0,48,48,48,,,,,,,,,,,,,,,,,l,1,0.7446339000016451,,,,,,,,,,,,shj,m,21,2024_Apr_14_1723,mian,2021.2.3,59.940574908136234,
e3,1,2,e,l,"[-0.2, 0.2]",,,,,,,,,,,,,,,,,,,,0,49,49,49,,,,,,,,,,,,,,,,,l,1,1.8249610000057146,,,,,,,,,,,,shj,m,21,2024_Apr_14_1723,mian,2021.2.3,59.940574908136234,
5g,2,1,5.0,a,"[-0.2, -0.2]",,,,,,,,,,,,,,,,,,,,0,50,50,50,,,,,,,,,,,,,,,,,a,1,0.9084850999934133,,,,,,,,,,,,shj,m,21,2024_Apr_14_1723,mian,2021.2.3,59.940574908136234,
f4,2,2,4.0,l,"[0.2, -0.2]",,,,,,,,,,,,,,,,,,,,0,51,51,51,,,,,,,,,,,,,,,,,l,1,0.6429643000010401,,,,,,,,,,,,shj,m,21,2024_Apr_14_1723,mian,2021.2.3,59.940574908136234,
6E,1,1,E,a,"[0.2, 0.2]",,,,,,,,,,,,,,,,,,,,0,52,52,52,,,,,,,,,,,,,,,,,a,1,0.699978699994972,,,,,,,,,,,,shj,m,21,2024_Apr_14_1723,mian,2021.2.3,59.940574908136234,
7A,1,2,A,a,"[-0.2, 0.2]",,,,,,,,,,,,,,,,,,,,0,53,53,53,,,,,,,,,,,,,,,,,a,1,0.4916920000105165,,,,,,,,,,,,shj,m,21,2024_Apr_14_1723,mian,2021.2.3,59.940574908136234,
F4,2,1,4.0,l,"[-0.2, -0.2]",,,,,,,,,,,,,,,,,,,,0,54,54,54,,,,,,,,,,,,,,,,,l,1,0.8615564999927301,,,,,,,,,,,,shj,m,21,2024_Apr_14_1723,mian,2021.2.3,59.940574908136234,
2g,2,2,2.0,l,"[0.2, -0.2]",,,,,,,,,,,,,,,,,,,,0,55,55,55,,,,,,,,,,,,,,,,,l,1,0.5075845000101253,,,,,,,,,,,,shj,m,21,2024_Apr_14_1723,mian,2021.2.3,59.940574908136234,
7E,1,1,E,a,"[0.2, 0.2]",,,,,,,,,,,,,,,,,,,,0,56,56,56,,,,,,,,,,,,,,,,,a,1,1.6441794999991544,,,,,,,,,,,,shj,m,21,2024_Apr_14_1723,mian,2021.2.3,59.940574908136234,
G4,1,2,G,a,"[-0.2, 0.2]",,,,,,,,,,,,,,,,,,,,0,57,57,57,,,,,,,,,,,,,,,,,a,1,0.5480559999996331,,,,,,,,,,,,shj,m,21,2024_Apr_14_1723,mian,2021.2.3,59.940574908136234,
2F,2,1,2.0,l,"[-0.2, -0.2]",,,,,,,,,,,,,,,,,,,,0,58,58,58,,,,,,,,,,,,,,,,,l,1,1.3118160000012722,,,,,,,,,,,,shj,m,21,2024_Apr_14_1723,mian,2021.2.3,59.940574908136234,
E9,2,2,9.0,a,"[0.2, -0.2]",,,,,,,,,,,,,,,,,,,,0,59,59,59,,,,,,,,,,,,,,,,,a,1,0.9197295999911148,,,,,,,,,,,,shj,m,21,2024_Apr_14_1723,mian,2021.2.3,59.940574908136234,
5f,1,1,f,l,"[0.2, 0.2]",,,,,,,,,,,,,,,,,,,,0,60,60,60,,,,,,,,,,,,,,,,,l,1,0.6892980000120588,,,,,,,,,,,,shj,m,21,2024_Apr_14_1723,mian,2021.2.3,59.940574908136234,
e7,1,2,e,l,"[-0.2, 0.2]",,,,,,,,,,,,,,,,,,,,0,61,61,61,,,,,,,,,,,,,,,,,l,1,1.0457447999797296,,,,,,,,,,,,shj,m,21,2024_Apr_14_1723,mian,2021.2.3,59.940574908136234,
f2,2,1,2.0,l,"[-0.2, -0.2]",,,,,,,,,,,,,,,,,,,,0,62,62,62,,,,,,,,,,,,,,,,,l,1,0.7256500000075903,,,,,,,,,,,,shj,m,21,2024_Apr_14_1723,mian,2021.2.3,59.940574908136234,
G9,2,2,9.0,a,"[0.2, -0.2]",,,,,,,,,,,,,,,,,,,,0,63,63,63,,,,,,,,,,,,,,,,,a,1,2.033456599980127,,,,,,,,,,,,shj,m,21,2024_Apr_14_1723,mian,2021.2.3,59.940574908136234,
7g,1,1,g,l,"[0.2, 0.2]",,,,,,,,,,,,,,,,,,,,0,64,64,64,,,,,,,,,,,,,,,,,l,1,0.8372747999965213,,,,,,,,,,,,shj,m,21,2024_Apr_14_1723,mian,2021.2.3,59.940574908136234,
F8,1,2,F,a,"[-0.2, 0.2]",,,,,,,,,,,,,,,,,,,,0,65,65,65,,,,,,,,,,,,,,,,,a,1,0.6058395000000019,,,,,,,,,,,,shj,m,21,2024_Apr_14_1723,mian,2021.2.3,59.940574908136234,
A7,2,1,7.0,a,"[-0.2, -0.2]",,,,,,,,,,,,,,,,,,,,0,66,66,66,,,,,,,,,,,,,,,,,a,1,1.0372130000032485,,,,,,,,,,,,shj,m,21,2024_Apr_14_1723,mian,2021.2.3,59.940574908136234,
4G,2,2,4.0,l,"[0.2, -0.2]",,,,,,,,,,,,,,,,,,,,0,67,67,67,,,,,,,,,,,,,,,,,l,1,0.7237076000019442,,,,,,,,,,,,shj,m,21,2024_Apr_14_1723,mian,2021.2.3,59.940574908136234,
g2,1,1,g,l,"[0.2, 0.2]",,,,,,,,,,,,,,,,,,,,0,68,68,68,,,,,,,,,,,,,,,,,l,1,0.8176688000094146,,,,,,,,,,,,shj,m,21,2024_Apr_14_1723,mian,2021.2.3,59.940574908136234,
g4,1,2,g,l,"[-0.2, 0.2]",,,,,,,,,,,,,,,,,,,,0,69,69,69,,,,,,,,,,,,,,,,,l,1,0.456735200015828,,,,,,,,,,,,shj,m,21,2024_Apr_14_1723,mian,2021.2.3,59.940574908136234,
7a,2,1,7.0,a,"[-0.2, -0.2]",,,,,,,,,,,,,,,,,,,,0,70,70,70,,,,,,,,,,,,,,,,,a,1,1.2912184000015259,,,,,,,,,,,,shj,m,21,2024_Apr_14_1723,mian,2021.2.3,59.940574908136234,
8e,2,2,8.0,l,"[0.2, -0.2]",,,,,,,,,,,,,,,,,,,,0,71,71,71,,,,,,,,,,,,,,,,,l,1,0.9058696000138298,,,,,,,,,,,,shj,m,21,2024_Apr_14_1723,mian,2021.2.3,59.940574908136234,
h4,1,1,h,l,"[0.2, 0.2]",,,,,,,,,,,,,,,,,,,,0,72,72,72,,,,,,,,,,,,,,,,,l,1,1.5263533999968786,,,,,,,,,,,,shj,m,21,2024_Apr_14_1723,mian,2021.2.3,59.940574908136234,
G8,1,2,G,a,"[-0.2, 0.2]",,,,,,,,,,,,,,,,,,,,0,73,73,73,,,,,,,,,,,,,,,,,a,1,0.705652700009523,,,,,,,,,,,,shj,m,21,2024_Apr_14_1723,mian,2021.2.3,59.940574908136234,
6F,2,1,6.0,l,"[-0.2, -0.2]",,,,,,,,,,,,,,,,,,,,0,74,74,74,,,,,,,,,,,,,,,,,l,1,0.69328000000678,,,,,,,,,,,,shj,m,21,2024_Apr_14_1723,mian,2021.2.3,59.940574908136234,
g5,2,2,5.0,a,"[0.2, -0.2]",,,,,,,,,,,,,,,,,,,,0,75,75,75,,,,,,,,,,,,,,,,,a,1,1.5642430999723729,,,,,,,,,,,,shj,m,21,2024_Apr_14_1723,mian,2021.2.3,59.940574908136234,
G5,1,1,G,a,"[0.2, 0.2]",,,,,,,,,,,,,,,,,,,,0,76,76,76,,,,,,,,,,,,,,,,,l,0,0.43479450000450015,,,,,,,,,,,,shj,m,21,2024_Apr_14_1723,mian,2021.2.3,59.940574908136234,
h5,1,2,h,l,"[-0.2, 0.2]",,,,,,,,,,,,,,,,,,,,0,77,77,77,,,,,,,,,,,,,,,,,l,1,1.9225769999902695,,,,,,,,,,,,shj,m,21,2024_Apr_14_1723,mian,2021.2.3,59.940574908136234,
9G,2,1,9.0,a,"[-0.2, -0.2]",,,,,,,,,,,,,,,,,,,,0,78,78,78,,,,,,,,,,,,,,,,,a,1,1.9001207999826875,,,,,,,,,,,,shj,m,21,2024_Apr_14_1723,mian,2021.2.3,59.940574908136234,
F3,2,2,3.0,a,"[0.2, -0.2]",,,,,,,,,,,,,,,,,,,,0,79,79,79,,,,,,,,,,,,,,,,,a,1,0.8327820000122301,,,,,,,,,,,,shj,m,21,2024_Apr_14_1723,mian,2021.2.3,59.940574908136234,
,,,,,,0,1,pic/flanker6.png,pic/flanker2.png,a,k,,,,,,,,,,,,,,,,,,0,0,0,0,0,0,0,2,,,,,,,,,,,,399.8324206999969,None,398.6391617000045,399.8486595999857,a,1,0.49713959998916835,舒畅,None,0,,shj,m,21,2024_Apr_14_1723,mian,2021.2.3,59.940574908136234,
,,,,,,1,0,pic/flanker5.png,pic/flanker3.png,a,l,,,,,,,,,,,,,,,,,,0,0,0,0,0,1,1,7,,,,,,,,,,,,404.75134970000363,None,403.56738100000075,404.7680335000041,None,0,,伤心,l,1,0.9900099000078626,shj,m,21,2024_Apr_14_1723,mian,2021.2.3,59.940574908136234,
,,,,,,1,1,pic/flanker5.png,pic/flanker3.png,a,k,,,,,,,,,,,,,,,,,,0,0,0,0,0,2,2,4,,,,,,,,,,,,409.15352160000475,None,407.9695677999989,409.16930799998227,s,0,0.6454474999918602,旺盛,k,1,1.3885858000139706,shj,m,21,2024_Apr_14_1723,mian,2021.2.3,59.940574908136234,
,,,,,,0,1,pic/flanker5.png,pic/flanker1.png,s,k,,,,,,,,,,,,,,,,,,0,0,0,0,0,3,3,0,,,,,,,,,,,,413.22209389999625,None,412.03785540000536,413.23927049999475,s,1,0.3507874999777414,富足,k,1,0.6151226999936625,shj,m,21,2024_Apr_14_1723,mian,2021.2.3,59.940574908136234,
,,,,,,0,0,pic/flanker5.png,pic/flanker1.png,s,l,,,,,,,,,,,,,,,,,,0,0,0,0,0,4,4,3,,,,,,,,,,,,416.0240116000059,None,414.83986219999497,416.04090009999345,s,1,0.242952200002037,浪费,l,1,0.5660816000017803,shj,m,21,2024_Apr_14_1723,mian,2021.2.3,59.940574908136234,
,,,,,,0,0,pic/flanker6.png,pic/flanker2.png,a,l,,,,,,,,,,,,,,,,,,0,0,0,0,0,5,5,1,,,,,,,,,,,,418.77504979999503,None,417.5914278999844,418.7922625000065,a,1,0.41225870000198483,烦恼,l,1,0.5925456000259146,shj,m,21,2024_Apr_14_1723,mian,2021.2.3,59.940574908136234,
,,,,,,1,1,pic/flanker6.png,pic/flanker4.png,s,k,,,,,,,,,,,,,,,,,,0,0,0,0,0,6,6,6,,,,,,,,,,,,421.726393799996,None,420.54271899999003,421.7434013999882,a,0,0.6089924999978393,羡慕,k,1,0.8257930999970995,shj,m,21,2024_Apr_14_1723,mian,2021.2.3,59.940574908136234,
,,,,,,1,0,pic/flanker6.png,pic/flanker4.png,s,l,,,,,,,,,,,,,,,,,,0,0,0,0,0,7,7,5,,,,,,,,,,,,425.0283775999851,None,423.84395809998387,425.04471709998325,a,0,0.6335691999993287,落后,l,1,1.7014296000124887,shj,m,21,2024_Apr_14_1723,mian,2021.2.3,59.940574908136234,
,,,,,,,,,,,,,,,,,,,,,,,,,,,,,0,0,0,0,,,,,,,,,,,,,,,,,,,,,,,,,,,shj,m,21,2024_Apr_14_1723,mian,2021.2.3,59.940574908136234,
,,,,,,1,0,pic/flanker5.png,pic/flanker3.png,a,l,,,,,,,,,,,,,,,,,,1,0,1,0,0,0,0,7,,,,,,,,,,,,455.92741989999195,None,454.7273707999848,455.92741989999195,a,1,1.083309100009501,杂乱,l,1,1.167189600004349,shj,m,21,2024_Apr_14_1723,mian,2021.2.3,59.940574908136234,
,,,,,,0,1,pic/flanker6.png,pic/flanker2.png,a,k,,,,,,,,,,,,,,,,,,1,0,1,0,0,1,1,2,,,,,,,,,,,,460.1460347000102,None,458.9623699999938,460.16230329999235,a,1,0.59590990000288,顽强,k,1,1.1675522000005003,shj,m,21,2024_Apr_14_1723,mian,2021.2.3,59.940574908136234,
,,,,,,0,1,pic/flanker5.png,pic/flanker1.png,s,k,,,,,,,,,,,,,,,,,,1,0,1,0,0,2,2,0,,,,,,,,,,,,463.8976421999978,None,462.71400300000096,463.9141480999824,s,1,0.6465853999834508,奉献,k,1,0.8045817000092939,shj,m,21,2024_Apr_14_1723,mian,2021.2.3,59.940574908136234,
,,,,,,0,0,pic/flanker6.png,pic/flanker2.png,a,l,,,,,,,,,,,,,,,,,,1,0,1,0,0,3,3,1,,,,,,,,,,,,467.19897930001025,None,466.01540060000843,467.21641719999025,a,1,0.4301987999933772,悲观,l,1,0.8688041999994311,shj,m,21,2024_Apr_14_1723,mian,2021.2.3,59.940574908136234,
,,,,,,1,1,pic/flanker6.png,pic/flanker4.png,s,k,,,,,,,,,,,,,,,,,,1,0,1,0,0,4,4,6,,,,,,,,,,,,470.33416739999666,None,469.15065960001084,470.35086169998976,s,1,0.6505191999895032,前进,k,1,0.6674727000063285,shj,m,21,2024_Apr_14_1723,mian,2021.2.3,59.940574908136234,
,,,,,,1,0,pic/flanker6.png,pic/flanker4.png,s,l,,,,,,,,,,,,,,,,,,1,0,1,0,0,5,5,5,,,,,,,,,,,,473.6528563000029,None,472.4687026999891,473.6690877999936,s,1,0.6446488000219688,郁闷,l,1,0.581501999986358,shj,m,21,2024_Apr_14_1723,mian,2021.2.3,59.940574908136234,
,,,,,,1,1,pic/flanker5.png,pic/flanker3.png,a,k,,,,,,,,,,,,,,,,,,1,0,1,0,0,6,6,4,,,,,,,,,,,,476.87100359998294,None,475.6870086999843,476.88813129998744,a,1,0.4788950000074692,享受,k,1,1.098600900004385,shj,m,21,2024_Apr_14_1723,mian,2021.2.3,59.940574908136234,
,,,,,,0,0,pic/flanker5.png,pic/flanker1.png,s,l,,,,,,,,,,,,,,,,,,1,0,1,0,0,7,7,3,,,,,,,,,,,,480.4898364999972,None,479.30670029998873,480.5057858999935,s,1,0.4675608999968972,丢失,l,1,0.8874833999725524,shj,m,21,2024_Apr_14_1723,mian,2021.2.3,59.940574908136234,
,,,,,,,,,,,,,,,,,,,,,,,,,,,,,1,0,1,0,,,,,,,,,,,,,,,,,,,,,,,,,,,shj,m,21,2024_Apr_14_1723,mian,2021.2.3,59.940574908136234,
,,,,,,1,0,pic/flanker5.png,pic/flanker3.png,a,l,pic/AffRest1.png,,,,,,,,,,,,,,,,,,,,,,,,,0,0,0,0,0,0,0,71,,,,485.9419476999901,None,484.7597880999965,485.9756961000094,a,1,1.1233713999972679,忧虑,l,1,0.781295399996452,shj,m,21,2024_Apr_14_1723,mian,2021.2.3,59.940574908136234,
,,,,,,0,1,pic/flanker5.png,pic/flanker1.png,s,k,pic/AffRest1.png,,,,,,,,,,,,,,,,,,,,,,,,,0,0,0,0,0,1,1,32,,,,489.87766860000556,None,488.69367099998635,489.89465969998855,s,1,0.4605619999929331,生动,k,1,0.5925882000010461,shj,m,21,2024_Apr_14_1723,mian,2021.2.3,59.940574908136234,
,,,,,,0,1,pic/flanker5.png,pic/flanker1.png,s,k,pic/AffRest1.png,,,,,,,,,,,,,,,,,,,,,,,,,0,0,0,0,0,2,2,56,,,,492.8126961000089,None,491.6277393999917,492.82891839998774,s,1,0.47308550000889227,鲜艳,k,1,0.5502004000009038,shj,m,21,2024_Apr_14_1723,mian,2021.2.3,59.940574908136234,
,,,,,,0,0,pic/flanker5.png,pic/flanker1.png,s,l,pic/AffRest1.png,,,,,,,,,,,,,,,,,,,,,,,,,0,0,0,0,0,3,3,3,,,,495.68063069999334,None,494.4970432999835,495.69709659999353,s,1,0.38053019999642856,争吵,l,1,0.6623940000135917,shj,m,21,2024_Apr_14_1723,mian,2021.2.3,59.940574908136234,
,,,,,,1,1,pic/flanker6.png,pic/flanker4.png,s,k,pic/AffRest1.png,,,,,,,,,,,,,,,,,,,,,,,,,0,0,0,0,0,4,4,46,,,,498.6816817999934,None,497.49811059999047,498.6986142999958,s,1,0.6300009000115097,典雅,k,1,0.656522400007816,shj,m,21,2024_Apr_14_1723,mian,2021.2.3,59.940574908136234,
,,,,,,0,1,pic/flanker6.png,pic/flanker2.png,a,k,pic/AffRest1.png,,,,,,,,,,,,,,,,,,,,,,,,,0,0,0,0,0,5,5,18,,,,501.80057669998496,None,500.6164107999939,501.817935900006,a,1,0.5344590000167955,精致,k,1,0.4797083000012208,shj,m,21,2024_Apr_14_1723,mian,2021.2.3,59.940574908136234,
,,,,,,0,1,pic/flanker5.png,pic/flanker1.png,s,k,pic/AffRest1.png,,,,,,,,,,,,,,,,,,,,,,,,,0,0,0,0,0,6,6,48,,,,504.7522861000034,None,503.56827180000255,504.76848949998384,s,1,0.4753430999990087,奉献,k,1,0.5221501000050921,shj,m,21,2024_Apr_14_1723,mian,2021.2.3,59.940574908136234,
,,,,,,0,0,pic/flanker6.png,pic/flanker2.png,a,l,pic/AffRest1.png,,,,,,,,,,,,,,,,,,,,,,,,,0,0,0,0,0,7,7,25,,,,507.58638160000555,None,506.4024267999921,507.6042356999824,a,1,0.3324934999982361,撒谎,l,1,0.5461527000006754,shj,m,21,2024_Apr_14_1723,mian,2021.2.3,59.940574908136234,
,,,,,,0,1,pic/flanker5.png,pic/flanker1.png,s,k,pic/AffRest1.png,,,,,,,,,,,,,,,,,,,,,,,,,0,0,0,0,0,8,8,8,,,,510.4222127000103,None,509.2370000999945,510.438693300006,s,1,0.3631568999844603,瑰丽,k,1,0.4922833000018727,shj,m,21,2024_Apr_14_1723,mian,2021.2.3,59.940574908136234,
,,,,,,1,0,pic/flanker6.png,pic/flanker4.png,s,l,pic/AffRest1.png,,,,,,,,,,,,,,,,,,,,,,,,,0,0,0,0,0,9,9,69,,,,513.1900309000048,None,511.99450870000874,513.2062217000057,s,1,0.6105181000020821,嘲笑,l,1,0.7737231999926735,shj,m,21,2024_Apr_14_1723,mian,2021.2.3,59.940574908136234,
,,,,,,1,1,pic/flanker6.png,pic/flanker4.png,s,k,pic/AffRest1.png,,,,,,,,,,,,,,,,,,,,,,,,,0,0,0,0,0,10,10,62,,,,516.5910377999826,None,515.407283699984,516.6087331000017,s,1,0.5441362999845296,羡慕,k,1,0.5483774999738671,shj,m,21,2024_Apr_14_1723,mian,2021.2.3,59.940574908136234,
,,,,,,1,0,pic/flanker6.png,pic/flanker4.png,s,l,pic/AffRest1.png,,,,,,,,,,,,,,,,,,,,,,,,,0,0,0,0,0,11,11,13,,,,519.6097270000027,None,518.4251445999835,519.626890399988,s,1,0.4670927999832202,缺乏,l,1,0.628812899987679,shj,m,21,2024_Apr_14_1723,mian,2021.2.3,59.940574908136234,
,,,,,,0,0,pic/flanker5.png,pic/flanker1.png,s,l,pic/AffRest1.png,,,,,,,,,,,,,,,,,,,,,,,,,0,0,0,0,0,12,12,11,,,,522.7438118999999,None,521.5603716000041,522.7609516000084,s,1,0.3713644999952521,禁止,l,1,0.8651966000034008,shj,m,21,2024_Apr_14_1723,mian,2021.2.3,59.940574908136234,
,,,,,,0,1,pic/flanker6.png,pic/flanker2.png,a,k,pic/AffRest1.png,,,,,,,,,,,,,,,,,,,,,,,,,0,0,0,0,0,13,13,58,,,,525.9129193999979,None,524.728663499991,525.9293785000045,a,1,0.3940359999833163,永恒,k,1,0.7789524999971036,shj,m,21,2024_Apr_14_1723,mian,2021.2.3,59.940574908136234,
,,,,,,0,1,pic/flanker5.png,pic/flanker1.png,s,k,pic/AffRest1.png,,,,,,,,,,,,,,,,,,,,,,,,,0,0,0,0,0,14,14,72,,,,529.0647105000098,None,527.8808351999905,529.0808072999935,s,1,0.5182797999877948,圣洁,k,1,0.6840757000027224,shj,m,21,2024_Apr_14_1723,mian,2021.2.3,59.940574908136234,
,,,,,,1,0,pic/flanker5.png,pic/flanker3.png,a,l,pic/AffRest1.png,,,,,,,,,,,,,,,,,,,,,,,,,0,0,0,0,0,15,15,63,,,,532.3002969000081,None,531.1168089999992,532.3167033999925,a,1,0.7311358999868389,厌恶,l,1,0.5853301000024658,shj,m,21,2024_Apr_14_1723,mian,2021.2.3,59.940574908136234,
,,,,,,1,1,pic/flanker5.png,pic/flanker3.png,a,k,pic/AffRest1.png,,,,,,,,,,,,,,,,,,,,,,,,,0,0,0,0,0,16,16,36,,,,535.4514577999944,None,534.2672989999992,535.4676253999933,a,1,0.9390683000092395,诚恳,k,1,0.5592260000121314,shj,m,21,2024_Apr_14_1723,mian,2021.2.3,59.940574908136234,
,,,,,,1,0,pic/flanker5.png,pic/flanker3.png,a,l,pic/AffRest1.png,,,,,,,,,,,,,,,,,,,,,,,,,0,0,0,0,0,17,17,55,,,,538.9701503000106,None,537.7858385999862,538.9866662999848,a,1,0.45735909999348223,慌忙,l,1,0.5340304999845102,shj,m,21,2024_Apr_14_1723,mian,2021.2.3,59.940574908136234,
,,,,,,0,0,pic/flanker6.png,pic/flanker2.png,a,l,pic/AffRest1.png,,,,,,,,,,,,,,,,,,,,,,,,,0,0,0,0,0,18,18,9,,,,541.9882561999839,None,540.803087599983,542.004886699986,a,1,0.3840051000006497,穷苦,l,1,0.790016699989792,shj,m,21,2024_Apr_14_1723,mian,2021.2.3,59.940574908136234,
,,,,,,1,0,pic/flanker6.png,pic/flanker4.png,s,l,pic/AffRest1.png,,,,,,,,,,,,,,,,,,,,,,,,,0,0,0,0,0,19,19,37,,,,545.0395550999965,None,543.854754800006,545.056267100008,s,1,0.426647199987201,伤心,l,1,0.5201077999954578,shj,m,21,2024_Apr_14_1723,mian,2021.2.3,59.940574908136234,
,,,,,,0,0,pic/flanker5.png,pic/flanker1.png,s,l,pic/AffRest1.png,,,,,,,,,,,,,,,,,,,,,,,,,0,0,0,0,0,20,20,35,,,,547.9079384999932,None,546.7232031000021,547.9244209000026,s,1,0.3921936000115238,悲观,l,1,0.6797706999932416,shj,m,21,2024_Apr_14_1723,mian,2021.2.3,59.940574908136234,
,,,,,,0,1,pic/flanker6.png,pic/flanker2.png,a,k,pic/AffRest1.png,,,,,,,,,,,,,,,,,,,,,,,,,0,0,0,0,0,21,21,42,,,,550.7926734999928,None,549.6089499999944,550.8095069999981,a,1,0.34088400000473484,如愿,k,1,0.5100279999896884,shj,m,21,2024_Apr_14_1723,mian,2021.2.3,59.940574908136234,
,,,,,,1,0,pic/flanker6.png,pic/flanker4.png,s,l,pic/AffRest1.png,,,,,,,,,,,,,,,,,,,,,,,,,0,0,0,0,0,22,22,21,,,,553.5942669000069,None,552.4089496000088,553.6109242000093,s,1,0.5032133999920916,自卑,l,1,0.587279999977909,shj,m,21,2024_Apr_14_1723,mian,2021.2.3,59.940574908136234,
,,,,,,1,1,pic/flanker5.png,pic/flanker3.png,a,k,pic/AffRest1.png,,,,,,,,,,,,,,,,,,,,,,,,,0,0,0,0,0,23,23,28,,,,556.6115489999938,None,555.4278505000111,556.6285569999891,a,1,0.5758712000097148,吉祥,k,1,0.6197253999998793,shj,m,21,2024_Apr_14_1723,mian,2021.2.3,59.940574908136234,
,,,,,,1,0,pic/flanker5.png,pic/flanker3.png,a,l,pic/AffRest1.png,,,,,,,,,,,,,,,,,,,,,,,,,0,0,0,0,0,24,24,39,,,,559.7301249000011,None,558.5459393000056,559.7467100000067,a,1,0.7493706000095699,别扭,l,1,0.6079376999987289,shj,m,21,2024_Apr_14_1723,mian,2021.2.3,59.940574908136234,
,,,,,,0,0,pic/flanker6.png,pic/flanker2.png,a,l,pic/AffRest1.png,,,,,,,,,,,,,,,,,,,,,,,,,0,0,0,0,0,25,25,17,,,,563.0657091999892,None,561.8812602999969,563.0820980999852,a,1,0.40431419998640195,失意,l,1,0.7989564000163227,shj,m,21,2024_Apr_14_1723,mian,2021.2.3,59.940574908136234,
,,,,,,1,1,pic/flanker5.png,pic/flanker3.png,a,k,pic/AffRest1.png,,,,,,,,,,,,,,,,,,,,,,,,,0,0,0,0,0,26,26,12,,,,566.2004082000058,None,565.016386000003,566.2173142000102,a,1,0.754987100022845,廉洁,k,1,0.5035247000050731,shj,m,21,2024_Apr_14_1723,mian,2021.2.3,59.940574908136234,
,,,,,,1,1,pic/flanker5.png,pic/flanker3.png,a,k,pic/AffRest1.png,,,,,,,,,,,,,,,,,,,,,,,,,0,0,0,0,0,27,27,60,,,,569.3351381999964,None,568.1512612999941,569.3518815999851,a,1,0.4716234999941662,享受,k,1,0.3720331000222359,shj,m,21,2024_Apr_14_1723,mian,2021.2.3,59.940574908136234,
,,,,,,0,0,pic/flanker6.png,pic/flanker2.png,a,l,pic/AffRest1.png,,,,,,,,,,,,,,,,,,,,,,,,,0,0,0,0,0,28,28,49,,,,572.1028653999965,None,570.9189834999852,572.1201902999892,a,1,0.4400175000191666,怀疑,l,1,0.5886408999795094,shj,m,21,2024_Apr_14_1723,mian,2021.2.3,59.940574908136234,
,,,,,,0,0,pic/flanker5.png,pic/flanker1.png,s,l,pic/AffRest1.png,,,,,,,,,,,,,,,,,,,,,,,,,0,0,0,0,0,29,29,51,,,,575.0549395999988,None,573.8706816000049,575.0712952000031,s,1,0.5032536999788135,沮丧,l,1,0.6106885999906808,shj,m,21,2024_Apr_14_1723,mian,2021.2.3,59.940574908136234,
,,,,,,1,1,pic/flanker6.png,pic/flanker4.png,s,k,pic/AffRest1.png,,,,,,,,,,,,,,,,,,,,,,,,,0,0,0,0,0,30,30,38,,,,578.0067508000066,None,576.8213564000034,578.0233671999886,s,1,0.4343538999964949,舒畅,k,1,0.5858079000026919,shj,m,21,2024_Apr_14_1723,mian,2021.2.3,59.940574908136234,
,,,,,,0,1,pic/flanker6.png,pic/flanker2.png,a,k,pic/AffRest1.png,,,,,,,,,,,,,,,,,,,,,,,,,0,0,0,0,0,31,31,2,,,,581.007494599995,None,579.8240440000081,581.0240089999861,a,1,0.4476761000114493,珍藏,k,1,0.6324945999949705,shj,m,21,2024_Apr_14_1723,mian,2021.2.3,59.940574908136234,
,,,,,,0,1,pic/flanker6.png,pic/flanker2.png,a,k,pic/AffRest1.png,,,,,,,,,,,,,,,,,,,,,,,,,0,0,0,0,0,32,32,74,,,,584.1291607999883,None,582.9415338000108,584.1429557999945,a,1,0.37495130000752397,清秀,k,1,0.45364490000065416,shj,m,21,2024_Apr_14_1723,mian,2021.2.3,59.940574908136234,
,,,,,,1,0,pic/flanker5.png,pic/flanker3.png,a,l,pic/AffRest1.png,,,,,,,,,,,,,,,,,,,,,,,,,0,0,0,0,0,33,33,7,,,,586.8946284999838,None,585.709667099989,586.9107759000035,a,1,0.5433062000083737,杂乱,l,1,0.5761165999865625,shj,m,21,2024_Apr_14_1723,mian,2021.2.3,59.940574908136234,
,,,,,,1,0,pic/flanker5.png,pic/flanker3.png,a,l,pic/AffRest1.png,,,,,,,,,,,,,,,,,,,,,,,,,0,0,0,0,0,34,34,31,,,,589.9293074999878,None,588.7446693000093,589.9459250000073,a,1,0.7615216999838594,焦躁,l,1,0.6266512000001967,shj,m,21,2024_Apr_14_1723,mian,2021.2.3,59.940574908136234,
,,,,,,0,0,pic/flanker5.png,pic/flanker1.png,s,l,pic/AffRest1.png,,,,,,,,,,,,,,,,,,,,,,,,,0,0,0,0,0,35,35,27,,,,593.130565600004,None,591.9467435999832,593.147475100006,s,1,0.5353128999995533,罚款,l,1,0.7423531000094954,shj,m,21,2024_Apr_14_1723,mian,2021.2.3,59.940574908136234,
,,,,,,0,0,pic/flanker5.png,pic/flanker1.png,s,l,pic/AffRest1.png,,,,,,,,,,,,,,,,,,,,,,,,,0,0,0,0,0,36,36,59,,,,596.2824540000001,None,595.0980304999975,596.2991322999878,s,1,0.4939469000091776,心慌,l,1,0.7915385000233073,shj,m,21,2024_Apr_14_1723,mian,2021.2.3,59.940574908136234,
,,,,,,0,0,pic/flanker6.png,pic/flanker2.png,a,l,pic/AffRest1.png,,,,,,,,,,,,,,,,,,,,,,,,,0,0,0,0,0,37,37,73,,,,599.6007726000098,None,598.4166878999968,599.6182134999835,a,1,0.3514671000011731,排斥,l,1,0.6446745000139344,shj,m,21,2024_Apr_14_1723,mian,2021.2.3,59.940574908136234,
,,,,,,1,0,pic/flanker6.png,pic/flanker4.png,s,l,pic/AffRest1.png,,,,,,,,,,,,,,,,,,,,,,,,,0,0,0,0,0,38,38,45,,,,602.4344660000061,None,601.2508894999919,602.4511456000037,s,1,0.7290191000211053,消沉,l,1,0.584794199996395,shj,m,21,2024_Apr_14_1723,mian,2021.2.3,59.940574908136234,
,,,,,,0,1,pic/flanker5.png,pic/flanker1.png,s,k,pic/AffRest1.png,,,,,,,,,,,,,,,,,,,,,,,,,0,0,0,0,0,39,39,40,,,,605.7708681999939,None,604.5858351000061,605.7875782999909,s,1,0.4243457000120543,爽朗,k,1,0.6273835000174586,shj,m,21,2024_Apr_14_1723,mian,2021.2.3,59.940574908136234,
,,,,,,0,1,pic/flanker6.png,pic/flanker2.png,a,k,pic/AffRest1.png,,,,,,,,,,,,,,,,,,,,,,,,,0,0,0,0,0,40,40,10,,,,608.7925174999982,None,607.6041712999868,608.8055555000028,a,1,0.41096720000496134,畅销,k,1,0.5158503999991808,shj,m,21,2024_Apr_14_1723,mian,2021.2.3,59.940574908136234,
,,,,,,1,0,pic/flanker6.png,pic/flanker4.png,s,l,pic/AffRest1.png,,,,,,,,,,,,,,,,,,,,,,,,,0,0,0,0,0,41,41,5,,,,611.7565956999897,None,610.5727134000044,611.7738447999873,s,1,0.5812684000120498,堵塞,l,1,0.9804098000167869,shj,m,21,2024_Apr_14_1723,mian,2021.2.3,59.940574908136234,
,,,,,,0,0,pic/flanker6.png,pic/flanker2.png,a,l,pic/AffRest1.png,,,,,,,,,,,,,,,,,,,,,,,,,0,0,0,0,0,42,42,57,,,,615.2584621999995,None,614.074111199996,615.2757284000108,a,1,0.39019949999055825,损害,l,1,0.7978311000042595,shj,m,21,2024_Apr_14_1723,mian,2021.2.3,59.940574908136234,
,,,,,,1,1,pic/flanker5.png,pic/flanker3.png,a,k,pic/AffRest1.png,,,,,,,,,,,,,,,,,,,,,,,,,0,0,0,0,0,43,43,20,,,,618.3770918000082,None,617.1924026999914,618.3936734999879,a,1,0.5834891000122298,充裕,k,1,0.7054345000069588,shj,m,21,2024_Apr_14_1723,mian,2021.2.3,59.940574908136234,
,,,,,,1,0,pic/flanker5.png,pic/flanker3.png,a,l,pic/AffRest1.png,,,,,,,,,,,,,,,,,,,,,,,,,0,0,0,0,0,44,44,15,,,,621.6620728999842,None,620.4640417000046,621.6620728999842,a,1,0.7099823000025935,闷热,l,1,0.7125467000005301,shj,m,21,2024_Apr_14_1723,mian,2021.2.3,59.940574908136234,
,,,,,,1,0,pic/flanker5.png,pic/flanker3.png,a,l,pic/AffRest1.png,,,,,,,,,,,,,,,,,,,,,,,,,0,0,0,0,0,45,45,23,,,,625.0632489999989,None,623.8796145000088,625.080517800001,a,1,0.5004858000029344,烦恼,l,1,1.2095278000051621,shj,m,21,2024_Apr_14_1723,mian,2021.2.3,59.940574908136234,
,,,,,,1,1,pic/flanker5.png,pic/flanker3.png,a,k,pic/AffRest1.png,,,,,,,,,,,,,,,,,,,,,,,,,0,0,0,0,0,46,46,44,,,,628.698834299983,None,627.5143937999965,628.7151378999988,a,1,0.5571188000030816,旺盛,k,1,0.6222468000196386,shj,m,21,2024_Apr_14_1723,mian,2021.2.3,59.940574908136234,
,,,,,,0,1,pic/flanker6.png,pic/flanker2.png,a,k,pic/AffRest1.png,,,,,,,,,,,,,,,,,,,,,,,,,0,0,0,0,0,47,47,66,,,,631.700304500002,None,630.5171143999905,631.7171909000026,a,1,0.38321820000419393,丰满,k,1,0.7281474999908824,shj,m,21,2024_Apr_14_1723,mian,2021.2.3,59.940574908136234,
,,,,,,1,1,pic/flanker6.png,pic/flanker4.png,s,k,pic/AffRest1.png,,,,,,,,,,,,,,,,,,,,,,,,,0,0,0,0,0,48,48,78,,,,634.8020967000048,None,633.6175060000096,634.8189153999847,s,1,0.4832058999745641,留恋,k,1,0.468436000024667,shj,m,21,2024_Apr_14_1723,mian,2021.2.3,59.940574908136234,
,,,,,,1,0,pic/flanker6.png,pic/flanker4.png,s,l,pic/AffRest1.png,,,,,,,,,,,,,,,,,,,,,,,,,0,0,0,0,0,49,49,61,,,,637.737145799998,None,636.5523632999975,637.7539249999973,s,1,0.5793389000173192,懒惰,l,1,0.8127438999945298,shj,m,21,2024_Apr_14_1723,mian,2021.2.3,59.940574908136234,
,,,,,,0,0,pic/flanker6.png,pic/flanker2.png,a,l,pic/AffRest1.png,,,,,,,,,,,,,,,,,,,,,,,,,0,0,0,0,0,50,50,1,,,,641.0049900999875,None,639.8207430999901,641.021631999989,a,1,0.3572784000134561,丢失,l,1,0.5154257999965921,shj,m,21,2024_Apr_14_1723,mian,2021.2.3,59.940574908136234,
,,,,,,1,0,pic/flanker5.png,pic/flanker3.png,a,l,pic/AffRest1.png,,,,,,,,,,,,,,,,,,,,,,,,,0,0,0,0,0,51,51,79,,,,643.8066684000078,None,642.6221190000069,643.8231002000102,a,1,0.6624481000180822,处罚,l,1,0.47578509998857044,shj,m,21,2024_Apr_14_1723,mian,2021.2.3,59.940574908136234,
,,,,,,1,0,pic/flanker5.png,pic/flanker3.png,a,l,pic/AffRest1.png,,,,,,,,,,,,,,,,,,,,,,,,,0,0,0,0,0,52,52,47,,,,646.8075683999923,None,645.6236445000104,646.8247169000097,None,0,,黑暗,l,1,0.6592421999957878,shj,m,21,2024_Apr_14_1723,mian,2021.2.3,59.940574908136234,
,,,,,,0,0,pic/flanker6.png,pic/flanker2.png,a,l,pic/AffRest1.png,,,,,,,,,,,,,,,,,,,,,,,,,0,0,0,0,0,53,53,33,,,,650.6768865000049,None,649.4919432000024,650.6929698000022,a,1,0.4017841999884695,轻率,l,1,0.7833718000038061,shj,m,21,2024_Apr_14_1723,mian,2021.2.3,59.940574908136234,
,,,,,,0,0,pic/flanker6.png,pic/flanker2.png,a,l,pic/AffRest1.png,,,,,,,,,,,,,,,,,,,,,,,,,0,0,0,0,0,54,54,65,,,,653.8951135000098,None,652.711243800004,653.911950699985,a,1,0.37656539998715743,鲁莽,l,1,0.5099540000082925,shj,m,21,2024_Apr_14_1723,mian,2021.2.3,59.940574908136234,
,,,,,,1,1,pic/flanker5.png,pic/flanker3.png,a,k,pic/AffRest1.png,,,,,,,,,,,,,,,,,,,,,,,,,0,0,0,0,0,55,55,76,,,,656.7298167999834,None,655.5456701999938,656.7459983000008,a,1,0.4872602999967057,振作,k,1,0.7472770999884233,shj,m,21,2024_Apr_14_1723,mian,2021.2.3,59.940574908136234,
,,,,,,0,0,pic/flanker5.png,pic/flanker1.png,s,l,pic/AffRest1.png,,,,,,,,,,,,,,,,,,,,,,,,,0,0,0,0,0,56,56,43,,,,659.8817385000002,None,658.69691649999,659.8985864999995,s,1,0.3916408999939449,浪费,l,1,0.782482800015714,shj,m,21,2024_Apr_14_1723,mian,2021.2.3,59.940574908136234,
,,,,,,1,0,pic/flanker6.png,pic/flanker4.png,s,l,pic/AffRest1.png,,,,,,,,,,,,,,,,,,,,,,,,,0,0,0,0,0,57,57,77,,,,663.0831285000022,None,661.8989804000012,663.0998125000042,s,1,0.5465655000007246,逃避,l,1,1.122268700011773,shj,m,21,2024_Apr_14_1723,mian,2021.2.3,59.940574908136234,
,,,,,,0,0,pic/flanker6.png,pic/flanker2.png,a,l,pic/AffRest1.png,,,,,,,,,,,,,,,,,,,,,,,,,0,0,0,0,0,58,58,41,,,,666.7673743999912,None,665.5848627999949,666.7848791999859,a,1,0.3159651999885682,胡涂,l,1,0.7196044999873266,shj,m,21,2024_Apr_14_1723,mian,2021.2.3,59.940574908136234,
,,,,,,1,0,pic/flanker6.png,pic/flanker4.png,s,l,pic/AffRest1.png,,,,,,,,,,,,,,,,,,,,,,,,,0,0,0,0,0,59,59,53,,,,669.6371706000064,None,668.4517656000098,669.6533344000054,s,1,0.44807529999525286,郁闷,l,1,0.4625702000048477,shj,m,21,2024_Apr_14_1723,mian,2021.2.3,59.940574908136234,
,,,,,,0,1,pic/flanker5.png,pic/flanker1.png,s,k,pic/AffRest1.png,,,,,,,,,,,,,,,,,,,,,,,,,0,0,0,0,0,60,60,16,,,,672.4379018000036,None,671.2532023999956,672.4539720999892,s,1,0.5487695000192616,卓越,k,1,0.5452719999884721,shj,m,21,2024_Apr_14_1723,mian,2021.2.3,59.940574908136234,
,,,,,,1,1,pic/flanker5.png,pic/flanker3.png,a,k,pic/AffRest1.png,,,,,,,,,,,,,,,,,,,,,,,,,0,0,0,0,0,61,61,52,,,,675.5564011000097,None,674.3735583999951,675.5726223000092,a,1,0.6762487000087276,富足,k,1,0.46458260001963936,shj,m,21,2024_Apr_14_1723,mian,2021.2.3,59.940574908136234,
,,,,,,1,1,pic/flanker6.png,pic/flanker4.png,s,k,pic/AffRest1.png,,,,,,,,,,,,,,,,,,,,,,,,,0,0,0,0,0,62,62,14,,,,678.6076751000073,None,677.4227364999824,678.624533299997,s,1,0.4339730000065174,富丽,k,1,0.5434771000000183,shj,m,21,2024_Apr_14_1723,mian,2021.2.3,59.940574908136234,
,,,,,,1,1,pic/flanker5.png,pic/flanker3.png,a,k,pic/AffRest1.png,,,,,,,,,,,,,,,,,,,,,,,,,0,0,0,0,0,63,63,68,,,,681.5593349999981,None,680.3741175000032,681.5761716999987,a,1,0.6753798999998253,前进,k,1,0.36107680000714026,shj,m,21,2024_Apr_14_1723,mian,2021.2.3,59.940574908136234,
,,,,,,1,1,pic/flanker6.png,pic/flanker4.png,s,k,pic/AffRest1.png,,,,,,,,,,,,,,,,,,,,,,,,,0,0,0,0,0,64,64,54,,,,684.4604616999859,None,683.2767088999972,684.4772176999832,s,1,0.683400799985975,敬佩,k,1,0.4710395000001881,shj,m,21,2024_Apr_14_1723,mian,2021.2.3,59.940574908136234,
,,,,,,0,1,pic/flanker6.png,pic/flanker2.png,a,k,pic/AffRest1.png,,,,,,,,,,,,,,,,,,,,,,,,,0,0,0,0,0,65,65,34,,,,687.4455193000031,None,686.2614758999844,687.46226510001,a,1,0.3832479999982752,有利,k,1,0.5754285000148229,shj,m,21,2024_Apr_14_1723,mian,2021.2.3,59.940574908136234,
,,,,,,1,1,pic/flanker6.png,pic/flanker4.png,s,k,pic/AffRest1.png,,,,,,,,,,,,,,,,,,,,,,,,,0,0,0,0,0,66,66,70,,,,690.2302916999906,None,689.0461240999866,690.2466381999839,s,1,0.4614863999886438,秀丽,k,1,0.43220179999480024,shj,m,21,2024_Apr_14_1723,mian,2021.2.3,59.940574908136234,
,,,,,,0,1,pic/flanker6.png,pic/flanker2.png,a,k,pic/AffRest1.png,,,,,,,,,,,,,,,,,,,,,,,,,0,0,0,0,0,67,67,26,,,,693.0983164999925,None,691.913854399987,693.1151329999848,a,1,0.43644590000621974,赞成,k,1,0.3896819000074174,shj,m,21,2024_Apr_14_1723,mian,2021.2.3,59.940574908136234,
,,,,,,1,0,pic/flanker6.png,pic/flanker4.png,s,l,pic/AffRest1.png,,,,,,,,,,,,,,,,,,,,,,,,,0,0,0,0,0,68,68,29,,,,695.9498860999884,None,694.7659480999864,695.9665725000086,s,1,0.5144014999968931,假冒,l,1,0.5776381000177935,shj,m,21,2024_Apr_14_1723,mian,2021.2.3,59.940574908136234,
,,,,,,1,1,pic/flanker6.png,pic/flanker4.png,s,k,pic/AffRest1.png,,,,,,,,,,,,,,,,,,,,,,,,,0,0,0,0,0,69,69,30,,,,698.9847528999962,None,697.7993676000042,699.0014794000017,s,1,0.518655799998669,雄厚,k,1,0.5246386999788228,shj,m,21,2024_Apr_14_1723,mian,2021.2.3,59.940574908136234,
,,,,,,1,1,pic/flanker6.png,pic/flanker4.png,s,k,pic/AffRest1.png,,,,,,,,,,,,,,,,,,,,,,,,,0,0,0,0,0,70,70,22,,,,701.9030614999938,None,700.7187651999993,701.9192979999934,s,1,0.4669657999766059,热切,k,1,0.37141029999474995,shj,m,21,2024_Apr_14_1723,mian,2021.2.3,59.940574908136234,
,,,,,,1,1,pic/flanker6.png,pic/flanker4.png,s,k,pic/AffRest1.png,,,,,,,,,,,,,,,,,,,,,,,,,0,0,0,0,0,71,71,6,,,,704.6210340000107,None,703.43646669999,704.6377943999832,s,1,0.404215300019132,俊秀,k,1,0.35355850000632927,shj,m,21,2024_Apr_14_1723,mian,2021.2.3,59.940574908136234,
,,,,,,0,1,pic/flanker5.png,pic/flanker1.png,s,k,pic/AffRest1.png,,,,,,,,,,,,,,,,,,,,,,,,,0,0,0,0,0,72,72,24,,,,707.2890016000019,None,706.1048234000045,707.3056143999856,s,1,0.5642172000079881,豪放,k,1,0.4893984999798704,shj,m,21,2024_Apr_14_1723,mian,2021.2.3,59.940574908136234,
,,,,,,0,1,pic/flanker5.png,pic/flanker1.png,s,k,pic/AffRest1.png,,,,,,,,,,,,,,,,,,,,,,,,,0,0,0,0,0,73,73,64,,,,710.3904293999949,None,709.2057683999883,710.4073141999834,s,1,0.39250499999616295,正直,k,1,0.4324579999956768,shj,m,21,2024_Apr_14_1723,mian,2021.2.3,59.940574908136234,
,,,,,,0,0,pic/flanker5.png,pic/flanker1.png,s,l,pic/AffRest1.png,,,,,,,,,,,,,,,,,,,,,,,,,0,0,0,0,0,74,74,75,,,,713.1922856000019,None,712.0073424000002,713.2089174999855,s,1,0.36245500002405606,孤单,k,0,1.3183693999890238,shj,m,21,2024_Apr_14_1723,mian,2021.2.3,59.940574908136234,
,,,,,,0,1,pic/flanker6.png,pic/flanker2.png,a,k,pic/AffRest1.png,,,,,,,,,,,,,,,,,,,,,,,,,0,0,0,0,0,75,75,50,,,,716.6941584000015,None,715.5098151999991,716.7106889999995,a,1,0.8898090000147931,公平,k,1,0.4903542000101879,shj,m,21,2024_Apr_14_1723,mian,2021.2.3,59.940574908136234,
,,,,,,0,0,pic/flanker5.png,pic/flanker1.png,s,l,pic/AffRest1.png,,,,,,,,,,,,,,,,,,,,,,,,,0,0,0,0,0,76,76,19,,,,719.928777699999,None,718.7442569999839,719.9455688000016,s,1,0.3788322000182234,落后,l,1,0.6717540999816265,shj,m,21,2024_Apr_14_1723,mian,2021.2.3,59.940574908136234,
,,,,,,1,1,pic/flanker5.png,pic/flanker3.png,a,k,pic/AffRest1.png,,,,,,,,,,,,,,,,,,,,,,,,,0,0,0,0,0,77,77,4,,,,722.8965448999952,None,721.7124824000057,722.9131384000066,a,1,0.5987818999856245,优雅,k,1,0.6419632000033744,shj,m,21,2024_Apr_14_1723,mian,2021.2.3,59.940574908136234,
,,,,,,0,0,pic/flanker5.png,pic/flanker1.png,s,l,pic/AffRest1.png,,,,,,,,,,,,,,,,,,,,,,,,,0,0,0,0,0,78,78,67,,,,726.0156399999978,None,724.8317517999967,726.0318744000106,s,1,0.5557255999883637,冷笑,l,1,0.6263603999977931,shj,m,21,2024_Apr_14_1723,mian,2021.2.3,59.940574908136234,
,,,,,,0,1,pic/flanker5.png,pic/flanker1.png,s,k,pic/AffRest1.png,,,,,,,,,,,,,,,,,,,,,,,,,0,0,0,0,0,79,79,0,,,,729.0668088000093,None,727.8823900999851,729.0835046999855,s,1,0.6316997999965679,顽强,k,1,0.9407174999942072,shj,m,21,2024_Apr_14_1723,mian,2021.2.3,59.940574908136234,
,,,,,,,,,,,,pic/AffRest1.png,,,,,,,,,,,,,,,,,,,,,,,,,0,0,0,0,,,,,,,,,,,,,,,,,,,shj,m,21,2024_Apr_14_1723,mian,2021.2.3,59.940574908136234,
,,,,,,0,1,pic/flanker6.png,pic/flanker2.png,a,k,pic/AffRest2.png,,,,,,,,,,,,,,,,,,,,,,,,,0,1,1,1,0,0,0,18,,,,746.2254096999823,None,745.0339529000048,746.242437799985,a,1,0.5213799999910407,畅销,k,1,0.6529127999965567,shj,m,21,2024_Apr_14_1723,mian,2021.2.3,59.940574908136234,
,,,,,,1,0,pic/flanker5.png,pic/flanker3.png,a,l,pic/AffRest2.png,,,,,,,,,,,,,,,,,,,,,,,,,0,1,1,1,0,1,1,31,,,,749.3942693999852,None,748.2094640999858,749.4103200999962,a,1,1.3221879999910016,失意,k,0,0.5084319000015967,shj,m,21,2024_Apr_14_1723,mian,2021.2.3,59.940574908136234,
,,,,,,0,1,pic/flanker5.png,pic/flanker1.png,s,k,pic/AffRest2.png,,,,,,,,,,,,,,,,,,,,,,,,,0,1,1,1,0,2,2,0,,,,753.1621449000086,None,751.9780907999957,753.1785508999892,s,1,0.5858700000098906,富丽,k,1,0.5949605000205338,shj,m,21,2024_Apr_14_1723,mian,2021.2.3,59.940574908136234,
,,,,,,0,1,pic/flanker5.png,pic/flanker1.png,s,k,pic/AffRest2.png,,,,,,,,,,,,,,,,,,,,,,,,,0,1,1,1,0,3,3,16,,,,756.3806521999941,None,755.1962244999886,756.397169200005,s,1,0.5691022999817505,爽朗,k,1,0.7552412000077311,shj,m,21,2024_Apr_14_1723,mian,2021.2.3,59.940574908136234,
,,,,,,0,0,pic/flanker6.png,pic/flanker2.png,a,l,pic/AffRest2.png,,,,,,,,,,,,,,,,,,,,,,,,,0,1,1,1,0,4,4,73,,,,759.6824979000085,None,758.4976088999829,759.6987231000094,a,1,0.7052412999910302,黑暗,l,1,0.6125136999762617,shj,m,21,2024_Apr_14_1723,mian,2021.2.3,59.940574908136234,
,,,,,,0,0,pic/flanker5.png,pic/flanker1.png,s,l,pic/AffRest2.png,,,,,,,,,,,,,,,,,,,,,,,,,0,1,1,1,0,5,5,67,,,,762.8342065000033,None,761.649528000009,762.8509067999839,s,1,0.5866433000192046,损害,l,1,1.7233749000006355,shj,m,21,2024_Apr_14_1723,mian,2021.2.3,59.940574908136234,
,,,,,,0,0,pic/flanker5.png,pic/flanker1.png,s,l,pic/AffRest2.png,,,,,,,,,,,,,,,,,,,,,,,,,0,1,1,1,0,6,6,27,,,,767.0186039999826,None,765.8350195999956,767.0364875000087,s,1,0.7079991000064183,禁止,l,1,0.5243934000027366,shj,m,21,2024_Apr_14_1723,mian,2021.2.3,59.940574908136234,
,,,,,,0,1,pic/flanker6.png,pic/flanker2.png,a,k,pic/AffRest2.png,,,,,,,,,,,,,,,,,,,,,,,,,0,1,1,1,0,7,7,26,,,,770.2376637999841,None,769.0541653999826,770.2540533999854,a,1,0.4182705999992322,如愿,k,1,0.6006173999921884,shj,m,21,2024_Apr_14_1723,mian,2021.2.3,59.940574908136234,
,,,,,,1,1,pic/flanker5.png,pic/flanker3.png,a,k,pic/AffRest2.png,,,,,,,,,,,,,,,,,,,,,,,,,0,1,1,1,0,8,8,44,,,,773.2216967999993,None,772.0380192000011,773.2394133000053,a,1,0.7177836000046227,热切,k,1,1.0274388999969233,shj,m,21,2024_Apr_14_1723,mian,2021.2.3,59.940574908136234,
,,,,,,1,0,pic/flanker5.png,pic/flanker3.png,a,l,pic/AffRest2.png,,,,,,,,,,,,,,,,,,,,,,,,,0,1,1,1,0,9,9,23,,,,776.8582416999852,None,775.6737000999856,776.8752889999887,a,1,0.7824336999910884,穷苦,l,1,0.6541392999934033,shj,m,21,2024_Apr_14_1723,mian,2021.2.3,59.940574908136234,
,,,,,,1,0,pic/flanker6.png,pic/flanker4.png,s,l,pic/AffRest2.png,,,,,,,,,,,,,,,,,,,,,,,,,0,1,1,1,0,10,10,21,,,,780.2756121999992,None,779.0914103999967,780.2923773000075,s,1,0.585180100024445,郁闷,l,1,0.9687984000192955,shj,m,21,2024_Apr_14_1723,mian,2021.2.3,59.940574908136234,
,,,,,,0,0,pic/flanker5.png,pic/flanker1.png,s,l,pic/AffRest2.png,,,,,,,,,,,,,,,,,,,,,,,,,0,1,1,1,0,11,11,75,,,,783.7776757999964,None,782.5937851000053,783.7944304999837,s,1,0.35894330000155605,罚款,l,1,0.6568385999999009,shj,m,21,2024_Apr_14_1723,mian,2021.2.3,59.940574908136234,
,,,,,,1,0,pic/flanker5.png,pic/flanker3.png,a,l,pic/AffRest2.png,,,,,,,,,,,,,,,,,,,,,,,,,0,1,1,1,0,12,12,7,,,,786.762389999989,None,785.5788629000017,786.779128299997,a,1,0.47180200001457706,伤心,l,1,0.5348929000028875,shj,m,21,2024_Apr_14_1723,mian,2021.2.3,59.940574908136234,
,,,,,,1,1,pic/flanker5.png,pic/flanker3.png,a,k,pic/AffRest2.png,,,,,,,,,,,,,,,,,,,,,,,,,0,1,1,1,0,13,13,52,,,,789.5970673999982,None,788.4136876999983,789.6142650999827,a,1,0.7186063000117429,卓越,k,1,0.4599136000033468,shj,m,21,2024_Apr_14_1723,mian,2021.2.3,59.940574908136234,
,,,,,,0,0,pic/flanker6.png,pic/flanker2.png,a,l,pic/AffRest2.png,,,,,,,,,,,,,,,,,,,,,,,,,0,1,1,1,0,14,14,1,,,,792.8157905999979,None,791.6309363000037,792.8323688000091,a,1,0.4953187000064645,懒惰,l,1,0.5080980000202544,shj,m,21,2024_Apr_14_1723,mian,2021.2.3,59.940574908136234,
,,,,,,1,1,pic/flanker5.png,pic/flanker3.png,a,k,pic/AffRest2.png,,,,,,,,,,,,,,,,,,,,,,,,,0,1,1,1,0,15,15,28,,,,795.7341707999876,None,794.5501027999853,795.7507528999995,a,1,0.5382021999976132,振作,k,1,0.6169649999937974,shj,m,21,2024_Apr_14_1723,mian,2021.2.3,59.940574908136234,
,,,,,,1,0,pic/flanker6.png,pic/flanker4.png,s,l,pic/AffRest2.png,,,,,,,,,,,,,,,,,,,,,,,,,0,1,1,1,0,16,16,77,,,,798.8185336999886,None,797.6357010999927,798.8361655999906,s,1,0.9102706999983639,心慌,l,1,0.5938218999945093,shj,m,21,2024_Apr_14_1723,mian,2021.2.3,59.940574908136234,
,,,,,,0,1,pic/flanker6.png,pic/flanker2.png,a,k,pic/AffRest2.png,,,,,,,,,,,,,,,,,,,,,,,,,0,1,1,1,0,17,17,58,,,,802.2207653000078,None,801.0365998999914,802.2373247999931,a,1,0.5218823000031989,典雅,k,1,0.5852212999889161,shj,m,21,2024_Apr_14_1723,mian,2021.2.3,59.940574908136234,
,,,,,,0,1,pic/flanker6.png,pic/flanker2.png,a,k,pic/AffRest2.png,,,,,,,,,,,,,,,,,,,,,,,,,0,1,1,1,0,18,18,2,,,,805.2055409000022,None,804.0209449999966,805.2223730999976,a,1,0.41466849998687394,丰满,k,1,0.6035804999992251,shj,m,21,2024_Apr_14_1723,mian,2021.2.3,59.940574908136234,
,,,,,,1,0,pic/flanker5.png,pic/flanker3.png,a,l,pic/AffRest2.png,,,,,,,,,,,,,,,,,,,,,,,,,0,1,1,1,0,19,19,39,,,,808.1736819999933,None,806.9893318999966,808.1903529999836,a,1,0.53076960000908,落后,l,1,0.5475320999976248,shj,m,21,2024_Apr_14_1723,mian,2021.2.3,59.940574908136234,
,,,,,,0,1,pic/flanker6.png,pic/flanker2.png,a,k,pic/AffRest2.png,,,,,,,,,,,,,,,,,,,,,,,,,0,1,1,1,0,20,20,10,,,,811.1921204999962,None,810.0080498000025,811.2086202999926,a,1,0.34357979998458177,敬佩,k,1,0.6991812000051141,shj,m,21,2024_Apr_14_1723,mian,2021.2.3,59.940574908136234,
,,,,,,0,0,pic/flanker5.png,pic/flanker1.png,s,l,pic/AffRest2.png,,,,,,,,,,,,,,,,,,,,,,,,,0,1,1,1,0,21,21,11,,,,814.1932553999941,None,813.0093188000028,814.210081600002,s,1,0.8990243000152986,忧虑,l,1,0.5512707000016235,shj,m,21,2024_Apr_14_1723,mian,2021.2.3,59.940574908136234,
,,,,,,1,1,pic/flanker6.png,pic/flanker4.png,s,k,pic/AffRest2.png,,,,,,,,,,,,,,,,,,,,,,,,,0,1,1,1,0,22,22,14,,,,817.6622484999825,None,816.4774038000032,817.6782422999968,s,1,1.3423333000100683,生动,k,1,0.6273140999837779,shj,m,21,2024_Apr_14_1723,mian,2021.2.3,59.940574908136234,
,,,,,,0,0,pic/flanker6.png,pic/flanker2.png,a,l,pic/AffRest2.png,,,,,,,,,,,,,,,,,,,,,,,,,0,1,1,1,0,23,23,65,,,,821.5974956999999,None,820.4131592999911,821.6148444999999,a,1,0.3631976000033319,厌恶,l,1,0.47351090001757257,shj,m,21,2024_Apr_14_1723,mian,2021.2.3,59.940574908136234,
,,,,,,1,0,pic/flanker6.png,pic/flanker4.png,s,l,pic/AffRest2.png,,,,,,,,,,,,,,,,,,,,,,,,,0,1,1,1,0,24,24,53,,,,824.416090099985,None,823.2314525000111,824.4319048000034,s,1,0.4701358000165783,沮丧,l,1,0.544957100006286,shj,m,21,2024_Apr_14_1723,mian,2021.2.3,59.940574908136234,
,,,,,,1,1,pic/flanker5.png,pic/flanker3.png,a,k,pic/AffRest2.png,,,,,,,,,,,,,,,,,,,,,,,,,0,1,1,1,0,25,25,68,,,,827.449646299996,None,826.2664424999966,827.4692066999851,a,1,0.7380592999979854,富足,k,1,0.5994731999817304,shj,m,21,2024_Apr_14_1723,mian,2021.2.3,59.940574908136234,
,,,,,,1,1,pic/flanker6.png,pic/flanker4.png,s,k,pic/AffRest2.png,,,,,,,,,,,,,,,,,,,,,,,,,0,1,1,1,0,26,26,22,,,,830.7689925000013,None,829.5842970999947,830.7853249000036,s,1,0.4752862999739591,充裕,k,1,0.3922350000066217,shj,m,21,2024_Apr_14_1723,mian,2021.2.3,59.940574908136234,
,,,,,,1,0,pic/flanker6.png,pic/flanker4.png,s,l,pic/AffRest2.png,,,,,,,,,,,,,,,,,,,,,,,,,0,1,1,1,0,27,27,61,,,,833.5055247999844,None,832.3182498000097,833.5196469000075,s,1,0.5108999999938533,逃避,l,1,0.5400951000046916,shj,m,21,2024_Apr_14_1723,mian,2021.2.3,59.940574908136234,
,,,,,,1,1,pic/flanker6.png,pic/flanker4.png,s,k,pic/AffRest2.png,,,,,,,,,,,,,,,,,,,,,,,,,0,1,1,1,0,28,28,78,,,,836.5884380000061,None,835.4038244000112,836.6050297000038,s,1,0.5792655999830458,廉洁,k,1,0.9317366999748629,shj,m,21,2024_Apr_14_1723,mian,2021.2.3,59.940574908136234,
,,,,,,1,1,pic/flanker6.png,pic/flanker4.png,s,k,pic/AffRest2.png,,,,,,,,,,,,,,,,,,,,,,,,,0,1,1,1,0,29,29,46,,,,839.9565259999945,None,838.7719024000107,839.972689999995,s,1,0.4640394999878481,俊秀,k,1,0.38021450000815094,shj,m,21,2024_Apr_14_1723,mian,2021.2.3,59.940574908136234,
,,,,,,1,0,pic/flanker6.png,pic/flanker4.png,s,l,pic/AffRest2.png,,,,,,,,,,,,,,,,,,,,,,,,,0,1,1,1,0,30,30,37,,,,842.8242972999869,None,841.6406484000036,842.8412616999994,s,1,0.40613680001115426,丢失,l,1,0.4729020000086166,shj,m,21,2024_Apr_14_1723,mian,2021.2.3,59.940574908136234,
,,,,,,0,0,pic/flanker5.png,pic/flanker1.png,s,l,pic/AffRest2.png,,,,,,,,,,,,,,,,,,,,,,,,,0,1,1,1,0,31,31,59,,,,845.7269587999908,None,844.5414499999897,845.742391799984,s,1,0.46696890000021085,闷热,k,0,0.4336658999964129,shj,m,21,2024_Apr_14_1723,mian,2021.2.3,59.940574908136234,
,,,,,,1,0,pic/flanker5.png,pic/flanker3.png,a,l,pic/AffRest2.png,,,,,,,,,,,,,,,,,,,,,,,,,0,1,1,1,0,32,32,71,,,,848.6107936000044,None,847.4259982999938,848.6274338999938,a,1,0.46120520000113174,排斥,l,1,0.7860677000135183,shj,m,21,2024_Apr_14_1723,mian,2021.2.3,59.940574908136234,
,,,,,,0,1,pic/flanker5.png,pic/flanker1.png,s,k,pic/AffRest2.png,,,,,,,,,,,,,,,,,,,,,,,,,0,1,1,1,0,33,33,32,,,,851.7459045999858,None,850.5623217000102,851.7632480000029,s,1,0.404916699975729,优雅,k,1,0.5155326000240166,shj,m,21,2024_Apr_14_1723,mian,2021.2.3,59.940574908136234,
,,,,,,0,1,pic/flanker5.png,pic/flanker1.png,s,k,pic/AffRest2.png,,,,,,,,,,,,,,,,,,,,,,,,,0,1,1,1,0,34,34,72,,,,854.547465199983,None,853.3632671000087,854.5640444000019,s,1,0.3782680000003893,正直,k,1,0.4497788999869954,shj,m,21,2024_Apr_14_1723,mian,2021.2.3,59.940574908136234,
,,,,,,0,0,pic/flanker6.png,pic/flanker2.png,a,l,pic/AffRest2.png,,,,,,,,,,,,,,,,,,,,,,,,,0,1,1,1,0,35,35,57,,,,857.2815122999891,None,856.097477000003,857.2983443999838,a,1,0.6899265999963973,鲁莽,l,1,0.4489285000017844,shj,m,21,2024_Apr_14_1723,mian,2021.2.3,59.940574908136234,
,,,,,,0,0,pic/flanker5.png,pic/flanker1.png,s,l,pic/AffRest2.png,,,,,,,,,,,,,,,,,,,,,,,,,0,1,1,1,0,36,36,19,,,,860.3002280000073,None,859.1151698000031,860.3170114000095,s,1,0.3802408000046853,缺乏,l,1,0.6780313999915961,shj,m,21,2024_Apr_14_1723,mian,2021.2.3,59.940574908136234,
,,,,,,1,1,pic/flanker6.png,pic/flanker4.png,s,k,pic/AffRest2.png,,,,,,,,,,,,,,,,,,,,,,,,,0,1,1,1,0,37,37,38,,,,863.252089799993,None,862.0670383999823,863.2679364999931,s,1,0.4116611999925226,精致,k,1,0.4670981999952346,shj,m,21,2024_Apr_14_1723,mian,2021.2.3,59.940574908136234,
,,,,,,0,1,pic/flanker5.png,pic/flanker1.png,s,k,pic/AffRest2.png,,,,,,,,,,,,,,,,,,,,,,,,,0,1,1,1,0,38,38,56,,,,866.1529938000022,None,864.9703446000058,866.1697029999923,s,1,0.36214379998273216,赞成,k,1,0.48635650001233444,shj,m,21,2024_Apr_14_1723,mian,2021.2.3,59.940574908136234,
,,,,,,1,0,pic/flanker6.png,pic/flanker4.png,s,l,pic/AffRest2.png,,,,,,,,,,,,,,,,,,,,,,,,,0,1,1,1,0,39,39,13,,,,868.9715141000052,None,867.7871681000106,868.9886299000063,s,1,0.43371270000352524,别扭,l,1,0.8721272999828216,shj,m,21,2024_Apr_14_1723,mian,2021.2.3,59.940574908136234,
,,,,,,0,1,pic/flanker6.png,pic/flanker2.png,a,k,pic/AffRest2.png,,,,,,,,,,,,,,,,,,,,,,,,,0,1,1,1,0,40,40,74,,,,872.156246700004,None,870.971395200002,872.1729784999916,a,1,0.5103532999928575,奉献,k,1,0.460763599985512,shj,m,21,2024_Apr_14_1723,mian,2021.2.3,59.940574908136234,
,,,,,,1,0,pic/flanker5.png,pic/flanker3.png,a,l,pic/AffRest2.png,,,,,,,,,,,,,,,,,,,,,,,,,0,1,1,1,0,41,41,63,,,,875.0242531000113,None,873.8404792000074,875.041449899989,a,1,0.6766582000127528,胡涂,l,1,0.5031231999746524,shj,m,21,2024_Apr_14_1723,mian,2021.2.3,59.940574908136234,
,,,,,,0,1,pic/flanker5.png,pic/flanker1.png,s,k,pic/AffRest2.png,,,,,,,,,,,,,,,,,,,,,,,,,0,1,1,1,0,42,42,64,,,,878.1259204999951,None,876.9415821000002,878.1429835000017,s,1,0.38801840000087395,前进,k,1,0.6576262000016868,shj,m,21,2024_Apr_14_1723,mian,2021.2.3,59.940574908136234,
,,,,,,0,0,pic/flanker6.png,pic/flanker2.png,a,l,pic/AffRest2.png,,,,,,,,,,,,,,,,,,,,,,,,,0,1,1,1,0,43,43,17,,,,881.1942503000028,None,880.0101502999896,881.2116342000081,a,1,0.9504537000029813,假冒,l,1,0.5052779999969061,shj,m,21,2024_Apr_14_1723,mian,2021.2.3,59.940574908136234,
,,,,,,0,1,pic/flanker5.png,pic/flanker1.png,s,k,pic/AffRest2.png,,,,,,,,,,,,,,,,,,,,,,,,,0,1,1,1,0,44,44,8,,,,884.5793023000006,None,883.394899100007,884.596028400003,s,1,0.455832499981625,秀丽,k,1,0.522815400006948,shj,m,21,2024_Apr_14_1723,mian,2021.2.3,59.940574908136234,
,,,,,,1,0,pic/flanker5.png,pic/flanker3.png,a,l,pic/AffRest2.png,,,,,,,,,,,,,,,,,,,,,,,,,0,1,1,1,0,45,45,55,,,,887.3970919999992,None,886.2133604999981,887.4141572999943,a,1,1.014781200006837,浪费,l,1,0.6656536999798845,shj,m,21,2024_Apr_14_1723,mian,2021.2.3,59.940574908136234,
,,,,,,1,0,pic/flanker6.png,pic/flanker4.png,s,l,pic/AffRest2.png,,,,,,,,,,,,,,,,,,,,,,,,,0,1,1,1,0,46,46,45,,,,891.048964799993,None,889.8668036999879,891.0827096999856,s,1,1.3182247999939136,轻率,l,1,1.3106545999762602,shj,m,21,2024_Apr_14_1723,mian,2021.2.3,59.940574908136234,
,,,,,,1,1,pic/flanker5.png,pic/flanker3.png,a,k,pic/AffRest2.png,,,,,,,,,,,,,,,,,,,,,,,,,0,1,1,1,0,47,47,76,,,,895.5182330000098,None,894.3339879999985,895.5349808000028,a,1,0.6036393999820575,珍藏,k,1,0.529277199995704,shj,m,21,2024_Apr_14_1723,mian,2021.2.3,59.940574908136234,
,,,,,,0,0,pic/flanker5.png,pic/flanker1.png,s,l,pic/AffRest2.png,,,,,,,,,,,,,,,,,,,,,,,,,0,1,1,1,0,48,48,43,,,,898.7026229999901,None,897.5179677999986,898.7196423999849,s,1,0.5802339000219945,嘲笑,l,1,0.5305542000278365,shj,m,21,2024_Apr_14_1723,mian,2021.2.3,59.940574908136234,
,,,,,,1,0,pic/flanker5.png,pic/flanker3.png,a,l,pic/AffRest2.png,,,,,,,,,,,,,,,,,,,,,,,,,0,1,1,1,0,49,49,79,,,,901.6383016000036,None,900.4535099999921,901.6546934999933,a,1,0.7947902000159957,撒谎,l,1,0.7179640000103973,shj,m,21,2024_Apr_14_1723,mian,2021.2.3,59.940574908136234,
,,,,,,1,1,pic/flanker6.png,pic/flanker4.png,s,k,pic/AffRest2.png,,,,,,,,,,,,,,,,,,,,,,,,,0,1,1,1,0,50,50,70,,,,905.0231113999907,None,903.8384515999933,905.0401214000012,s,1,0.49624469998525456,清秀,k,1,0.6068157999834511,shj,m,21,2024_Apr_14_1723,mian,2021.2.3,59.940574908136234,
,,,,,,1,1,pic/flanker5.png,pic/flanker3.png,a,k,pic/AffRest2.png,,,,,,,,,,,,,,,,,,,,,,,,,0,1,1,1,0,51,51,36,,,,908.1074310000113,None,906.9240395000088,908.1248701000004,a,1,0.7203237999929115,永恒,k,1,0.5159525999915786,shj,m,21,2024_Apr_14_1723,mian,2021.2.3,59.940574908136234,
,,,,,,0,1,pic/flanker5.png,pic/flanker1.png,s,k,pic/AffRest2.png,,,,,,,,,,,,,,,,,,,,,,,,,0,1,1,1,0,52,52,40,,,,911.1761554999975,None,909.9919178999844,911.192330299993,s,1,0.5450395999941975,瑰丽,k,1,0.43052159997751005,shj,m,21,2024_Apr_14_1723,mian,2021.2.3,59.940574908136234,
,,,,,,0,0,pic/flanker5.png,pic/flanker1.png,s,l,pic/AffRest2.png,,,,,,,,,,,,,,,,,,,,,,,,,0,1,1,1,0,53,53,51,,,,914.060959800001,None,912.8770644000033,914.0779289999919,s,1,0.4297726000077091,处罚,l,1,0.6044144000043161,shj,m,21,2024_Apr_14_1723,mian,2021.2.3,59.940574908136234,
,,,,,,0,0,pic/flanker6.png,pic/flanker2.png,a,l,pic/AffRest2.png,,,,,,,,,,,,,,,,,,,,,,,,,0,1,1,1,0,54,54,25,,,,917.1292874999926,None,915.9453039999935,917.145892600005,a,1,0.39074029997573234,慌忙,l,1,0.6178546999872196,shj,m,21,2024_Apr_14_1723,mian,2021.2.3,59.940574908136234,
,,,,,,0,1,pic/flanker5.png,pic/flanker1.png,s,k,pic/AffRest2.png,,,,,,,,,,,,,,,,,,,,,,,,,0,1,1,1,0,55,55,48,,,,920.1141287999926,None,918.9299877999874,920.1303018000035,s,1,0.438113100011833,有利,k,1,0.4713802000042051,shj,m,21,2024_Apr_14_1723,mian,2021.2.3,59.940574908136234,
,,,,,,0,0,pic/flanker5.png,pic/flanker1.png,s,l,pic/AffRest2.png,,,,,,,,,,,,,,,,,,,,,,,,,0,1,1,1,0,56,56,35,,,,922.8987217000104,None,921.7142493999854,922.9149591999885,s,1,0.4135814000037499,焦躁,l,1,0.5003167999966536,shj,m,21,2024_Apr_14_1723,mian,2021.2.3,59.940574908136234,
,,,,,,1,1,pic/flanker5.png,pic/flanker3.png,a,k,pic/AffRest2.png,,,,,,,,,,,,,,,,,,,,,,,,,0,1,1,1,0,57,57,20,,,,925.6499846999941,None,924.4656406999857,925.666859399993,a,1,0.6154691999836359,留恋,k,1,0.5537155999918468,shj,m,21,2024_Apr_14_1723,mian,2021.2.3,59.940574908136234,
,,,,,,1,0,pic/flanker5.png,pic/flanker3.png,a,l,pic/AffRest2.png,,,,,,,,,,,,,,,,,,,,,,,,,0,1,1,1,0,58,58,47,,,,928.8522077999951,None,927.6683861000056,928.868805999984,a,1,0.5815727000008337,冷笑,l,1,0.5542109999805689,shj,m,21,2024_Apr_14_1723,mian,2021.2.3,59.940574908136234,
,,,,,,1,0,pic/flanker6.png,pic/flanker4.png,s,l,pic/AffRest2.png,,,,,,,,,,,,,,,,,,,,,,,,,0,1,1,1,0,59,59,5,,,,931.9530192000093,None,930.7688500999939,931.9701167999883,s,1,0.4594152999925427,悲观,l,1,0.54172879998805,shj,m,21,2024_Apr_14_1723,mian,2021.2.3,59.940574908136234,
,,,,,,1,0,pic/flanker6.png,pic/flanker4.png,s,l,pic/AffRest2.png,,,,,,,,,,,,,,,,,,,,,,,,,0,1,1,1,0,60,60,69,,,,934.9562662999961,None,933.7706545999972,934.9706638999924,s,1,0.461835299996892,消沉,l,1,0.5610188000136986,shj,m,21,2024_Apr_14_1723,mian,2021.2.3,59.940574908136234,
,,,,,,0,0,pic/flanker6.png,pic/flanker2.png,a,l,pic/AffRest2.png,,,,,,,,,,,,,,,,,,,,,,,,,0,1,1,1,0,61,61,33,,,,938.0069383000082,None,936.8221586,938.0233494999993,a,1,0.4563367000082508,怀疑,l,1,0.5032836000027601,shj,m,21,2024_Apr_14_1723,mian,2021.2.3,59.940574908136234,
,,,,,,0,0,pic/flanker6.png,pic/flanker2.png,a,l,pic/AffRest2.png,,,,,,,,,,,,,,,,,,,,,,,,,0,1,1,1,0,62,62,9,,,,940.9917486000049,None,939.8074371999828,941.0099251999927,a,1,0.48371859997860156,杂乱,l,1,0.5372765999927651,shj,m,21,2024_Apr_14_1723,mian,2021.2.3,59.940574908136234,
,,,,,,0,1,pic/flanker6.png,pic/flanker2.png,a,k,pic/AffRest2.png,,,,,,,,,,,,,,,,,,,,,,,,,0,1,1,1,0,63,63,50,,,,943.9927920000046,None,942.8083929999848,944.0095448000066,a,1,0.44726700001046993,圣洁,k,1,0.5561186999839265,shj,m,21,2024_Apr_14_1723,mian,2021.2.3,59.940574908136234,
,,,,,,1,1,pic/flanker5.png,pic/flanker3.png,a,k,pic/AffRest2.png,,,,,,,,,,,,,,,,,,,,,,,,,0,1,1,1,0,64,64,12,,,,946.8266747999878,None,945.6430851999903,946.843366599991,a,1,0.6112186999816913,旺盛,k,1,0.6504687999840826,shj,m,21,2024_Apr_14_1723,mian,2021.2.3,59.940574908136234,
,,,,,,0,0,pic/flanker6.png,pic/flanker2.png,a,l,pic/AffRest2.png,,,,,,,,,,,,,,,,,,,,,,,,,0,1,1,1,0,65,65,49,,,,950.0792771999841,None,948.8953138999932,950.0958045999869,a,1,0.3894146000093315,自卑,l,1,0.7746854999859352,shj,m,21,2024_Apr_14_1723,mian,2021.2.3,59.940574908136234,
,,,,,,1,1,pic/flanker6.png,pic/flanker4.png,s,k,pic/AffRest2.png,,,,,,,,,,,,,,,,,,,,,,,,,0,1,1,1,0,66,66,6,,,,953.2809247999976,None,952.1018724000023,953.3143205000088,s,1,0.5342507000023033,公平,k,1,0.46017880001454614,shj,m,21,2024_Apr_14_1723,mian,2021.2.3,59.940574908136234,
,,,,,,0,0,pic/flanker6.png,pic/flanker2.png,a,l,pic/AffRest2.png,,,,,,,,,,,,,,,,,,,,,,,,,0,1,1,1,0,67,67,41,,,,956.1487461999932,None,954.9650669999828,956.1661676999938,a,1,0.3861324999888893,孤单,l,1,0.5517484000010882,shj,m,21,2024_Apr_14_1723,mian,2021.2.3,59.940574908136234,
,,,,,,1,1,pic/flanker5.png,pic/flanker3.png,a,k,pic/AffRest2.png,,,,,,,,,,,,,,,,,,,,,,,,,0,1,1,1,0,68,68,60,,,,959.1003339999879,None,957.9162756000005,959.1168295000098,a,1,0.6650820999930147,舒畅,k,1,0.5772919000010006,shj,m,21,2024_Apr_14_1723,mian,2021.2.3,59.940574908136234,
,,,,,,1,1,pic/flanker6.png,pic/flanker4.png,s,k,pic/AffRest2.png,,,,,,,,,,,,,,,,,,,,,,,,,0,1,1,1,0,69,69,54,,,,962.3859618999995,None,961.2015512000071,962.4022945000033,s,1,0.49640559998806566,吉祥,k,1,0.3920955999928992,shj,m,21,2024_Apr_14_1723,mian,2021.2.3,59.940574908136234,
,,,,,,0,0,pic/flanker5.png,pic/flanker1.png,s,l,pic/AffRest2.png,,,,,,,,,,,,,,,,,,,,,,,,,0,1,1,1,0,70,70,3,,,,965.1037391999853,None,963.9196233999974,965.1197565000039,s,1,0.5458371999848168,争吵,l,1,0.7916333999892231,shj,m,21,2024_Apr_14_1723,mian,2021.2.3,59.940574908136234,
,,,,,,0,1,pic/flanker6.png,pic/flanker2.png,a,k,pic/AffRest2.png,,,,,,,,,,,,,,,,,,,,,,,,,0,1,1,1,0,71,71,42,,,,968.2718671000039,None,967.0873520000023,968.2889600000053,a,1,0.46359500000835396,顽强,k,1,0.7047397999849636,shj,m,21,2024_Apr_14_1723,mian,2021.2.3,59.940574908136234,
,,,,,,1,0,pic/flanker5.png,pic/flanker3.png,a,l,pic/AffRest2.png,,,,,,,,,,,,,,,,,,,,,,,,,0,1,1,1,0,72,72,15,,,,971.2738147999917,None,970.0894084000029,971.290628399991,a,1,0.785031200008234,烦恼,l,1,1.440724100015359,shj,m,21,2024_Apr_14_1723,mian,2021.2.3,59.940574908136234,
,,,,,,0,1,pic/flanker5.png,pic/flanker1.png,s,k,pic/AffRest2.png,,,,,,,,,,,,,,,,,,,,,,,,,0,1,1,1,0,73,73,24,,,,975.3254745999875,None,974.1430503999873,975.3422416000103,s,1,0.5103162000013981,诚恳,k,1,0.5050919000059366,shj,m,21,2024_Apr_14_1723,mian,2021.2.3,59.940574908136234,
,,,,,,1,1,pic/flanker5.png,pic/flanker3.png,a,k,pic/AffRest2.png,,,,,,,,,,,,,,,,,,,,,,,,,0,1,1,1,0,74,74,4,,,,978.3606735999929,None,977.1763294999837,978.3779571999912,a,1,0.6050213999988046,豪放,k,1,0.45437520000268705,shj,m,21,2024_Apr_14_1723,mian,2021.2.3,59.940574908136234,
,,,,,,0,1,pic/flanker6.png,pic/flanker2.png,a,k,pic/AffRest2.png,,,,,,,,,,,,,,,,,,,,,,,,,0,1,1,1,0,75,75,34,,,,981.2954537000041,None,980.1116213999921,981.3120669999917,a,1,0.4071608000085689,鲜艳,k,1,0.41484380001202226,shj,m,21,2024_Apr_14_1723,mian,2021.2.3,59.940574908136234,
,,,,,,0,1,pic/flanker6.png,pic/flanker2.png,a,k,pic/AffRest2.png,,,,,,,,,,,,,,,,,,,,,,,,,0,1,1,1,0,76,76,66,,,,984.1134684999997,None,982.9167686000001,984.1300020999915,a,1,0.3730210999783594,羡慕,k,1,0.5264817999850493,shj,m,21,2024_Apr_14_1723,mian,2021.2.3,59.940574908136234,
,,,,,,1,1,pic/flanker6.png,pic/flanker4.png,s,k,pic/AffRest2.png,,,,,,,,,,,,,,,,,,,,,,,,,0,1,1,1,0,77,77,62,,,,986.9313065999886,None,985.7473765999894,986.9485139999888,s,1,0.518103800015524,享受,k,1,0.4933659000089392,shj,m,21,2024_Apr_14_1723,mian,2021.2.3,59.940574908136234,
,,,,,,1,1,pic/flanker6.png,pic/flanker4.png,s,k,pic/AffRest2.png,,,,,,,,,,,,,,,,,,,,,,,,,0,1,1,1,0,78,78,30,,,,989.8160944999836,None,988.6318232000049,989.833005499997,s,1,0.5647315999958664,雄厚,k,1,0.4607848000014201,shj,m,21,2024_Apr_14_1723,mian,2021.2.3,59.940574908136234,
,,,,,,1,0,pic/flanker6.png,pic/flanker4.png,s,l,pic/AffRest2.png,,,,,,,,,,,,,,,,,,,,,,,,,0,1,1,1,0,79,79,29,,,,992.7172113999841,None,991.5338707999908,992.7342462000088,s,1,0.5828430999827106,堵塞,k,0,0.36564840000937693,shj,m,21,2024_Apr_14_1723,mian,2021.2.3,59.940574908136234,
,,,,,,,,,,,,pic/AffRest2.png,,,,,,,,,,,,,,,,,,,,,,,,,0,1,1,1,,,,,,,,,,,,,,,,,,,shj,m,21,2024_Apr_14_1723,mian,2021.2.3,59.940574908136234,
,,,,,,0,1,pic/flanker5.png,pic/flanker1.png,s,k,pic/AffRest3.png,,,,,,,,,,,,,,,,,,,,,,,,,0,2,2,2,0,0,0,0,,,,999.4037332999869,None,998.2096335999959,999.4211159999832,s,1,0.7150523999880534,舒畅,k,1,0.46319839998614043,shj,m,21,2024_Apr_14_1723,mian,2021.2.3,59.940574908136234,
,,,,,,1,1,pic/flanker6.png,pic/flanker4.png,s,k,pic/AffRest3.png,,,,,,,,,,,,,,,,,,,,,,,,,0,2,2,2,0,1,1,78,,,,1002.5564492999983,None,1001.3719127000077,1002.5730041000061,s,1,0.5708709000027739,充裕,k,1,0.4482952000107616,shj,m,21,2024_Apr_14_1723,mian,2021.2.3,59.940574908136234,
,,,,,,1,0,pic/flanker5.png,pic/flanker3.png,a,l,pic/AffRest3.png,,,,,,,,,,,,,,,,,,,,,,,,,0,2,2,2,0,2,2,55,,,,1005.5079570999951,None,1004.3234632000094,1005.5243569999875,a,1,0.5326136999938171,忧虑,l,1,0.5342663000046741,shj,m,21,2024_Apr_14_1723,mian,2021.2.3,59.940574908136234,
,,,,,,1,0,pic/flanker6.png,pic/flanker4.png,s,l,pic/AffRest3.png,,,,,,,,,,,,,,,,,,,,,,,,,0,2,2,2,0,3,3,61,,,,1008.6262350000034,None,1007.4412409999932,1008.6430417000083,s,1,0.48913880001055077,懒惰,l,1,0.49864490001345985,shj,m,21,2024_Apr_14_1723,mian,2021.2.3,59.940574908136234,
,,,,,,1,1,pic/flanker5.png,pic/flanker3.png,a,k,pic/AffRest3.png,,,,,,,,,,,,,,,,,,,,,,,,,0,2,2,2,0,4,4,28,,,,1011.5441372999921,None,1010.3596823999833,1011.5610449000087,a,1,0.4489627000002656,如愿,k,1,0.5621562000014819,shj,m,21,2024_Apr_14_1723,mian,2021.2.3,59.940574908136234,
,,,,,,1,0,pic/flanker6.png,pic/flanker4.png,s,l,pic/AffRest3.png,,,,,,,,,,,,,,,,,,,,,,,,,0,2,2,2,0,5,5,53,,,,1014.5794177000062,None,1013.394690199988,1014.5960391999979,s,1,0.43340840001474135,损害,l,1,0.46044439999968745,shj,m,21,2024_Apr_14_1723,mian,2021.2.3,59.940574908136234,
,,,,,,0,1,pic/flanker5.png,pic/flanker1.png,s,k,pic/AffRest3.png,,,,,,,,,,,,,,,,,,,,,,,,,0,2,2,2,0,6,6,8,,,,1017.2969388999918,None,1016.1128506000096,1017.3137366999872,s,1,0.4329583999933675,畅销,k,1,0.7350787000032142,shj,m,21,2024_Apr_14_1723,mian,2021.2.3,59.940574908136234,
,,,,,,0,0,pic/flanker6.png,pic/flanker2.png,a,l,pic/AffRest3.png,,,,,,,,,,,,,,,,,,,,,,,,,0,2,2,2,0,7,7,33,,,,1020.3979594999983,None,1019.213319100003,1020.4143052999862,a,1,0.3548358000116423,罚款,l,1,0.5710640999895986,shj,m,21,2024_Apr_14_1723,mian,2021.2.3,59.940574908136234,
,,,,,,1,0,pic/flanker6.png,pic/flanker4.png,s,l,pic/AffRest3.png,,,,,,,,,,,,,,,,,,,,,,,,,0,2,2,2,0,8,8,37,,,,1023.2497747000016,None,1022.0650744999875,1023.2666037000017,s,1,0.5033190000103787,失意,l,1,0.624963200010825,shj,m,21,2024_Apr_14_1723,mian,2021.2.3,59.940574908136234,
,,,,,,0,0,pic/flanker5.png,pic/flanker1.png,s,l,pic/AffRest3.png,,,,,,,,,,,,,,,,,,,,,,,,,0,2,2,2,0,9,9,43,,,,1026.302086599986,None,1025.117020899983,1026.3179251999827,s,1,0.4841341999999713,排斥,l,1,0.525230700004613,shj,m,21,2024_Apr_14_1723,mian,2021.2.3,59.940574908136234,
,,,,,,1,0,pic/flanker5.png,pic/flanker3.png,a,l,pic/AffRest3.png,,,,,,,,,,,,,,,,,,,,,,,,,0,2,2,2,0,10,10,15,,,,1029.1853936999978,None,1028.002031799988,1029.2019922999898,a,1,0.5090511000016704,沮丧,l,1,0.5445963999954984,shj,m,21,2024_Apr_14_1723,mian,2021.2.3,59.940574908136234,
,,,,,,0,0,pic/flanker6.png,pic/flanker2.png,a,l,pic/AffRest3.png,,,,,,,,,,,,,,,,,,,,,,,,,0,2,2,2,0,11,11,49,,,,1032.070672700007,None,1030.8862433999893,1032.0877762000018,a,1,0.3287166000227444,禁止,l,1,0.8981695999973454,shj,m,21,2024_Apr_14_1723,mian,2021.2.3,59.940574908136234,
,,,,,,1,1,pic/flanker5.png,pic/flanker3.png,a,k,pic/AffRest3.png,,,,,,,,,,,,,,,,,,,,,,,,,0,2,2,2,0,12,12,44,,,,1035.2885321000067,None,1034.1052753000113,1035.306611500011,a,1,0.7392610999813769,热切,k,1,0.7017287999915425,shj,m,21,2024_Apr_14_1723,mian,2021.2.3,59.940574908136234,
,,,,,,1,1,pic/flanker6.png,pic/flanker4.png,s,k,pic/AffRest3.png,,,,,,,,,,,,,,,,,,,,,,,,,0,2,2,2,0,13,13,14,,,,1038.7569348999823,None,1037.5726943000045,1038.7735757000046,s,1,0.4952740999870002,珍藏,k,1,0.40440689999377355,shj,m,21,2024_Apr_14_1723,mian,2021.2.3,59.940574908136234,
,,,,,,0,1,pic/flanker6.png,pic/flanker2.png,a,k,pic/AffRest3.png,,,,,,,,,,,,,,,,,,,,,,,,,0,2,2,2,0,14,14,42,,,,1041.5767062999948,None,1040.3919721999846,1041.5932406999927,a,1,0.3317156999837607,优雅,k,1,0.4525207999977283,shj,m,21,2024_Apr_14_1723,mian,2021.2.3,59.940574908136234,
,,,,,,0,1,pic/flanker6.png,pic/flanker2.png,a,k,pic/AffRest3.png,,,,,,,,,,,,,,,,,,,,,,,,,0,2,2,2,0,15,15,50,,,,1044.2940607999917,None,1043.1099485000013,1044.3106079999998,a,1,0.31706060000578873,留恋,k,1,0.5660816000017803,shj,m,21,2024_Apr_14_1723,mian,2021.2.3,59.940574908136234,
,,,,,,1,1,pic/flanker5.png,pic/flanker3.png,a,k,pic/AffRest3.png,,,,,,,,,,,,,,,,,,,,,,,,,0,2,2,2,0,16,16,20,,,,1047.0447963000042,None,1045.8603907999932,1047.061921799992,a,1,0.7767850999953225,丰满,l,0,0.5578616000129841,shj,m,21,2024_Apr_14_1723,mian,2021.2.3,59.940574908136234,
,,,,,,1,0,pic/flanker5.png,pic/flanker3.png,a,l,pic/AffRest3.png,,,,,,,,,,,,,,,,,,,,,,,,,0,2,2,2,0,17,17,71,,,,1050.2636053999886,None,1049.0796768,1050.2804833999835,a,1,0.5000072999973781,处罚,l,1,0.6058526999840979,shj,m,21,2024_Apr_14_1723,mian,2021.2.3,59.940574908136234,
,,,,,,0,1,pic/flanker5.png,pic/flanker1.png,s,k,pic/AffRest3.png,,,,,,,,,,,,,,,,,,,,,,,,,0,2,2,2,0,18,18,32,,,,1053.2648250999919,None,1052.081167700002,1053.2820251999947,s,1,0.47368580001057126,爽朗,k,1,1.1281512999848928,shj,m,21,2024_Apr_14_1723,mian,2021.2.3,59.940574908136234,
,,,,,,1,0,pic/flanker6.png,pic/flanker4.png,s,l,pic/AffRest3.png,,,,,,,,,,,,,,,,,,,,,,,,,0,2,2,2,0,19,19,45,,,,1056.8841182999895,None,1055.6991569999955,1056.9004608000105,s,1,0.4989095999917481,烦恼,l,1,0.5685816000041086,shj,m,21,2024_Apr_14_1723,mian,2021.2.3,59.940574908136234,
,,,,,,1,0,pic/flanker5.png,pic/flanker3.png,a,l,pic/AffRest3.png,,,,,,,,,,,,,,,,,,,,,,,,,0,2,2,2,0,20,20,7,,,,1059.9855319999915,None,1058.801492300001,1060.0021901,a,1,0.5925692000018898,心慌,l,1,0.5580069000134245,shj,m,21,2024_Apr_14_1723,mian,2021.2.3,59.940574908136234,
,,,,,,1,1,pic/flanker6.png,pic/flanker4.png,s,k,pic/AffRest3.png,,,,,,,,,,,,,,,,,,,,,,,,,0,2,2,2,0,21,21,6,,,,1062.9533759999904,None,1061.7685555999924,1062.9705626000068,s,1,0.6180785000033211,有利,k,1,0.458152200008044,shj,m,21,2024_Apr_14_1723,mian,2021.2.3,59.940574908136234,
,,,,,,1,0,pic/flanker5.png,pic/flanker3.png,a,l,pic/AffRest3.png,,,,,,,,,,,,,,,,,,,,,,,,,0,2,2,2,0,22,22,31,,,,1066.0552168999857,None,1064.870971299999,1066.0719319999916,a,1,0.4841842000023462,杂乱,l,1,0.46828639999148436,shj,m,21,2024_Apr_14_1723,mian,2021.2.3,59.940574908136234,
,,,,,,0,1,pic/flanker5.png,pic/flanker1.png,s,k,pic/AffRest3.png,,,,,,,,,,,,,,,,,,,,,,,,,0,2,2,2,0,23,23,24,,,,1068.8395021999895,None,1067.656341599999,1068.856142100005,s,1,0.46288669999921694,诚恳,k,1,0.4621008000103757,shj,m,21,2024_Apr_14_1723,mian,2021.2.3,59.940574908136234,
,,,,,,1,0,pic/flanker6.png,pic/flanker4.png,s,l,pic/AffRest3.png,,,,,,,,,,,,,,,,,,,,,,,,,0,2,2,2,0,24,24,21,,,,1071.6080965999863,None,1070.4233652999974,1071.6244234000042,s,1,0.5146927000023425,争吵,l,1,0.5239483000186738,shj,m,21,2024_Apr_14_1723,mian,2021.2.3,59.940574908136234,
,,,,,,0,0,pic/flanker6.png,pic/flanker2.png,a,l,pic/AffRest3.png,,,,,,,,,,,,,,,,,,,,,,,,,0,2,2,2,0,25,25,25,,,,1074.5426564000081,None,1073.348724999989,1074.5594841999991,a,1,0.35726989997783676,自卑,l,1,0.5319966000097338,shj,m,21,2024_Apr_14_1723,mian,2021.2.3,59.940574908136234,
,,,,,,1,1,pic/flanker6.png,pic/flanker4.png,s,k,pic/AffRest3.png,,,,,,,,,,,,,,,,,,,,,,,,,0,2,2,2,0,26,26,30,,,,1077.4109052999993,None,1076.2265391999972,1077.427539299999,s,1,0.500094299990451,永恒,k,1,0.9429180999868549,shj,m,21,2024_Apr_14_1723,mian,2021.2.3,59.940574908136234,
,,,,,,0,1,pic/flanker6.png,pic/flanker2.png,a,k,pic/AffRest3.png,,,,,,,,,,,,,,,,,,,,,,,,,0,2,2,2,0,27,27,34,,,,1080.829201399989,None,1079.6452035999973,1080.8459121999913,a,1,0.5254883000161499,羡慕,k,1,0.5244560999854002,shj,m,21,2024_Apr_14_1723,mian,2021.2.3,59.940574908136234,
,,,,,,0,1,pic/flanker6.png,pic/flanker2.png,a,k,pic/AffRest3.png,,,,,,,,,,,,,,,,,,,,,,,,,0,2,2,2,0,28,28,10,,,,1083.8471699999936,None,1082.6646707000036,1083.864078899991,a,1,0.4446433999983128,俊秀,k,1,0.42041610000887886,shj,m,21,2024_Apr_14_1723,mian,2021.2.3,59.940574908136234,
,,,,,,1,0,pic/flanker6.png,pic/flanker4.png,s,l,pic/AffRest3.png,,,,,,,,,,,,,,,,,,,,,,,,,0,2,2,2,0,29,29,77,,,,1086.581493899983,None,1085.3980800999852,1086.599128300004,s,1,0.7830281000060495,悲观,l,1,0.5701691000140272,shj,m,21,2024_Apr_14_1723,mian,2021.2.3,59.940574908136234,
,,,,,,0,1,pic/flanker5.png,pic/flanker1.png,s,k,pic/AffRest3.png,,,,,,,,,,,,,,,,,,,,,,,,,0,2,2,2,0,30,30,72,,,,1089.9843785999983,None,1088.7881212999928,1090.0010416999867,s,1,0.6172915000061039,秀丽,k,1,0.5039058000256773,shj,m,21,2024_Apr_14_1723,mian,2021.2.3,59.940574908136234,
,,,,,,0,1,pic/flanker6.png,pic/flanker2.png,a,k,pic/AffRest3.png,,,,,,,,,,,,,,,,,,,,,,,,,0,2,2,2,0,31,31,58,,,,1093.035759499995,None,1091.8509019000048,1093.0517258000036,a,1,0.3588292000058573,振作,k,1,0.614786299993284,shj,m,21,2024_Apr_14_1723,mian,2021.2.3,59.940574908136234,
,,,,,,1,0,pic/flanker6.png,pic/flanker4.png,s,l,pic/AffRest3.png,,,,,,,,,,,,,,,,,,,,,,,,,0,2,2,2,0,32,32,13,,,,1095.9702787999995,None,1094.7862243999843,1095.9872071999998,s,1,0.5376035000081174,闷热,l,1,0.5987112000002526,shj,m,21,2024_Apr_14_1723,mian,2021.2.3,59.940574908136234,
,,,,,,1,1,pic/flanker6.png,pic/flanker4.png,s,k,pic/AffRest3.png,,,,,,,,,,,,,,,,,,,,,,,,,0,2,2,2,0,33,33,38,,,,1099.105210300011,None,1097.9213952999853,1099.1218276,s,1,0.5226465000014286,公平,k,1,0.43842980000772513,shj,m,21,2024_Apr_14_1723,mian,2021.2.3,59.940574908136234,
,,,,,,1,0,pic/flanker6.png,pic/flanker4.png,s,l,pic/AffRest3.png,,,,,,,,,,,,,,,,,,,,,,,,,0,2,2,2,0,34,34,5,,,,1101.957174100011,None,1100.7723845999863,1101.973654100002,s,1,0.5116960000013933,嘲笑,l,1,0.6476467000029515,shj,m,21,2024_Apr_14_1723,mian,2021.2.3,59.940574908136234,
,,,,,,1,1,pic/flanker6.png,pic/flanker4.png,s,k,pic/AffRest3.png,,,,,,,,,,,,,,,,,,,,,,,,,0,2,2,2,0,35,35,22,,,,1104.991583199997,None,1103.8075555000105,1105.0083974000008,s,1,0.4970988999994006,吉祥,k,1,0.5586613999912515,shj,m,21,2024_Apr_14_1723,mian,2021.2.3,59.940574908136234,
,,,,,,1,1,pic/flanker5.png,pic/flanker3.png,a,k,pic/AffRest3.png,,,,,,,,,,,,,,,,,,,,,,,,,0,2,2,2,0,36,36,4,,,,1108.0267243999988,None,1106.8423087999981,1108.0433745000046,a,1,0.6186332000070252,正直,k,1,0.6816336999763735,shj,m,21,2024_Apr_14_1723,mian,2021.2.3,59.940574908136234,
,,,,,,1,1,pic/flanker5.png,pic/flanker3.png,a,k,pic/AffRest3.png,,,,,,,,,,,,,,,,,,,,,,,,,0,2,2,2,0,37,37,76,,,,1111.3783246999956,None,1110.194309899991,1111.395030499989,a,1,0.48272880000877194,豪放,k,1,0.6752164000063203,shj,m,21,2024_Apr_14_1723,mian,2021.2.3,59.940574908136234,
,,,,,,0,0,pic/flanker6.png,pic/flanker2.png,a,l,pic/AffRest3.png,,,,,,,,,,,,,,,,,,,,,,,,,0,2,2,2,0,38,38,17,,,,1114.3628233000054,None,1113.1788670000096,1114.379871299985,a,1,1.0245406000176445,焦躁,l,1,0.9630348000209779,shj,m,21,2024_Apr_14_1723,mian,2021.2.3,59.940574908136234,
,,,,,,0,0,pic/flanker6.png,pic/flanker2.png,a,l,pic/AffRest3.png,,,,,,,,,,,,,,,,,,,,,,,,,0,2,2,2,0,39,39,57,,,,1118.2151332999929,None,1117.0308891999885,1118.2317949999997,a,1,0.36105080001289025,冷笑,l,1,0.5930372000148054,shj,m,21,2024_Apr_14_1723,mian,2021.2.3,59.940574908136234,
,,,,,,1,0,pic/flanker5.png,pic/flanker3.png,a,l,pic/AffRest3.png,,,,,,,,,,,,,,,,,,,,,,,,,0,2,2,2,0,40,40,47,,,,1121.1831032999908,None,1119.999049200007,1121.1997978999862,a,1,0.7872997000231408,厌恶,l,1,0.6456232000200544,shj,m,21,2024_Apr_14_1723,mian,2021.2.3,59.940574908136234,
,,,,,,0,0,pic/flanker5.png,pic/flanker1.png,s,l,pic/AffRest3.png,,,,,,,,,,,,,,,,,,,,,,,,,0,2,2,2,0,41,41,11,,,,1124.534876699996,None,1123.3509141000104,1124.550631399994,s,1,0.5423084999783896,孤单,l,1,0.9958255999954417,shj,m,21,2024_Apr_14_1723,mian,2021.2.3,59.940574908136234,
,,,,,,0,0,pic/flanker5.png,pic/flanker1.png,s,l,pic/AffRest3.png,,,,,,,,,,,,,,,,,,,,,,,,,0,2,2,2,0,42,42,75,,,,1127.986818400008,None,1126.8020532999944,1128.003052199987,s,1,0.904650100012077,假冒,l,1,0.5931161000044085,shj,m,21,2024_Apr_14_1723,mian,2021.2.3,59.940574908136234,
,,,,,,0,0,pic/flanker5.png,pic/flanker1.png,s,l,pic/AffRest3.png,,,,,,,,,,,,,,,,,,,,,,,,,0,2,2,2,0,43,43,67,,,,1131.4054302999866,None,1130.2209869000071,1131.421726600005,s,1,0.9307732000015676,穷苦,l,1,0.686539599992102,shj,m,21,2024_Apr_14_1723,mian,2021.2.3,59.940574908136234,
,,,,,,1,1,pic/flanker5.png,pic/flanker3.png,a,k,pic/AffRest3.png,,,,,,,,,,,,,,,,,,,,,,,,,0,2,2,2,0,44,44,12,,,,1134.9069368999917,None,1133.7224218999909,1134.923666399991,a,1,0.5682079000107478,圣洁,k,1,0.6189492999983486,shj,m,21,2024_Apr_14_1723,mian,2021.2.3,59.940574908136234,
,,,,,,1,1,pic/flanker6.png,pic/flanker4.png,s,k,pic/AffRest3.png,,,,,,,,,,,,,,,,,,,,,,,,,0,2,2,2,0,45,45,46,,,,1138.0084882999945,None,1136.8239624999987,1138.0252601999964,s,1,0.7236401000118349,廉洁,k,1,1.816695699992124,shj,m,21,2024_Apr_14_1723,mian,2021.2.3,59.940574908136234,
,,,,,,1,1,pic/flanker6.png,pic/flanker4.png,s,k,pic/AffRest3.png,,,,,,,,,,,,,,,,,,,,,,,,,0,2,2,2,0,46,46,70,,,,1142.5769509999955,None,1141.3933727999975,1142.594123399991,s,1,0.6781630000041332,前进,k,1,0.7473536999896169,shj,m,21,2024_Apr_14_1723,mian,2021.2.3,59.940574908136234,
,,,,,,1,1,pic/flanker5.png,pic/flanker3.png,a,k,pic/AffRest3.png,,,,,,,,,,,,,,,,,,,,,,,,,0,2,2,2,0,47,47,60,,,,1145.9807176000031,None,1144.7954551999865,1145.9961214000068,a,1,0.639055699983146,奉献,k,1,0.48693320000893436,shj,m,21,2024_Apr_14_1723,mian,2021.2.3,59.940574908136234,
,,,,,,0,0,pic/flanker5.png,pic/flanker1.png,s,l,pic/AffRest3.png,,,,,,,,,,,,,,,,,,,,,,,,,0,2,2,2,0,48,48,19,,,,1148.9806347999838,None,1147.796514799993,1148.9974318000022,s,1,0.3499970000120811,郁闷,l,1,0.891095500002848,shj,m,21,2024_Apr_14_1723,mian,2021.2.3,59.940574908136234,
,,,,,,1,0,pic/flanker5.png,pic/flanker3.png,a,l,pic/AffRest3.png,,,,,,,,,,,,,,,,,,,,,,,,,0,2,2,2,0,49,49,63,,,,1152.2488292999915,None,1151.0653265999863,1152.2652138999838,a,1,0.501104299997678,缺乏,l,1,1.7219972999882884,shj,m,21,2024_Apr_14_1723,mian,2021.2.3,59.940574908136234,
,,,,,,0,0,pic/flanker6.png,pic/flanker2.png,a,l,pic/AffRest3.png,,,,,,,,,,,,,,,,,,,,,,,,,0,2,2,2,0,50,50,73,,,,1156.5009972999978,None,1155.3175530000008,1156.5180548999924,a,1,0.3280795000027865,丢失,l,1,1.182992700021714,shj,m,21,2024_Apr_14_1723,mian,2021.2.3,59.940574908136234,
,,,,,,0,0,pic/flanker5.png,pic/flanker1.png,s,l,pic/AffRest3.png,,,,,,,,,,,,,,,,,,,,,,,,,0,2,2,2,0,51,51,35,,,,1160.0363646000042,None,1158.852377000003,1160.0534221999987,s,1,0.43669890001183376,撒谎,l,1,0.5655498999985866,shj,m,21,2024_Apr_14_1723,mian,2021.2.3,59.940574908136234,
,,,,,,1,0,pic/flanker5.png,pic/flanker3.png,a,l,pic/AffRest3.png,,,,,,,,,,,,,,,,,,,,,,,,,0,2,2,2,0,52,52,39,,,,1163.0211313999898,None,1161.8365662999859,1163.0378238999983,a,1,0.7353014000109397,落后,l,1,1.3680394999973942,shj,m,21,2024_Apr_14_1723,mian,2021.2.3,59.940574908136234,
,,,,,,0,0,pic/flanker5.png,pic/flanker1.png,s,l,pic/AffRest3.png,,,,,,,,,,,,,,,,,,,,,,,,,0,2,2,2,0,53,53,3,,,,1167.0567589999991,None,1165.8742901000078,1167.073098199995,s,1,0.6165737999835983,别扭,l,1,0.6390996999980416,shj,m,21,2024_Apr_14_1723,mian,2021.2.3,59.940574908136234,
,,,,,,0,0,pic/flanker5.png,pic/flanker1.png,s,l,pic/AffRest3.png,,,,,,,,,,,,,,,,,,,,,,,,,0,2,2,2,0,54,54,59,,,,1170.1907480999944,None,1169.006880800007,1170.2079149000056,s,1,0.3305469000188168,浪费,l,1,0.5842214000003878,shj,m,21,2024_Apr_14_1723,mian,2021.2.3,59.940574908136234,
,,,,,,0,1,pic/flanker5.png,pic/flanker1.png,s,k,pic/AffRest3.png,,,,,,,,,,,,,,,,,,,,,,,,,0,2,2,2,0,55,55,48,,,,1173.1090215999866,None,1171.9252785999852,1173.1267940999824,s,1,0.3231335000018589,清秀,k,1,0.6252764000091702,shj,m,21,2024_Apr_14_1723,mian,2021.2.3,59.940574908136234,
,,,,,,0,0,pic/flanker6.png,pic/flanker2.png,a,l,pic/AffRest3.png,,,,,,,,,,,,,,,,,,,,,,,,,0,2,2,2,0,56,56,41,,,,1175.8780927000043,None,1174.6932974999945,1175.8949762999837,a,1,0.2830215000140015,伤心,l,1,0.6983656999946106,shj,m,21,2024_Apr_14_1723,mian,2021.2.3,59.940574908136234,
,,,,,,0,0,pic/flanker6.png,pic/flanker2.png,a,l,pic/AffRest3.png,,,,,,,,,,,,,,,,,,,,,,,,,0,2,2,2,0,57,57,65,,,,1178.87831130001,None,1177.6948898999835,1178.895005600003,a,1,0.34038999999756925,逃避,k,0,0.5120626999996603,shj,m,21,2024_Apr_14_1723,mian,2021.2.3,59.940574908136234,
,,,,,,0,1,pic/flanker6.png,pic/flanker2.png,a,k,pic/AffRest3.png,,,,,,,,,,,,,,,,,,,,,,,,,0,2,2,2,0,58,58,74,,,,1181.7631320999935,None,1180.5793572000111,1181.779804299993,a,1,0.34116630000062287,精致,k,1,0.7643444999994244,shj,m,21,2024_Apr_14_1723,mian,2021.2.3,59.940574908136234,
,,,,,,1,0,pic/flanker5.png,pic/flanker3.png,a,l,pic/AffRest3.png,,,,,,,,,,,,,,,,,,,,,,,,,0,2,2,2,0,59,59,23,,,,1184.732831500005,None,1183.5474409000017,1184.7488799999992,a,1,0.47812029998749495,怀疑,l,1,0.4525357999955304,shj,m,21,2024_Apr_14_1723,mian,2021.2.3,59.940574908136234,
,,,,,,0,1,pic/flanker5.png,pic/flanker1.png,s,k,pic/AffRest3.png,,,,,,,,,,,,,,,,,,,,,,,,,0,2,2,2,0,60,60,16,,,,1187.5837544999958,None,1186.3995724999986,1187.6004366999841,s,1,0.5164791999850422,富丽,k,1,1.1433775999757927,shj,m,21,2024_Apr_14_1723,mian,2021.2.3,59.940574908136234,
,,,,,,0,1,pic/flanker5.png,pic/flanker1.png,s,k,pic/AffRest3.png,,,,,,,,,,,,,,,,,,,,,,,,,0,2,2,2,0,61,61,40,,,,1191.2189806000097,None,1190.0340396999964,1191.235417399992,s,1,0.38543149997713044,顽强,k,1,0.7276065000041854,shj,m,21,2024_Apr_14_1723,mian,2021.2.3,59.940574908136234,
,,,,,,0,0,pic/flanker6.png,pic/flanker2.png,a,l,pic/AffRest3.png,,,,,,,,,,,,,,,,,,,,,,,,,0,2,2,2,0,62,62,1,,,,1194.2537242000108,None,1193.0696931999992,1194.2702975999855,a,1,0.3568240999884438,慌忙,l,1,0.47437780001200736,shj,m,21,2024_Apr_14_1723,mian,2021.2.3,59.940574908136234,
,,,,,,1,0,pic/flanker6.png,pic/flanker4.png,s,l,pic/AffRest3.png,,,,,,,,,,,,,,,,,,,,,,,,,0,2,2,2,0,63,63,29,,,,1197.0545823999855,None,1195.8706100999843,1197.0720899000007,s,1,0.6509959000104573,黑暗,l,1,1.2259045999962837,shj,m,21,2024_Apr_14_1723,mian,2021.2.3,59.940574908136234,
,,,,,,0,1,pic/flanker6.png,pic/flanker2.png,a,k,pic/AffRest3.png,,,,,,,,,,,,,,,,,,,,,,,,,0,2,2,2,0,64,64,2,,,,1200.8569328000012,None,1199.6729561999964,1200.8735407000058,a,1,0.3475613000045996,敬佩,k,1,0.5160083000082523,shj,m,21,2024_Apr_14_1723,mian,2021.2.3,59.940574908136234,
,,,,,,1,1,pic/flanker6.png,pic/flanker4.png,s,k,pic/AffRest3.png,,,,,,,,,,,,,,,,,,,,,,,,,0,2,2,2,0,65,65,54,,,,1203.5421222999867,None,1202.3573636999936,1203.5586226999876,s,1,0.4621975000191014,卓越,k,1,0.4746193999890238,shj,m,21,2024_Apr_14_1723,mian,2021.2.3,59.940574908136234,
,,,,,,1,0,pic/flanker5.png,pic/flanker3.png,a,l,pic/AffRest3.png,,,,,,,,,,,,,,,,,,,,,,,,,0,2,2,2,0,66,66,79,,,,1206.3593698999903,None,1205.1754211999942,1206.3765624999942,a,1,0.4821141999855172,轻率,k,0,0.4934193000080995,shj,m,21,2024_Apr_14_1723,mian,2021.2.3,59.940574908136234,
,,,,,,0,1,pic/flanker6.png,pic/flanker2.png,a,k,pic/AffRest3.png,,,,,,,,,,,,,,,,,,,,,,,,,0,2,2,2,0,67,67,18,,,,1209.210382899997,None,1208.027319099987,1209.2270476999984,a,1,0.3778417999856174,享受,k,1,0.6117255999997724,shj,m,21,2024_Apr_14_1723,mian,2021.2.3,59.940574908136234,
,,,,,,0,1,pic/flanker6.png,pic/flanker2.png,a,k,pic/AffRest3.png,,,,,,,,,,,,,,,,,,,,,,,,,0,2,2,2,0,68,68,26,,,,1212.1969787999988,None,1211.0125789000012,1212.213322399999,a,1,0.37476030000834726,赞成,k,1,0.47929439999279566,shj,m,21,2024_Apr_14_1723,mian,2021.2.3,59.940574908136234,
,,,,,,0,1,pic/flanker5.png,pic/flanker1.png,s,k,pic/AffRest3.png,,,,,,,,,,,,,,,,,,,,,,,,,0,2,2,2,0,69,69,56,,,,1214.864147699991,None,1213.6797025999986,1214.880905099999,s,1,0.32458559999940917,典雅,k,1,0.5019223000272177,shj,m,21,2024_Apr_14_1723,mian,2021.2.3,59.940574908136234,
