target,反应类型,条件,truetarget,CorAns,Position,congruency,AffValue,flankerPic,targetPic,corAnsF,corAnsA,RestPic,returnPractice.thisRepN,returnPractice.thisTrialN,returnPractice.thisN,returnPractice.thisIndex,pracNum.thisRepN,pracNum.thisTrialN,pracNum.thisN,pracNum.thisIndex,NumBlock1.thisRepN,NumBlock1.thisTrialN,NumBlock1.thisN,NumBlock1.thisIndex,NumBlock2.thisRepN,NumBlock2.thisTrialN,NumBlock2.thisN,NumBlock2.thisIndex,returnPrac.thisRepN,returnPrac.thisTrialN,returnPrac.thisN,returnPrac.thisIndex,PracAff.thisRepN,PracAff.thisTrialN,PracAff.thisN,PracAff.thisIndex,AffBlocks.thisRepN,AffBlocks.thisTrialN,AffBlocks.thisN,AffBlocks.thisIndex,AffBlock1.thisRepN,AffBlock1.thisTrialN,AffBlock1.thisN,AffBlock1.thisIndex,respNum2word.keys,respNum2word.corr,respNum2word.rt,text.started,text.stopped,blank.started,blank.stopped,respFlanker.keys,respFlanker.corr,thisWord,respAffWord.keys,respAffWord.corr,respAffWord.rt,respFlanker.rt,姓名,性别,年龄（周岁）,date,expName,psychopyVersion,frameRate,
2A,1,1,A,a,"[0.2, 0.2]",,,,,,,,0,0,0,0,0,0,0,0,,,,,,,,,,,,,,,,,,,,,,,,,a,1,2.298540100000082,,,,,,,,,,,,sxl,f,21,2024_Apr_15_1034,mian,2021.2.3,59.873212485240074,
A9,1,2,A,a,"[-0.2, 0.2]",,,,,,,,0,0,0,0,0,1,1,1,,,,,,,,,,,,,,,,,,,,,,,,,a,1,1.091323199999806,,,,,,,,,,,,sxl,f,21,2024_Apr_15_1034,mian,2021.2.3,59.873212485240074,
7e,2,1,7.0,a,"[-0.2, -0.2]",,,,,,,,0,0,0,0,0,2,2,2,,,,,,,,,,,,,,,,,,,,,,,,,a,1,1.697436999999809,,,,,,,,,,,,sxl,f,21,2024_Apr_15_1034,mian,2021.2.3,59.873212485240074,
9H,2,2,9.0,a,"[0.2, -0.2]",,,,,,,,0,0,0,0,0,3,3,3,,,,,,,,,,,,,,,,,,,,,,,,,a,1,1.1281081000001905,,,,,,,,,,,,sxl,f,21,2024_Apr_15_1034,mian,2021.2.3,59.873212485240074,
h4,1,1,h,l,"[0.2, 0.2]",,,,,,,,0,0,0,0,0,4,4,4,,,,,,,,,,,,,,,,,,,,,,,,,l,1,1.7603386999999202,,,,,,,,,,,,sxl,f,21,2024_Apr_15_1034,mian,2021.2.3,59.873212485240074,
4H,1,2,H,a,"[-0.2, 0.2]",,,,,,,,0,0,0,0,0,5,5,5,,,,,,,,,,,,,,,,,,,,,,,,,a,1,0.8126592999997229,,,,,,,,,,,,sxl,f,21,2024_Apr_15_1034,mian,2021.2.3,59.873212485240074,
F8,2,1,8.0,l,"[-0.2, -0.2]",,,,,,,,0,0,0,0,0,6,6,6,,,,,,,,,,,,,,,,,,,,,,,,,l,1,0.7806814000000486,,,,,,,,,,,,sxl,f,21,2024_Apr_15_1034,mian,2021.2.3,59.873212485240074,
h7,2,2,7.0,a,"[0.2, -0.2]",,,,,,,,0,0,0,0,0,7,7,7,,,,,,,,,,,,,,,,,,,,,,,,,a,1,1.2878067999999985,,,,,,,,,,,,sxl,f,21,2024_Apr_15_1034,mian,2021.2.3,59.873212485240074,
5e,1,1,e,l,"[0.2, 0.2]",,,,,,,,0,0,0,0,0,8,8,8,,,,,,,,,,,,,,,,,,,,,,,,,l,1,1.6897108000002845,,,,,,,,,,,,sxl,f,21,2024_Apr_15_1034,mian,2021.2.3,59.873212485240074,
e8,1,2,e,l,"[-0.2, 0.2]",,,,,,,,0,0,0,0,0,9,9,9,,,,,,,,,,,,,,,,,,,,,,,,,l,1,0.7805296999999882,,,,,,,,,,,,sxl,f,21,2024_Apr_15_1034,mian,2021.2.3,59.873212485240074,
4E,2,1,4.0,l,"[-0.2, -0.2]",,,,,,,,0,0,0,0,0,10,10,10,,,,,,,,,,,,,,,,,,,,,,,,,l,1,1.0961208000003353,,,,,,,,,,,,sxl,f,21,2024_Apr_15_1034,mian,2021.2.3,59.873212485240074,
5H,2,2,5.0,a,"[0.2, -0.2]",,,,,,,,0,0,0,0,0,11,11,11,,,,,,,,,,,,,,,,,,,,,,,,,a,1,1.090465199999926,,,,,,,,,,,,sxl,f,21,2024_Apr_15_1034,mian,2021.2.3,59.873212485240074,
9E,1,1,E,a,"[0.2, 0.2]",,,,,,,,0,0,0,0,0,12,12,12,,,,,,,,,,,,,,,,,,,,,,,,,a,1,1.4180907999998453,,,,,,,,,,,,sxl,f,21,2024_Apr_15_1034,mian,2021.2.3,59.873212485240074,
h9,1,2,h,l,"[-0.2, 0.2]",,,,,,,,0,0,0,0,0,13,13,13,,,,,,,,,,,,,,,,,,,,,,,,,l,1,0.8201380000000427,,,,,,,,,,,,sxl,f,21,2024_Apr_15_1034,mian,2021.2.3,59.873212485240074,
2a,2,1,2.0,l,"[-0.2, -0.2]",,,,,,,,0,0,0,0,0,14,14,14,,,,,,,,,,,,,,,,,,,,,,,,,l,1,0.890114000000267,,,,,,,,,,,,sxl,f,21,2024_Apr_15_1034,mian,2021.2.3,59.873212485240074,
e5,2,2,5.0,a,"[0.2, -0.2]",,,,,,,,0,0,0,0,0,15,15,15,,,,,,,,,,,,,,,,,,,,,,,,,a,1,0.9641841999996359,,,,,,,,,,,,sxl,f,21,2024_Apr_15_1034,mian,2021.2.3,59.873212485240074,
A5,1,1,A,a,"[0.2, 0.2]",,,,,,,,0,0,0,0,0,16,16,16,,,,,,,,,,,,,,,,,,,,,,,,,a,1,1.2170638000002327,,,,,,,,,,,,sxl,f,21,2024_Apr_15_1034,mian,2021.2.3,59.873212485240074,
a6,1,2,a,l,"[-0.2, 0.2]",,,,,,,,0,0,0,0,0,17,17,17,,,,,,,,,,,,,,,,,,,,,,,,,l,1,0.8190331000000697,,,,,,,,,,,,sxl,f,21,2024_Apr_15_1034,mian,2021.2.3,59.873212485240074,
2F,2,1,2.0,l,"[-0.2, -0.2]",,,,,,,,0,0,0,0,0,18,18,18,,,,,,,,,,,,,,,,,,,,,,,,,l,1,2.017310500000349,,,,,,,,,,,,sxl,f,21,2024_Apr_15_1034,mian,2021.2.3,59.873212485240074,
e4,2,2,4.0,l,"[0.2, -0.2]",,,,,,,,0,0,0,0,0,19,19,19,,,,,,,,,,,,,,,,,,,,,,,,,l,1,0.972212799999852,,,,,,,,,,,,sxl,f,21,2024_Apr_15_1034,mian,2021.2.3,59.873212485240074,
,,,,,,,,,,,,,0,0,0,0,,,,,,,,,,,,,,,,,,,,,,,,,,,,,,,,,,,,,,,,,,,sxl,f,21,2024_Apr_15_1034,mian,2021.2.3,59.873212485240074,
7h,1,1,h,l,"[0.2, 0.2]",,,,,,,,,,,,,,,,0,0,0,0,,,,,,,,,,,,,,,,,,,,,l,1,1.0281604000001607,,,,,,,,,,,,sxl,f,21,2024_Apr_15_1034,mian,2021.2.3,59.873212485240074,
8F,1,2,F,a,"[-0.2, 0.2]",,,,,,,,,,,,,,,,0,1,1,1,,,,,,,,,,,,,,,,,,,,,a,1,0.958915899999738,,,,,,,,,,,,sxl,f,21,2024_Apr_15_1034,mian,2021.2.3,59.873212485240074,
8h,2,1,8.0,l,"[-0.2, -0.2]",,,,,,,,,,,,,,,,0,2,2,2,,,,,,,,,,,,,,,,,,,,,l,1,1.2197536999997283,,,,,,,,,,,,sxl,f,21,2024_Apr_15_1034,mian,2021.2.3,59.873212485240074,
a2,2,2,2.0,l,"[0.2, -0.2]",,,,,,,,,,,,,,,,0,3,3,3,,,,,,,,,,,,,,,,,,,,,l,1,0.9120904000001246,,,,,,,,,,,,sxl,f,21,2024_Apr_15_1034,mian,2021.2.3,59.873212485240074,
8f,1,1,f,l,"[0.2, 0.2]",,,,,,,,,,,,,,,,0,4,4,4,,,,,,,,,,,,,,,,,,,,,l,1,1.0212694000001648,,,,,,,,,,,,sxl,f,21,2024_Apr_15_1034,mian,2021.2.3,59.873212485240074,
6a,1,2,a,l,"[-0.2, 0.2]",,,,,,,,,,,,,,,,0,5,5,5,,,,,,,,,,,,,,,,,,,,,l,1,0.6361456999998154,,,,,,,,,,,,sxl,f,21,2024_Apr_15_1034,mian,2021.2.3,59.873212485240074,
h6,2,1,6.0,l,"[-0.2, -0.2]",,,,,,,,,,,,,,,,0,6,6,6,,,,,,,,,,,,,,,,,,,,,l,1,1.6189209000003757,,,,,,,,,,,,sxl,f,21,2024_Apr_15_1034,mian,2021.2.3,59.873212485240074,
f9,2,2,9.0,a,"[0.2, -0.2]",,,,,,,,,,,,,,,,0,7,7,7,,,,,,,,,,,,,,,,,,,,,a,1,0.7534406999998282,,,,,,,,,,,,sxl,f,21,2024_Apr_15_1034,mian,2021.2.3,59.873212485240074,
E4,1,1,E,a,"[0.2, 0.2]",,,,,,,,,,,,,,,,0,8,8,8,,,,,,,,,,,,,,,,,,,,,a,1,1.115021699999943,,,,,,,,,,,,sxl,f,21,2024_Apr_15_1034,mian,2021.2.3,59.873212485240074,
6e,1,2,e,l,"[-0.2, 0.2]",,,,,,,,,,,,,,,,0,9,9,9,,,,,,,,,,,,,,,,,,,,,l,1,0.7123151000000689,,,,,,,,,,,,sxl,f,21,2024_Apr_15_1034,mian,2021.2.3,59.873212485240074,
5G,2,1,5.0,a,"[-0.2, -0.2]",,,,,,,,,,,,,,,,0,10,10,10,,,,,,,,,,,,,,,,,,,,,a,1,1.513158199999907,,,,,,,,,,,,sxl,f,21,2024_Apr_15_1034,mian,2021.2.3,59.873212485240074,
h3,2,2,3.0,a,"[0.2, -0.2]",,,,,,,,,,,,,,,,0,11,11,11,,,,,,,,,,,,,,,,,,,,,a,1,0.7344999000001735,,,,,,,,,,,,sxl,f,21,2024_Apr_15_1034,mian,2021.2.3,59.873212485240074,
9e,1,1,e,l,"[0.2, 0.2]",,,,,,,,,,,,,,,,0,12,12,12,,,,,,,,,,,,,,,,,,,,,l,1,1.4574327000000267,,,,,,,,,,,,sxl,f,21,2024_Apr_15_1034,mian,2021.2.3,59.873212485240074,
a8,1,2,a,l,"[-0.2, 0.2]",,,,,,,,,,,,,,,,0,13,13,13,,,,,,,,,,,,,,,,,,,,,l,1,0.723421000000144,,,,,,,,,,,,sxl,f,21,2024_Apr_15_1034,mian,2021.2.3,59.873212485240074,
e8,2,1,8.0,l,"[-0.2, -0.2]",,,,,,,,,,,,,,,,0,14,14,14,,,,,,,,,,,,,,,,,,,,,l,1,0.8720459999999548,,,,,,,,,,,,sxl,f,21,2024_Apr_15_1034,mian,2021.2.3,59.873212485240074,
3f,2,2,3.0,a,"[0.2, -0.2]",,,,,,,,,,,,,,,,0,15,15,15,,,,,,,,,,,,,,,,,,,,,a,1,1.0061214999996082,,,,,,,,,,,,sxl,f,21,2024_Apr_15_1034,mian,2021.2.3,59.873212485240074,
7f,1,1,f,l,"[0.2, 0.2]",,,,,,,,,,,,,,,,0,16,16,16,,,,,,,,,,,,,,,,,,,,,l,1,1.3759995999998864,,,,,,,,,,,,sxl,f,21,2024_Apr_15_1034,mian,2021.2.3,59.873212485240074,
a7,1,2,a,l,"[-0.2, 0.2]",,,,,,,,,,,,,,,,0,17,17,17,,,,,,,,,,,,,,,,,,,,,l,1,1.2705584000000272,,,,,,,,,,,,sxl,f,21,2024_Apr_15_1034,mian,2021.2.3,59.873212485240074,
5A,2,1,5.0,a,"[-0.2, -0.2]",,,,,,,,,,,,,,,,0,18,18,18,,,,,,,,,,,,,,,,,,,,,a,1,1.5537382000002253,,,,,,,,,,,,sxl,f,21,2024_Apr_15_1034,mian,2021.2.3,59.873212485240074,
8g,2,2,8.0,l,"[0.2, -0.2]",,,,,,,,,,,,,,,,0,19,19,19,,,,,,,,,,,,,,,,,,,,,l,1,1.0206383999998252,,,,,,,,,,,,sxl,f,21,2024_Apr_15_1034,mian,2021.2.3,59.873212485240074,
9a,1,1,a,l,"[0.2, 0.2]",,,,,,,,,,,,,,,,0,20,20,20,,,,,,,,,,,,,,,,,,,,,l,1,1.138309400000253,,,,,,,,,,,,sxl,f,21,2024_Apr_15_1034,mian,2021.2.3,59.873212485240074,
f7,1,2,f,l,"[-0.2, 0.2]",,,,,,,,,,,,,,,,0,21,21,21,,,,,,,,,,,,,,,,,,,,,l,1,0.8644434000002548,,,,,,,,,,,,sxl,f,21,2024_Apr_15_1034,mian,2021.2.3,59.873212485240074,
g9,2,1,9.0,a,"[-0.2, -0.2]",,,,,,,,,,,,,,,,0,22,22,22,,,,,,,,,,,,,,,,,,,,,a,1,0.949953800000003,,,,,,,,,,,,sxl,f,21,2024_Apr_15_1034,mian,2021.2.3,59.873212485240074,
3h,2,2,3.0,a,"[0.2, -0.2]",,,,,,,,,,,,,,,,0,23,23,23,,,,,,,,,,,,,,,,,,,,,a,1,0.7551151999996364,,,,,,,,,,,,sxl,f,21,2024_Apr_15_1034,mian,2021.2.3,59.873212485240074,
E6,1,1,E,a,"[0.2, 0.2]",,,,,,,,,,,,,,,,0,24,24,24,,,,,,,,,,,,,,,,,,,,,a,1,2.642217399999936,,,,,,,,,,,,sxl,f,21,2024_Apr_15_1034,mian,2021.2.3,59.873212485240074,
F6,1,2,F,a,"[-0.2, 0.2]",,,,,,,,,,,,,,,,0,25,25,25,,,,,,,,,,,,,,,,,,,,,a,1,0.7111793999997644,,,,,,,,,,,,sxl,f,21,2024_Apr_15_1034,mian,2021.2.3,59.873212485240074,
3A,2,1,3.0,a,"[-0.2, -0.2]",,,,,,,,,,,,,,,,0,26,26,26,,,,,,,,,,,,,,,,,,,,,a,1,1.110368500000277,,,,,,,,,,,,sxl,f,21,2024_Apr_15_1034,mian,2021.2.3,59.873212485240074,
8H,2,2,8.0,l,"[0.2, -0.2]",,,,,,,,,,,,,,,,0,27,27,27,,,,,,,,,,,,,,,,,,,,,l,1,0.7288260000000264,,,,,,,,,,,,sxl,f,21,2024_Apr_15_1034,mian,2021.2.3,59.873212485240074,
5a,1,1,a,l,"[0.2, 0.2]",,,,,,,,,,,,,,,,0,28,28,28,,,,,,,,,,,,,,,,,,,,,l,1,1.0883662999999615,,,,,,,,,,,,sxl,f,21,2024_Apr_15_1034,mian,2021.2.3,59.873212485240074,
2h,1,2,h,l,"[-0.2, 0.2]",,,,,,,,,,,,,,,,0,29,29,29,,,,,,,,,,,,,,,,,,,,,l,1,0.6508043999997426,,,,,,,,,,,,sxl,f,21,2024_Apr_15_1034,mian,2021.2.3,59.873212485240074,
e5,2,1,5.0,a,"[-0.2, -0.2]",,,,,,,,,,,,,,,,0,30,30,30,,,,,,,,,,,,,,,,,,,,,a,1,0.9507997999999134,,,,,,,,,,,,sxl,f,21,2024_Apr_15_1034,mian,2021.2.3,59.873212485240074,
a3,2,2,3.0,a,"[0.2, -0.2]",,,,,,,,,,,,,,,,0,31,31,31,,,,,,,,,,,,,,,,,,,,,a,1,0.5704083000000537,,,,,,,,,,,,sxl,f,21,2024_Apr_15_1034,mian,2021.2.3,59.873212485240074,
f3,1,1,f,l,"[0.2, 0.2]",,,,,,,,,,,,,,,,0,32,32,32,,,,,,,,,,,,,,,,,,,,,l,1,1.1008332999999766,,,,,,,,,,,,sxl,f,21,2024_Apr_15_1034,mian,2021.2.3,59.873212485240074,
2E,1,2,E,a,"[-0.2, 0.2]",,,,,,,,,,,,,,,,0,33,33,33,,,,,,,,,,,,,,,,,,,,,a,1,0.6166560000001482,,,,,,,,,,,,sxl,f,21,2024_Apr_15_1034,mian,2021.2.3,59.873212485240074,
2H,2,1,2.0,l,"[-0.2, -0.2]",,,,,,,,,,,,,,,,0,34,34,34,,,,,,,,,,,,,,,,,,,,,l,1,1.865797399999792,,,,,,,,,,,,sxl,f,21,2024_Apr_15_1034,mian,2021.2.3,59.873212485240074,
H8,2,2,8.0,l,"[0.2, -0.2]",,,,,,,,,,,,,,,,0,35,35,35,,,,,,,,,,,,,,,,,,,,,l,1,0.9388840000001437,,,,,,,,,,,,sxl,f,21,2024_Apr_15_1034,mian,2021.2.3,59.873212485240074,
9g,1,1,g,l,"[0.2, 0.2]",,,,,,,,,,,,,,,,0,36,36,36,,,,,,,,,,,,,,,,,,,,,l,1,1.200902600000063,,,,,,,,,,,,sxl,f,21,2024_Apr_15_1034,mian,2021.2.3,59.873212485240074,
5h,1,2,h,l,"[-0.2, 0.2]",,,,,,,,,,,,,,,,0,37,37,37,,,,,,,,,,,,,,,,,,,,,l,1,0.5238174999999501,,,,,,,,,,,,sxl,f,21,2024_Apr_15_1034,mian,2021.2.3,59.873212485240074,
e4,2,1,4.0,l,"[-0.2, -0.2]",,,,,,,,,,,,,,,,0,38,38,38,,,,,,,,,,,,,,,,,,,,,l,1,1.070443399999931,,,,,,,,,,,,sxl,f,21,2024_Apr_15_1034,mian,2021.2.3,59.873212485240074,
9h,2,2,9.0,a,"[0.2, -0.2]",,,,,,,,,,,,,,,,0,39,39,39,,,,,,,,,,,,,,,,,,,,,a,1,0.9805482000001575,,,,,,,,,,,,sxl,f,21,2024_Apr_15_1034,mian,2021.2.3,59.873212485240074,
G3,1,1,G,a,"[0.2, 0.2]",,,,,,,,,,,,,,,,0,40,40,40,,,,,,,,,,,,,,,,,,,,,a,1,1.225670899999841,,,,,,,,,,,,sxl,f,21,2024_Apr_15_1034,mian,2021.2.3,59.873212485240074,
9A,1,2,A,a,"[-0.2, 0.2]",,,,,,,,,,,,,,,,0,41,41,41,,,,,,,,,,,,,,,,,,,,,a,1,0.5692727999999079,,,,,,,,,,,,sxl,f,21,2024_Apr_15_1034,mian,2021.2.3,59.873212485240074,
H5,2,1,5.0,a,"[-0.2, -0.2]",,,,,,,,,,,,,,,,0,42,42,42,,,,,,,,,,,,,,,,,,,,,a,1,0.9293480000001182,,,,,,,,,,,,sxl,f,21,2024_Apr_15_1034,mian,2021.2.3,59.873212485240074,
4e,2,2,4.0,l,"[0.2, -0.2]",,,,,,,,,,,,,,,,0,43,43,43,,,,,,,,,,,,,,,,,,,,,l,1,0.7654338000002099,,,,,,,,,,,,sxl,f,21,2024_Apr_15_1034,mian,2021.2.3,59.873212485240074,
E2,1,1,E,a,"[0.2, 0.2]",,,,,,,,,,,,,,,,0,44,44,44,,,,,,,,,,,,,,,,,,,,,a,1,1.6734643999998298,,,,,,,,,,,,sxl,f,21,2024_Apr_15_1034,mian,2021.2.3,59.873212485240074,
A5,1,2,A,a,"[-0.2, 0.2]",,,,,,,,,,,,,,,,0,45,45,45,,,,,,,,,,,,,,,,,,,,,a,1,0.7577470999999605,,,,,,,,,,,,sxl,f,21,2024_Apr_15_1034,mian,2021.2.3,59.873212485240074,
2A,2,1,2.0,l,"[-0.2, -0.2]",,,,,,,,,,,,,,,,0,46,46,46,,,,,,,,,,,,,,,,,,,,,l,1,1.5573380999999245,,,,,,,,,,,,sxl,f,21,2024_Apr_15_1034,mian,2021.2.3,59.873212485240074,
6G,2,2,6.0,l,"[0.2, -0.2]",,,,,,,,,,,,,,,,0,47,47,47,,,,,,,,,,,,,,,,,,,,,l,1,0.8454385999998522,,,,,,,,,,,,sxl,f,21,2024_Apr_15_1034,mian,2021.2.3,59.873212485240074,
H3,1,1,H,a,"[0.2, 0.2]",,,,,,,,,,,,,,,,0,48,48,48,,,,,,,,,,,,,,,,,,,,,a,1,1.5218472999999904,,,,,,,,,,,,sxl,f,21,2024_Apr_15_1034,mian,2021.2.3,59.873212485240074,
H2,1,2,H,a,"[-0.2, 0.2]",,,,,,,,,,,,,,,,0,49,49,49,,,,,,,,,,,,,,,,,,,,,a,1,0.6055522000001474,,,,,,,,,,,,sxl,f,21,2024_Apr_15_1034,mian,2021.2.3,59.873212485240074,
e9,2,1,9.0,a,"[-0.2, -0.2]",,,,,,,,,,,,,,,,0,50,50,50,,,,,,,,,,,,,,,,,,,,,a,1,1.402985499999886,,,,,,,,,,,,sxl,f,21,2024_Apr_15_1034,mian,2021.2.3,59.873212485240074,
2G,2,2,2.0,l,"[0.2, -0.2]",,,,,,,,,,,,,,,,0,51,51,51,,,,,,,,,,,,,,,,,,,,,l,1,1.2396035000001575,,,,,,,,,,,,sxl,f,21,2024_Apr_15_1034,mian,2021.2.3,59.873212485240074,
4f,1,1,f,l,"[0.2, 0.2]",,,,,,,,,,,,,,,,0,52,52,52,,,,,,,,,,,,,,,,,,,,,l,1,1.1453653999997186,,,,,,,,,,,,sxl,f,21,2024_Apr_15_1034,mian,2021.2.3,59.873212485240074,
H6,1,2,H,a,"[-0.2, 0.2]",,,,,,,,,,,,,,,,0,53,53,53,,,,,,,,,,,,,,,,,,,,,a,1,0.7672351999999591,,,,,,,,,,,,sxl,f,21,2024_Apr_15_1034,mian,2021.2.3,59.873212485240074,
A4,2,1,4.0,l,"[-0.2, -0.2]",,,,,,,,,,,,,,,,0,54,54,54,,,,,,,,,,,,,,,,,,,,,l,1,2.631762600000002,,,,,,,,,,,,sxl,f,21,2024_Apr_15_1034,mian,2021.2.3,59.873212485240074,
3F,2,2,3.0,a,"[0.2, -0.2]",,,,,,,,,,,,,,,,0,55,55,55,,,,,,,,,,,,,,,,,,,,,a,1,0.7895633000002817,,,,,,,,,,,,sxl,f,21,2024_Apr_15_1034,mian,2021.2.3,59.873212485240074,
7e,1,1,e,l,"[0.2, 0.2]",,,,,,,,,,,,,,,,0,56,56,56,,,,,,,,,,,,,,,,,,,,,l,1,0.8752014000001509,,,,,,,,,,,,sxl,f,21,2024_Apr_15_1034,mian,2021.2.3,59.873212485240074,
F9,1,2,F,a,"[-0.2, 0.2]",,,,,,,,,,,,,,,,0,57,57,57,,,,,,,,,,,,,,,,,,,,,a,1,0.8459514999999556,,,,,,,,,,,,sxl,f,21,2024_Apr_15_1034,mian,2021.2.3,59.873212485240074,
e2,2,1,2.0,l,"[-0.2, -0.2]",,,,,,,,,,,,,,,,0,58,58,58,,,,,,,,,,,,,,,,,,,,,l,1,3.4800003999998808,,,,,,,,,,,,sxl,f,21,2024_Apr_15_1034,mian,2021.2.3,59.873212485240074,
5F,2,2,5.0,a,"[0.2, -0.2]",,,,,,,,,,,,,,,,0,59,59,59,,,,,,,,,,,,,,,,,,,,,a,1,0.7848435000000791,,,,,,,,,,,,sxl,f,21,2024_Apr_15_1034,mian,2021.2.3,59.873212485240074,
f6,1,1,f,l,"[0.2, 0.2]",,,,,,,,,,,,,,,,0,60,60,60,,,,,,,,,,,,,,,,,,,,,l,1,1.0044457000003604,,,,,,,,,,,,sxl,f,21,2024_Apr_15_1034,mian,2021.2.3,59.873212485240074,
7G,1,2,G,a,"[-0.2, 0.2]",,,,,,,,,,,,,,,,0,61,61,61,,,,,,,,,,,,,,,,,,,,,a,1,1.4256358999996337,,,,,,,,,,,,sxl,f,21,2024_Apr_15_1034,mian,2021.2.3,59.873212485240074,
e6,2,1,6.0,l,"[-0.2, -0.2]",,,,,,,,,,,,,,,,0,62,62,62,,,,,,,,,,,,,,,,,,,,,l,1,0.9341843000001973,,,,,,,,,,,,sxl,f,21,2024_Apr_15_1034,mian,2021.2.3,59.873212485240074,
3G,2,2,3.0,a,"[0.2, -0.2]",,,,,,,,,,,,,,,,0,63,63,63,,,,,,,,,,,,,,,,,,,,,a,1,1.2016505999999936,,,,,,,,,,,,sxl,f,21,2024_Apr_15_1034,mian,2021.2.3,59.873212485240074,
5E,1,1,E,a,"[0.2, 0.2]",,,,,,,,,,,,,,,,0,64,64,64,,,,,,,,,,,,,,,,,,,,,a,1,1.1562735000002249,,,,,,,,,,,,sxl,f,21,2024_Apr_15_1034,mian,2021.2.3,59.873212485240074,
A6,1,2,A,a,"[-0.2, 0.2]",,,,,,,,,,,,,,,,0,65,65,65,,,,,,,,,,,,,,,,,,,,,a,1,0.8385447999999087,,,,,,,,,,,,sxl,f,21,2024_Apr_15_1034,mian,2021.2.3,59.873212485240074,
E3,2,1,3.0,a,"[-0.2, -0.2]",,,,,,,,,,,,,,,,0,66,66,66,,,,,,,,,,,,,,,,,,,,,a,1,1.252513700000236,,,,,,,,,,,,sxl,f,21,2024_Apr_15_1034,mian,2021.2.3,59.873212485240074,
2f,2,2,2.0,l,"[0.2, -0.2]",,,,,,,,,,,,,,,,0,67,67,67,,,,,,,,,,,,,,,,,,,,,l,1,0.6748397999999725,,,,,,,,,,,,sxl,f,21,2024_Apr_15_1034,mian,2021.2.3,59.873212485240074,
g3,1,1,g,l,"[0.2, 0.2]",,,,,,,,,,,,,,,,0,68,68,68,,,,,,,,,,,,,,,,,,,,,l,1,0.7068371999998817,,,,,,,,,,,,sxl,f,21,2024_Apr_15_1034,mian,2021.2.3,59.873212485240074,
E8,1,2,E,a,"[-0.2, 0.2]",,,,,,,,,,,,,,,,0,69,69,69,,,,,,,,,,,,,,,,,,,,,a,1,0.9325002000000495,,,,,,,,,,,,sxl,f,21,2024_Apr_15_1034,mian,2021.2.3,59.873212485240074,
6g,2,1,6.0,l,"[-0.2, -0.2]",,,,,,,,,,,,,,,,0,70,70,70,,,,,,,,,,,,,,,,,,,,,l,1,1.6942794999999933,,,,,,,,,,,,sxl,f,21,2024_Apr_15_1034,mian,2021.2.3,59.873212485240074,
5H,2,2,5.0,a,"[0.2, -0.2]",,,,,,,,,,,,,,,,0,71,71,71,,,,,,,,,,,,,,,,,,,,,a,1,0.640481699999782,,,,,,,,,,,,sxl,f,21,2024_Apr_15_1034,mian,2021.2.3,59.873212485240074,
4A,1,1,A,a,"[0.2, 0.2]",,,,,,,,,,,,,,,,0,72,72,72,,,,,,,,,,,,,,,,,,,,,a,1,0.9068240999999944,,,,,,,,,,,,sxl,f,21,2024_Apr_15_1034,mian,2021.2.3,59.873212485240074,
7F,1,2,F,a,"[-0.2, 0.2]",,,,,,,,,,,,,,,,0,73,73,73,,,,,,,,,,,,,,,,,,,,,a,1,0.6812037999998211,,,,,,,,,,,,sxl,f,21,2024_Apr_15_1034,mian,2021.2.3,59.873212485240074,
6H,2,1,6.0,l,"[-0.2, -0.2]",,,,,,,,,,,,,,,,0,74,74,74,,,,,,,,,,,,,,,,,,,,,l,1,1.3947455999996237,,,,,,,,,,,,sxl,f,21,2024_Apr_15_1034,mian,2021.2.3,59.873212485240074,
3a,2,2,3.0,a,"[0.2, -0.2]",,,,,,,,,,,,,,,,0,75,75,75,,,,,,,,,,,,,,,,,,,,,a,1,2.0412356000001637,,,,,,,,,,,,sxl,f,21,2024_Apr_15_1034,mian,2021.2.3,59.873212485240074,
9F,1,1,F,a,"[0.2, 0.2]",,,,,,,,,,,,,,,,0,76,76,76,,,,,,,,,,,,,,,,,,,,,a,1,0.9386066000001847,,,,,,,,,,,,sxl,f,21,2024_Apr_15_1034,mian,2021.2.3,59.873212485240074,
G7,1,2,G,a,"[-0.2, 0.2]",,,,,,,,,,,,,,,,0,77,77,77,,,,,,,,,,,,,,,,,,,,,a,1,0.8595875000000888,,,,,,,,,,,,sxl,f,21,2024_Apr_15_1034,mian,2021.2.3,59.873212485240074,
a6,2,1,6.0,l,"[-0.2, -0.2]",,,,,,,,,,,,,,,,0,78,78,78,,,,,,,,,,,,,,,,,,,,,l,1,0.9443564999996852,,,,,,,,,,,,sxl,f,21,2024_Apr_15_1034,mian,2021.2.3,59.873212485240074,
4h,2,2,4.0,l,"[0.2, -0.2]",,,,,,,,,,,,,,,,0,79,79,79,,,,,,,,,,,,,,,,,,,,,l,1,0.8662130999996407,,,,,,,,,,,,sxl,f,21,2024_Apr_15_1034,mian,2021.2.3,59.873212485240074,
6A,1,1,A,a,"[0.2, 0.2]",,,,,,,,,,,,,,,,,,,,0,0,0,0,,,,,,,,,,,,,,,,,a,1,0.7060218000001441,,,,,,,,,,,,sxl,f,21,2024_Apr_15_1034,mian,2021.2.3,59.873212485240074,
4H,1,2,H,a,"[-0.2, 0.2]",,,,,,,,,,,,,,,,,,,,0,1,1,1,,,,,,,,,,,,,,,,,a,1,0.575535100000252,,,,,,,,,,,,sxl,f,21,2024_Apr_15_1034,mian,2021.2.3,59.873212485240074,
3H,2,1,3.0,a,"[-0.2, -0.2]",,,,,,,,,,,,,,,,,,,,0,2,2,2,,,,,,,,,,,,,,,,,a,1,0.735320799999954,,,,,,,,,,,,sxl,f,21,2024_Apr_15_1034,mian,2021.2.3,59.873212485240074,
a9,2,2,9.0,a,"[0.2, -0.2]",,,,,,,,,,,,,,,,,,,,0,3,3,3,,,,,,,,,,,,,,,,,a,1,0.8885994999996001,,,,,,,,,,,,sxl,f,21,2024_Apr_15_1034,mian,2021.2.3,59.873212485240074,
E7,1,1,E,a,"[0.2, 0.2]",,,,,,,,,,,,,,,,,,,,0,4,4,4,,,,,,,,,,,,,,,,,a,1,0.6600251999998363,,,,,,,,,,,,sxl,f,21,2024_Apr_15_1034,mian,2021.2.3,59.873212485240074,
6h,1,2,h,l,"[-0.2, 0.2]",,,,,,,,,,,,,,,,,,,,0,5,5,5,,,,,,,,,,,,,,,,,l,1,0.6462893000002623,,,,,,,,,,,,sxl,f,21,2024_Apr_15_1034,mian,2021.2.3,59.873212485240074,
8A,2,1,8.0,l,"[-0.2, -0.2]",,,,,,,,,,,,,,,,,,,,0,6,6,6,,,,,,,,,,,,,,,,,l,1,1.2606534000001375,,,,,,,,,,,,sxl,f,21,2024_Apr_15_1034,mian,2021.2.3,59.873212485240074,
f5,2,2,5.0,a,"[0.2, -0.2]",,,,,,,,,,,,,,,,,,,,0,7,7,7,,,,,,,,,,,,,,,,,a,1,0.7540691999997762,,,,,,,,,,,,sxl,f,21,2024_Apr_15_1034,mian,2021.2.3,59.873212485240074,
2a,1,1,a,l,"[0.2, 0.2]",,,,,,,,,,,,,,,,,,,,0,8,8,8,,,,,,,,,,,,,,,,,l,1,0.8513370000000577,,,,,,,,,,,,sxl,f,21,2024_Apr_15_1034,mian,2021.2.3,59.873212485240074,
F7,1,2,F,a,"[-0.2, 0.2]",,,,,,,,,,,,,,,,,,,,0,9,9,9,,,,,,,,,,,,,,,,,a,1,0.8006255999998757,,,,,,,,,,,,sxl,f,21,2024_Apr_15_1034,mian,2021.2.3,59.873212485240074,
h2,2,1,2.0,l,"[-0.2, -0.2]",,,,,,,,,,,,,,,,,,,,0,10,10,10,,,,,,,,,,,,,,,,,l,1,1.3484444000000622,,,,,,,,,,,,sxl,f,21,2024_Apr_15_1034,mian,2021.2.3,59.873212485240074,
F5,2,2,5.0,a,"[0.2, -0.2]",,,,,,,,,,,,,,,,,,,,0,11,11,11,,,,,,,,,,,,,,,,,a,1,0.7502908000001298,,,,,,,,,,,,sxl,f,21,2024_Apr_15_1034,mian,2021.2.3,59.873212485240074,
A9,1,1,A,a,"[0.2, 0.2]",,,,,,,,,,,,,,,,,,,,0,12,12,12,,,,,,,,,,,,,,,,,a,1,0.6774970000001304,,,,,,,,,,,,sxl,f,21,2024_Apr_15_1034,mian,2021.2.3,59.873212485240074,
3e,1,2,e,l,"[-0.2, 0.2]",,,,,,,,,,,,,,,,,,,,0,13,13,13,,,,,,,,,,,,,,,,,l,1,0.5075918000002275,,,,,,,,,,,,sxl,f,21,2024_Apr_15_1034,mian,2021.2.3,59.873212485240074,
f8,2,1,8.0,l,"[-0.2, -0.2]",,,,,,,,,,,,,,,,,,,,0,14,14,14,,,,,,,,,,,,,,,,,l,1,0.8144816999997602,,,,,,,,,,,,sxl,f,21,2024_Apr_15_1034,mian,2021.2.3,59.873212485240074,
G2,2,2,2.0,l,"[0.2, -0.2]",,,,,,,,,,,,,,,,,,,,0,15,15,15,,,,,,,,,,,,,,,,,l,1,1.1758919999997488,,,,,,,,,,,,sxl,f,21,2024_Apr_15_1034,mian,2021.2.3,59.873212485240074,
F2,1,1,F,a,"[0.2, 0.2]",,,,,,,,,,,,,,,,,,,,0,16,16,16,,,,,,,,,,,,,,,,,a,1,1.2367254999999204,,,,,,,,,,,,sxl,f,21,2024_Apr_15_1034,mian,2021.2.3,59.873212485240074,
5e,1,2,e,l,"[-0.2, 0.2]",,,,,,,,,,,,,,,,,,,,0,17,17,17,,,,,,,,,,,,,,,,,l,1,0.7903286000000662,,,,,,,,,,,,sxl,f,21,2024_Apr_15_1034,mian,2021.2.3,59.873212485240074,
A3,2,1,3.0,a,"[-0.2, -0.2]",,,,,,,,,,,,,,,,,,,,0,18,18,18,,,,,,,,,,,,,,,,,a,1,0.9835769000001164,,,,,,,,,,,,sxl,f,21,2024_Apr_15_1034,mian,2021.2.3,59.873212485240074,
4g,2,2,4.0,l,"[0.2, -0.2]",,,,,,,,,,,,,,,,,,,,0,19,19,19,,,,,,,,,,,,,,,,,l,1,0.7301139999999577,,,,,,,,,,,,sxl,f,21,2024_Apr_15_1034,mian,2021.2.3,59.873212485240074,
h7,1,1,h,l,"[0.2, 0.2]",,,,,,,,,,,,,,,,,,,,0,20,20,20,,,,,,,,,,,,,,,,,l,1,1.4209154999998646,,,,,,,,,,,,sxl,f,21,2024_Apr_15_1034,mian,2021.2.3,59.873212485240074,
3g,1,2,g,l,"[-0.2, 0.2]",,,,,,,,,,,,,,,,,,,,0,21,21,21,,,,,,,,,,,,,,,,,l,1,0.7280133999997815,,,,,,,,,,,,sxl,f,21,2024_Apr_15_1034,mian,2021.2.3,59.873212485240074,
8a,2,1,8.0,l,"[-0.2, -0.2]",,,,,,,,,,,,,,,,,,,,0,22,22,22,,,,,,,,,,,,,,,,,l,1,0.7539502999998149,,,,,,,,,,,,sxl,f,21,2024_Apr_15_1034,mian,2021.2.3,59.873212485240074,
4E,2,2,4.0,l,"[0.2, -0.2]",,,,,,,,,,,,,,,,,,,,0,23,23,23,,,,,,,,,,,,,,,,,l,1,0.7990424000004168,,,,,,,,,,,,sxl,f,21,2024_Apr_15_1034,mian,2021.2.3,59.873212485240074,
E5,1,1,E,a,"[0.2, 0.2]",,,,,,,,,,,,,,,,,,,,0,24,24,24,,,,,,,,,,,,,,,,,a,1,0.9024847000000591,,,,,,,,,,,,sxl,f,21,2024_Apr_15_1034,mian,2021.2.3,59.873212485240074,
g6,1,2,g,l,"[-0.2, 0.2]",,,,,,,,,,,,,,,,,,,,0,25,25,25,,,,,,,,,,,,,,,,,l,1,0.5804007000001548,,,,,,,,,,,,sxl,f,21,2024_Apr_15_1034,mian,2021.2.3,59.873212485240074,
2e,2,1,2.0,l,"[-0.2, -0.2]",,,,,,,,,,,,,,,,,,,,0,26,26,26,,,,,,,,,,,,,,,,,l,1,0.713536700000077,,,,,,,,,,,,sxl,f,21,2024_Apr_15_1034,mian,2021.2.3,59.873212485240074,
h8,2,2,8.0,l,"[0.2, -0.2]",,,,,,,,,,,,,,,,,,,,0,27,27,27,,,,,,,,,,,,,,,,,l,1,1.2152139999998326,,,,,,,,,,,,sxl,f,21,2024_Apr_15_1034,mian,2021.2.3,59.873212485240074,
G6,1,1,G,a,"[0.2, 0.2]",,,,,,,,,,,,,,,,,,,,0,28,28,28,,,,,,,,,,,,,,,,,a,1,0.7305904999998347,,,,,,,,,,,,sxl,f,21,2024_Apr_15_1034,mian,2021.2.3,59.873212485240074,
a4,1,2,a,l,"[-0.2, 0.2]",,,,,,,,,,,,,,,,,,,,0,29,29,29,,,,,,,,,,,,,,,,,l,1,2.0017774000002646,,,,,,,,,,,,sxl,f,21,2024_Apr_15_1034,mian,2021.2.3,59.873212485240074,
9H,2,1,9.0,a,"[-0.2, -0.2]",,,,,,,,,,,,,,,,,,,,0,30,30,30,,,,,,,,,,,,,,,,,a,1,1.4891568000002735,,,,,,,,,,,,sxl,f,21,2024_Apr_15_1034,mian,2021.2.3,59.873212485240074,
7H,2,2,7.0,a,"[0.2, -0.2]",,,,,,,,,,,,,,,,,,,,0,31,31,31,,,,,,,,,,,,,,,,,a,1,0.9109020000000783,,,,,,,,,,,,sxl,f,21,2024_Apr_15_1034,mian,2021.2.3,59.873212485240074,
9f,1,1,f,l,"[0.2, 0.2]",,,,,,,,,,,,,,,,,,,,0,32,32,32,,,,,,,,,,,,,,,,,l,1,1.336038799999642,,,,,,,,,,,,sxl,f,21,2024_Apr_15_1034,mian,2021.2.3,59.873212485240074,
8E,1,2,E,a,"[-0.2, 0.2]",,,,,,,,,,,,,,,,,,,,0,33,33,33,,,,,,,,,,,,,,,,,a,1,0.7656363000000965,,,,,,,,,,,,sxl,f,21,2024_Apr_15_1034,mian,2021.2.3,59.873212485240074,
A2,2,1,2.0,l,"[-0.2, -0.2]",,,,,,,,,,,,,,,,,,,,0,34,34,34,,,,,,,,,,,,,,,,,l,1,1.4655741000001399,,,,,,,,,,,,sxl,f,21,2024_Apr_15_1034,mian,2021.2.3,59.873212485240074,
H7,2,2,7.0,a,"[0.2, -0.2]",,,,,,,,,,,,,,,,,,,,0,35,35,35,,,,,,,,,,,,,,,,,a,1,1.3670489000000998,,,,,,,,,,,,sxl,f,21,2024_Apr_15_1034,mian,2021.2.3,59.873212485240074,
h9,1,1,h,l,"[0.2, 0.2]",,,,,,,,,,,,,,,,,,,,0,36,36,36,,,,,,,,,,,,,,,,,l,1,1.5224702000000434,,,,,,,,,,,,sxl,f,21,2024_Apr_15_1034,mian,2021.2.3,59.873212485240074,
8G,1,2,G,a,"[-0.2, 0.2]",,,,,,,,,,,,,,,,,,,,0,37,37,37,,,,,,,,,,,,,,,,,a,1,0.7439418999997542,,,,,,,,,,,,sxl,f,21,2024_Apr_15_1034,mian,2021.2.3,59.873212485240074,
H4,2,1,4.0,l,"[-0.2, -0.2]",,,,,,,,,,,,,,,,,,,,0,38,38,38,,,,,,,,,,,,,,,,,l,1,1.6638456999999107,,,,,,,,,,,,sxl,f,21,2024_Apr_15_1034,mian,2021.2.3,59.873212485240074,
A8,2,2,8.0,l,"[0.2, -0.2]",,,,,,,,,,,,,,,,,,,,0,39,39,39,,,,,,,,,,,,,,,,,l,1,1.040561699999671,,,,,,,,,,,,sxl,f,21,2024_Apr_15_1034,mian,2021.2.3,59.873212485240074,
g7,1,1,g,l,"[0.2, 0.2]",,,,,,,,,,,,,,,,,,,,0,40,40,40,,,,,,,,,,,,,,,,,l,1,1.6654540999998062,,,,,,,,,,,,sxl,f,21,2024_Apr_15_1034,mian,2021.2.3,59.873212485240074,
H9,1,2,H,a,"[-0.2, 0.2]",,,,,,,,,,,,,,,,,,,,0,41,41,41,,,,,,,,,,,,,,,,,a,1,0.6885849000000235,,,,,,,,,,,,sxl,f,21,2024_Apr_15_1034,mian,2021.2.3,59.873212485240074,
9E,2,1,9.0,a,"[-0.2, -0.2]",,,,,,,,,,,,,,,,,,,,0,42,42,42,,,,,,,,,,,,,,,,,a,1,0.6857469999999921,,,,,,,,,,,,sxl,f,21,2024_Apr_15_1034,mian,2021.2.3,59.873212485240074,
a5,2,2,5.0,a,"[0.2, -0.2]",,,,,,,,,,,,,,,,,,,,0,43,43,43,,,,,,,,,,,,,,,,,a,1,0.7536439000000428,,,,,,,,,,,,sxl,f,21,2024_Apr_15_1034,mian,2021.2.3,59.873212485240074,
3E,1,1,E,a,"[0.2, 0.2]",,,,,,,,,,,,,,,,,,,,0,44,44,44,,,,,,,,,,,,,,,,,a,1,0.777881399999842,,,,,,,,,,,,sxl,f,21,2024_Apr_15_1034,mian,2021.2.3,59.873212485240074,
6f,1,2,f,l,"[-0.2, 0.2]",,,,,,,,,,,,,,,,,,,,0,45,45,45,,,,,,,,,,,,,,,,,l,1,0.470352400000138,,,,,,,,,,,,sxl,f,21,2024_Apr_15_1034,mian,2021.2.3,59.873212485240074,
g8,2,1,8.0,l,"[-0.2, -0.2]",,,,,,,,,,,,,,,,,,,,0,46,46,46,,,,,,,,,,,,,,,,,l,1,0.7370691000000988,,,,,,,,,,,,sxl,f,21,2024_Apr_15_1034,mian,2021.2.3,59.873212485240074,
4F,2,2,4.0,l,"[0.2, -0.2]",,,,,,,,,,,,,,,,,,,,0,47,47,47,,,,,,,,,,,,,,,,,l,1,1.2015181000001576,,,,,,,,,,,,sxl,f,21,2024_Apr_15_1034,mian,2021.2.3,59.873212485240074,
4a,1,1,a,l,"[0.2, 0.2]",,,,,,,,,,,,,,,,,,,,0,48,48,48,,,,,,,,,,,,,,,,,l,1,0.9154770000000099,,,,,,,,,,,,sxl,f,21,2024_Apr_15_1034,mian,2021.2.3,59.873212485240074,
e3,1,2,e,l,"[-0.2, 0.2]",,,,,,,,,,,,,,,,,,,,0,49,49,49,,,,,,,,,,,,,,,,,l,1,2.877730100000008,,,,,,,,,,,,sxl,f,21,2024_Apr_15_1034,mian,2021.2.3,59.873212485240074,
5g,2,1,5.0,a,"[-0.2, -0.2]",,,,,,,,,,,,,,,,,,,,0,50,50,50,,,,,,,,,,,,,,,,,a,1,0.858380500000294,,,,,,,,,,,,sxl,f,21,2024_Apr_15_1034,mian,2021.2.3,59.873212485240074,
f4,2,2,4.0,l,"[0.2, -0.2]",,,,,,,,,,,,,,,,,,,,0,51,51,51,,,,,,,,,,,,,,,,,l,1,0.7850077000002784,,,,,,,,,,,,sxl,f,21,2024_Apr_15_1034,mian,2021.2.3,59.873212485240074,
6E,1,1,E,a,"[0.2, 0.2]",,,,,,,,,,,,,,,,,,,,0,52,52,52,,,,,,,,,,,,,,,,,a,1,0.7916131000001769,,,,,,,,,,,,sxl,f,21,2024_Apr_15_1034,mian,2021.2.3,59.873212485240074,
7A,1,2,A,a,"[-0.2, 0.2]",,,,,,,,,,,,,,,,,,,,0,53,53,53,,,,,,,,,,,,,,,,,a,1,0.8056132000001526,,,,,,,,,,,,sxl,f,21,2024_Apr_15_1034,mian,2021.2.3,59.873212485240074,
F4,2,1,4.0,l,"[-0.2, -0.2]",,,,,,,,,,,,,,,,,,,,0,54,54,54,,,,,,,,,,,,,,,,,l,1,2.8529552999998486,,,,,,,,,,,,sxl,f,21,2024_Apr_15_1034,mian,2021.2.3,59.873212485240074,
2g,2,2,2.0,l,"[0.2, -0.2]",,,,,,,,,,,,,,,,,,,,0,55,55,55,,,,,,,,,,,,,,,,,l,1,0.7193333999998686,,,,,,,,,,,,sxl,f,21,2024_Apr_15_1034,mian,2021.2.3,59.873212485240074,
7E,1,1,E,a,"[0.2, 0.2]",,,,,,,,,,,,,,,,,,,,0,56,56,56,,,,,,,,,,,,,,,,,a,1,1.1201673000000483,,,,,,,,,,,,sxl,f,21,2024_Apr_15_1034,mian,2021.2.3,59.873212485240074,
G4,1,2,G,a,"[-0.2, 0.2]",,,,,,,,,,,,,,,,,,,,0,57,57,57,,,,,,,,,,,,,,,,,a,1,0.48150540000006004,,,,,,,,,,,,sxl,f,21,2024_Apr_15_1034,mian,2021.2.3,59.873212485240074,
2F,2,1,2.0,l,"[-0.2, -0.2]",,,,,,,,,,,,,,,,,,,,0,58,58,58,,,,,,,,,,,,,,,,,l,1,1.5873828000003414,,,,,,,,,,,,sxl,f,21,2024_Apr_15_1034,mian,2021.2.3,59.873212485240074,
E9,2,2,9.0,a,"[0.2, -0.2]",,,,,,,,,,,,,,,,,,,,0,59,59,59,,,,,,,,,,,,,,,,,a,1,0.7684067000000141,,,,,,,,,,,,sxl,f,21,2024_Apr_15_1034,mian,2021.2.3,59.873212485240074,
5f,1,1,f,l,"[0.2, 0.2]",,,,,,,,,,,,,,,,,,,,0,60,60,60,,,,,,,,,,,,,,,,,l,1,0.8401079999998728,,,,,,,,,,,,sxl,f,21,2024_Apr_15_1034,mian,2021.2.3,59.873212485240074,
e7,1,2,e,l,"[-0.2, 0.2]",,,,,,,,,,,,,,,,,,,,0,61,61,61,,,,,,,,,,,,,,,,,l,1,2.7870257999998103,,,,,,,,,,,,sxl,f,21,2024_Apr_15_1034,mian,2021.2.3,59.873212485240074,
f2,2,1,2.0,l,"[-0.2, -0.2]",,,,,,,,,,,,,,,,,,,,0,62,62,62,,,,,,,,,,,,,,,,,l,1,3.166996299999937,,,,,,,,,,,,sxl,f,21,2024_Apr_15_1034,mian,2021.2.3,59.873212485240074,
G9,2,2,9.0,a,"[0.2, -0.2]",,,,,,,,,,,,,,,,,,,,0,63,63,63,,,,,,,,,,,,,,,,,a,1,0.8424433000000136,,,,,,,,,,,,sxl,f,21,2024_Apr_15_1034,mian,2021.2.3,59.873212485240074,
7g,1,1,g,l,"[0.2, 0.2]",,,,,,,,,,,,,,,,,,,,0,64,64,64,,,,,,,,,,,,,,,,,l,1,1.033934500000214,,,,,,,,,,,,sxl,f,21,2024_Apr_15_1034,mian,2021.2.3,59.873212485240074,
F8,1,2,F,a,"[-0.2, 0.2]",,,,,,,,,,,,,,,,,,,,0,65,65,65,,,,,,,,,,,,,,,,,a,1,1.0780133999996906,,,,,,,,,,,,sxl,f,21,2024_Apr_15_1034,mian,2021.2.3,59.873212485240074,
A7,2,1,7.0,a,"[-0.2, -0.2]",,,,,,,,,,,,,,,,,,,,0,66,66,66,,,,,,,,,,,,,,,,,a,1,0.8196317000001727,,,,,,,,,,,,sxl,f,21,2024_Apr_15_1034,mian,2021.2.3,59.873212485240074,
4G,2,2,4.0,l,"[0.2, -0.2]",,,,,,,,,,,,,,,,,,,,0,67,67,67,,,,,,,,,,,,,,,,,l,1,0.9093876000001728,,,,,,,,,,,,sxl,f,21,2024_Apr_15_1034,mian,2021.2.3,59.873212485240074,
g2,1,1,g,l,"[0.2, 0.2]",,,,,,,,,,,,,,,,,,,,0,68,68,68,,,,,,,,,,,,,,,,,l,1,1.020494399999734,,,,,,,,,,,,sxl,f,21,2024_Apr_15_1034,mian,2021.2.3,59.873212485240074,
g4,1,2,g,l,"[-0.2, 0.2]",,,,,,,,,,,,,,,,,,,,0,69,69,69,,,,,,,,,,,,,,,,,l,1,0.5964598000000478,,,,,,,,,,,,sxl,f,21,2024_Apr_15_1034,mian,2021.2.3,59.873212485240074,
7a,2,1,7.0,a,"[-0.2, -0.2]",,,,,,,,,,,,,,,,,,,,0,70,70,70,,,,,,,,,,,,,,,,,a,1,1.1363702000003286,,,,,,,,,,,,sxl,f,21,2024_Apr_15_1034,mian,2021.2.3,59.873212485240074,
8e,2,2,8.0,l,"[0.2, -0.2]",,,,,,,,,,,,,,,,,,,,0,71,71,71,,,,,,,,,,,,,,,,,l,1,0.759062399999948,,,,,,,,,,,,sxl,f,21,2024_Apr_15_1034,mian,2021.2.3,59.873212485240074,
h4,1,1,h,l,"[0.2, 0.2]",,,,,,,,,,,,,,,,,,,,0,72,72,72,,,,,,,,,,,,,,,,,l,1,0.7136101999999482,,,,,,,,,,,,sxl,f,21,2024_Apr_15_1034,mian,2021.2.3,59.873212485240074,
G8,1,2,G,a,"[-0.2, 0.2]",,,,,,,,,,,,,,,,,,,,0,73,73,73,,,,,,,,,,,,,,,,,a,1,1.763025799999923,,,,,,,,,,,,sxl,f,21,2024_Apr_15_1034,mian,2021.2.3,59.873212485240074,
6F,2,1,6.0,l,"[-0.2, -0.2]",,,,,,,,,,,,,,,,,,,,0,74,74,74,,,,,,,,,,,,,,,,,l,1,2.4972391999999672,,,,,,,,,,,,sxl,f,21,2024_Apr_15_1034,mian,2021.2.3,59.873212485240074,
g5,2,2,5.0,a,"[0.2, -0.2]",,,,,,,,,,,,,,,,,,,,0,75,75,75,,,,,,,,,,,,,,,,,a,1,0.8075828000000911,,,,,,,,,,,,sxl,f,21,2024_Apr_15_1034,mian,2021.2.3,59.873212485240074,
G5,1,1,G,a,"[0.2, 0.2]",,,,,,,,,,,,,,,,,,,,0,76,76,76,,,,,,,,,,,,,,,,,a,1,1.3149624000002405,,,,,,,,,,,,sxl,f,21,2024_Apr_15_1034,mian,2021.2.3,59.873212485240074,
h5,1,2,h,l,"[-0.2, 0.2]",,,,,,,,,,,,,,,,,,,,0,77,77,77,,,,,,,,,,,,,,,,,l,1,0.5701974000003247,,,,,,,,,,,,sxl,f,21,2024_Apr_15_1034,mian,2021.2.3,59.873212485240074,
9G,2,1,9.0,a,"[-0.2, -0.2]",,,,,,,,,,,,,,,,,,,,0,78,78,78,,,,,,,,,,,,,,,,,a,1,1.1150037000002158,,,,,,,,,,,,sxl,f,21,2024_Apr_15_1034,mian,2021.2.3,59.873212485240074,
F3,2,2,3.0,a,"[0.2, -0.2]",,,,,,,,,,,,,,,,,,,,0,79,79,79,,,,,,,,,,,,,,,,,a,1,0.8466542000001027,,,,,,,,,,,,sxl,f,21,2024_Apr_15_1034,mian,2021.2.3,59.873212485240074,
,,,,,,1,0,pic/flanker6.png,pic/flanker4.png,s,l,,,,,,,,,,,,,,,,,,0,0,0,0,0,0,0,5,,,,,,,,,,,,534.1107325000003,None,532.9184540000001,534.1274118000001,None,0,懒惰,l,1,1.3956514999999854,,sxl,f,21,2024_Apr_15_1034,mian,2021.2.3,59.873212485240074,
,,,,,,0,1,pic/flanker5.png,pic/flanker1.png,s,k,,,,,,,,,,,,,,,,,,0,0,0,0,0,1,1,0,,,,,,,,,,,,538.9273333000001,None,537.7438127,538.9440551000002,s,1,诚恳,k,1,1.8764971000000514,1.210644400000092,sxl,f,21,2024_Apr_15_1034,mian,2021.2.3,59.873212485240074,
,,,,,,0,0,pic/flanker6.png,pic/flanker2.png,a,l,,,,,,,,,,,,,,,,,,0,0,0,0,0,2,2,1,,,,,,,,,,,,543.8433506000001,None,542.6606731000002,543.8607458000001,a,1,假冒,l,1,1.6773349000000053,1.1629173999999693,sxl,f,21,2024_Apr_15_1034,mian,2021.2.3,59.873212485240074,
,,,,,,1,1,pic/flanker5.png,pic/flanker3.png,a,k,,,,,,,,,,,,,,,,,,0,0,0,0,0,3,3,4,,,,,,,,,,,,548.5939760000001,None,547.4105629999999,548.6107288000003,a,1,瑰丽,k,1,1.3276772999997775,1.24390510000012,sxl,f,21,2024_Apr_15_1034,mian,2021.2.3,59.873212485240074,
,,,,,,0,0,pic/flanker5.png,pic/flanker1.png,s,l,,,,,,,,,,,,,,,,,,0,0,0,0,0,4,4,3,,,,,,,,,,,,553.1439263000002,None,551.9606477000002,553.1605837000002,s,1,自卑,l,1,1.3642652000003181,0.9956997999997839,sxl,f,21,2024_Apr_15_1034,mian,2021.2.3,59.873212485240074,
,,,,,,1,0,pic/flanker5.png,pic/flanker3.png,a,l,,,,,,,,,,,,,,,,,,0,0,0,0,0,5,5,7,,,,,,,,,,,,557.5273499999998,None,556.3440154,557.5439187000002,a,1,心慌,l,1,1.9147070999997595,1.2864266000001408,sxl,f,21,2024_Apr_15_1034,mian,2021.2.3,59.873212485240074,
,,,,,,1,1,pic/flanker6.png,pic/flanker4.png,s,k,,,,,,,,,,,,,,,,,,0,0,0,0,0,6,6,6,,,,,,,,,,,,562.7272080000002,None,561.5438325999999,562.7439749,s,1,鲜艳,None,0,,1.1365867999998045,sxl,f,21,2024_Apr_15_1034,mian,2021.2.3,59.873212485240074,
,,,,,,0,1,pic/flanker6.png,pic/flanker2.png,a,k,,,,,,,,,,,,,,,,,,0,0,0,0,0,7,7,2,,,,,,,,,,,,568.377395,None,567.1939793000001,568.3940689000001,a,1,如愿,k,1,1.4336888000002546,0.8498879999997371,sxl,f,21,2024_Apr_15_1034,mian,2021.2.3,59.873212485240074,
,,,,,,,,,,,,,,,,,,,,,,,,,,,,,0,0,0,0,,,,,,,,,,,,,,,,,,,,,,,,,,,sxl,f,21,2024_Apr_15_1034,mian,2021.2.3,59.873212485240074,
,,,,,,0,1,pic/flanker5.png,pic/flanker1.png,s,k,pic/AffRest1.png,,,,,,,,,,,,,,,,,,,,,,,,,0,0,0,0,0,0,0,16,,,,588.2105767000003,None,587.010205,588.2105767000003,s,1,有利,k,1,0.8311416000001373,0.7678141999999752,sxl,f,21,2024_Apr_15_1034,mian,2021.2.3,59.873212485240074,
,,,,,,1,1,pic/flanker6.png,pic/flanker4.png,s,k,pic/AffRest1.png,,,,,,,,,,,,,,,,,,,,,,,,,0,0,0,0,0,1,1,6,,,,591.7773007999999,None,590.5941350000003,591.7940005,s,1,圣洁,k,1,0.8029312000003301,0.8065259999998489,sxl,f,21,2024_Apr_15_1034,mian,2021.2.3,59.873212485240074,
,,,,,,1,1,pic/flanker6.png,pic/flanker4.png,s,k,pic/AffRest1.png,,,,,,,,,,,,,,,,,,,,,,,,,0,0,0,0,0,2,2,22,,,,595.3603908999999,None,594.1773211,595.3772386,s,1,生动,k,1,0.6778036999999131,0.9835631000000831,sxl,f,21,2024_Apr_15_1034,mian,2021.2.3,59.873212485240074,
,,,,,,0,0,pic/flanker6.png,pic/flanker2.png,a,l,pic/AffRest1.png,,,,,,,,,,,,,,,,,,,,,,,,,0,0,0,0,0,3,3,25,,,,598.8771546000003,None,597.6938107999999,598.8938760000001,a,1,丢失,l,1,1.155934299999899,0.6883637000000817,sxl,f,21,2024_Apr_15_1034,mian,2021.2.3,59.873212485240074,
,,,,,,0,0,pic/flanker6.png,pic/flanker2.png,a,l,pic/AffRest1.png,,,,,,,,,,,,,,,,,,,,,,,,,0,0,0,0,0,4,4,33,,,,602.5941357000002,None,601.4106205000003,602.6107660000002,a,1,闷热,l,1,1.210733800000071,0.7039622000002055,sxl,f,21,2024_Apr_15_1034,mian,2021.2.3,59.873212485240074,
,,,,,,0,1,pic/flanker5.png,pic/flanker1.png,s,k,pic/AffRest1.png,,,,,,,,,,,,,,,,,,,,,,,,,0,0,0,0,0,5,5,72,,,,606.4437945,None,605.2619036000001,606.4772885000002,s,1,豪放,k,1,0.8529890999998315,0.6159892999999101,sxl,f,21,2024_Apr_15_1034,mian,2021.2.3,59.873212485240074,
,,,,,,0,0,pic/flanker6.png,pic/flanker2.png,a,l,pic/AffRest1.png,,,,,,,,,,,,,,,,,,,,,,,,,0,0,0,0,0,6,6,17,,,,609.7773092000002,None,608.5937781000002,609.7939335000001,a,1,轻率,l,1,1.4937102999997478,0.8896263999999974,sxl,f,21,2024_Apr_15_1034,mian,2021.2.3,59.873212485240074,
,,,,,,0,1,pic/flanker5.png,pic/flanker1.png,s,k,pic/AffRest1.png,,,,,,,,,,,,,,,,,,,,,,,,,0,0,0,0,0,7,7,32,,,,614.2271833,None,613.0439366999999,614.2439563000003,s,1,充裕,k,1,0.7468484999999419,0.6087979999997515,sxl,f,21,2024_Apr_15_1034,mian,2021.2.3,59.873212485240074,
,,,,,,1,1,pic/flanker6.png,pic/flanker4.png,s,k,pic/AffRest1.png,,,,,,,,,,,,,,,,,,,,,,,,,0,0,0,0,0,8,8,78,,,,617.6604413,None,616.4772327000001,617.6772983000001,s,1,秀丽,k,1,0.7584901000000173,1.0456698000002689,sxl,f,21,2024_Apr_15_1034,mian,2021.2.3,59.873212485240074,
,,,,,,0,0,pic/flanker6.png,pic/flanker2.png,a,l,pic/AffRest1.png,,,,,,,,,,,,,,,,,,,,,,,,,0,0,0,0,0,9,9,1,,,,621.2939197000001,None,620.1105375000002,621.3105820000001,a,1,落后,l,1,1.1238422000001265,0.6081339000002117,sxl,f,21,2024_Apr_15_1034,mian,2021.2.3,59.873212485240074,
,,,,,,0,0,pic/flanker5.png,pic/flanker1.png,s,l,pic/AffRest1.png,,,,,,,,,,,,,,,,,,,,,,,,,0,0,0,0,0,10,10,11,,,,624.9605446999999,None,623.7771794,624.9771850000002,s,1,冷笑,l,1,0.8188076999999794,0.709361500000341,sxl,f,21,2024_Apr_15_1034,mian,2021.2.3,59.873212485240074,
,,,,,,1,1,pic/flanker5.png,pic/flanker3.png,a,k,pic/AffRest1.png,,,,,,,,,,,,,,,,,,,,,,,,,0,0,0,0,0,11,11,52,,,,628.3434837,None,627.1599375999999,628.3601235000001,a,1,畅销,k,1,1.2119125000003805,0.9306640999998308,sxl,f,21,2024_Apr_15_1034,mian,2021.2.3,59.873212485240074,
,,,,,,0,0,pic/flanker6.png,pic/flanker2.png,a,l,pic/AffRest1.png,,,,,,,,,,,,,,,,,,,,,,,,,0,0,0,0,0,12,12,41,,,,632.4438613000002,None,631.2605545000001,632.4605387000001,a,1,堵塞,l,1,0.9336965000002238,0.6961282000002029,sxl,f,21,2024_Apr_15_1034,mian,2021.2.3,59.873212485240074,
,,,,,,0,0,pic/flanker5.png,pic/flanker1.png,s,l,pic/AffRest1.png,,,,,,,,,,,,,,,,,,,,,,,,,0,0,0,0,0,13,13,19,,,,635.9434771000001,None,634.7599533000002,635.9602073000001,s,1,孤单,l,1,1.3283759999999347,0.7458943000001454,sxl,f,21,2024_Apr_15_1034,mian,2021.2.3,59.873212485240074,
,,,,,,1,0,pic/flanker5.png,pic/flanker3.png,a,l,pic/AffRest1.png,,,,,,,,,,,,,,,,,,,,,,,,,0,0,0,0,0,14,14,71,,,,639.8607608000002,None,638.6771764,639.8774323000002,a,1,黑暗,l,1,1.2526749000003292,1.048526000000038,sxl,f,21,2024_Apr_15_1034,mian,2021.2.3,59.873212485240074,
,,,,,,0,0,pic/flanker6.png,pic/flanker2.png,a,l,pic/AffRest1.png,,,,,,,,,,,,,,,,,,,,,,,,,0,0,0,0,0,15,15,57,,,,644.0433899,None,642.8597410000002,644.0601025000001,a,1,自卑,l,1,1.1027392999999392,1.1901080000002366,sxl,f,21,2024_Apr_15_1034,mian,2021.2.3,59.873212485240074,
,,,,,,1,0,pic/flanker6.png,pic/flanker4.png,s,l,pic/AffRest1.png,,,,,,,,,,,,,,,,,,,,,,,,,0,0,0,0,0,16,16,53,,,,648.3607606,None,647.1769791000002,648.3774686000002,s,1,穷苦,l,1,1.1039166999998997,1.1115381999998135,sxl,f,21,2024_Apr_15_1034,mian,2021.2.3,59.873212485240074,
,,,,,,1,0,pic/flanker5.png,pic/flanker3.png,a,l,pic/AffRest1.png,,,,,,,,,,,,,,,,,,,,,,,,,0,0,0,0,0,17,17,23,,,,652.5605641000002,None,651.3771467000001,652.5773355000001,a,1,禁止,l,1,0.8582334000002447,0.8325178000000051,sxl,f,21,2024_Apr_15_1034,mian,2021.2.3,59.873212485240074,
,,,,,,1,1,pic/flanker5.png,pic/flanker3.png,a,k,pic/AffRest1.png,,,,,,,,,,,,,,,,,,,,,,,,,0,0,0,0,0,18,18,12,,,,656.2108179000002,None,655.0271619999999,656.2274003000002,a,1,爽朗,k,1,1.0427856999999676,0.9621540000002824,sxl,f,21,2024_Apr_15_1034,mian,2021.2.3,59.873212485240074,
,,,,,,1,1,pic/flanker5.png,pic/flanker3.png,a,k,pic/AffRest1.png,,,,,,,,,,,,,,,,,,,,,,,,,0,0,0,0,0,19,19,60,,,,660.2440897000001,None,659.0604050000002,660.2607302000001,a,1,丰满,k,1,0.7891660999998749,0.9500018000003365,sxl,f,21,2024_Apr_15_1034,mian,2021.2.3,59.873212485240074,
,,,,,,0,1,pic/flanker6.png,pic/flanker2.png,a,k,pic/AffRest1.png,,,,,,,,,,,,,,,,,,,,,,,,,0,0,0,0,0,20,20,66,,,,663.9938556000002,None,662.8103348,664.0104549000002,a,1,留恋,k,1,0.6780173000001923,0.6612700999999106,sxl,f,21,2024_Apr_15_1034,mian,2021.2.3,59.873212485240074,
,,,,,,1,0,pic/flanker6.png,pic/flanker4.png,s,l,pic/AffRest1.png,,,,,,,,,,,,,,,,,,,,,,,,,0,0,0,0,0,21,21,13,,,,667.3272308,None,666.1438084000001,667.3438039000002,s,1,慌忙,l,1,0.9243996999998672,0.7781681000001299,sxl,f,21,2024_Apr_15_1034,mian,2021.2.3,59.873212485240074,
,,,,,,0,1,pic/flanker6.png,pic/flanker2.png,a,k,pic/AffRest1.png,,,,,,,,,,,,,,,,,,,,,,,,,0,0,0,0,0,22,22,74,,,,670.9607504999999,None,669.7771074000002,670.9772797,a,1,如愿,k,1,0.8704791000000114,0.8904207000000497,sxl,f,21,2024_Apr_15_1034,mian,2021.2.3,59.873212485240074,
,,,,,,0,0,pic/flanker5.png,pic/flanker1.png,s,l,pic/AffRest1.png,,,,,,,,,,,,,,,,,,,,,,,,,0,0,0,0,0,23,23,3,,,,674.5598433999999,None,673.3764777000001,674.5766119,s,1,懒惰,l,1,1.3964971000000332,1.0388491000003341,sxl,f,21,2024_Apr_15_1034,mian,2021.2.3,59.873212485240074,
,,,,,,0,1,pic/flanker5.png,pic/flanker1.png,s,k,pic/AffRest1.png,,,,,,,,,,,,,,,,,,,,,,,,,0,0,0,0,0,24,24,48,,,,678.9271534,None,677.7437416000002,678.9437818000001,s,1,舒畅,k,1,0.8840172999998686,0.5746189999999842,sxl,f,21,2024_Apr_15_1034,mian,2021.2.3,59.873212485240074,
,,,,,,1,1,pic/flanker6.png,pic/flanker4.png,s,k,pic/AffRest1.png,,,,,,,,,,,,,,,,,,,,,,,,,0,0,0,0,0,25,25,30,,,,682.4604813999999,None,681.2770833,682.4770713000003,s,1,典雅,k,1,0.7042661000000408,1.110302099999899,sxl,f,21,2024_Apr_15_1034,mian,2021.2.3,59.873212485240074,
,,,,,,1,1,pic/flanker5.png,pic/flanker3.png,a,k,pic/AffRest1.png,,,,,,,,,,,,,,,,,,,,,,,,,0,0,0,0,0,26,26,44,,,,686.3270185000001,None,685.1436480000002,686.3436575999999,a,1,永恒,k,1,1.0155549999999494,0.8579279000000497,sxl,f,21,2024_Apr_15_1034,mian,2021.2.3,59.873212485240074,
,,,,,,1,1,pic/flanker5.png,pic/flanker3.png,a,k,pic/AffRest1.png,,,,,,,,,,,,,,,,,,,,,,,,,0,0,0,0,0,27,27,28,,,,690.1604114000002,None,688.9769693000003,690.1771514000002,a,1,富足,k,1,1.0009229000002051,1.3254673999999795,sxl,f,21,2024_Apr_15_1034,mian,2021.2.3,59.873212485240074,
,,,,,,0,0,pic/flanker6.png,pic/flanker2.png,a,l,pic/AffRest1.png,,,,,,,,,,,,,,,,,,,,,,,,,0,0,0,0,0,28,28,65,,,,694.5269812000001,None,693.3436962000001,694.5437976000003,a,1,处罚,l,1,1.0567392999996628,0.5509240000001228,sxl,f,21,2024_Apr_15_1034,mian,2021.2.3,59.873212485240074,
,,,,,,0,1,pic/flanker6.png,pic/flanker2.png,a,k,pic/AffRest1.png,,,,,,,,,,,,,,,,,,,,,,,,,0,0,0,0,0,29,29,18,,,,698.0937401000001,None,696.9103378,698.1102498999999,None,0,热切,k,1,0.8080909000000247,,sxl,f,21,2024_Apr_15_1034,mian,2021.2.3,59.873212485240074,
,,,,,,1,1,pic/flanker5.png,pic/flanker3.png,a,k,pic/AffRest1.png,,,,,,,,,,,,,,,,,,,,,,,,,0,0,0,0,0,30,30,68,,,,702.1263836000003,None,700.9438146000002,702.143184,a,1,旺盛,k,1,0.6520970000001398,0.7773158999998486,sxl,f,21,2024_Apr_15_1034,mian,2021.2.3,59.873212485240074,
,,,,,,0,1,pic/flanker6.png,pic/flanker2.png,a,k,pic/AffRest1.png,,,,,,,,,,,,,,,,,,,,,,,,,0,0,0,0,0,31,31,58,,,,705.4769507000001,None,704.2937504000001,705.4935424,a,1,俊秀,k,1,0.6931700000000092,0.5579161000000568,sxl,f,21,2024_Apr_15_1034,mian,2021.2.3,59.873212485240074,
,,,,,,0,1,pic/flanker6.png,pic/flanker2.png,a,k,pic/AffRest1.png,,,,,,,,,,,,,,,,,,,,,,,,,0,0,0,0,0,32,32,34,,,,708.6268817999999,None,707.4437372000002,708.6434938000002,a,1,诚恳,k,1,1.2199934000000212,0.5949510000000373,sxl,f,21,2024_Apr_15_1034,mian,2021.2.3,59.873212485240074,
,,,,,,1,1,pic/flanker6.png,pic/flanker4.png,s,k,pic/AffRest1.png,,,,,,,,,,,,,,,,,,,,,,,,,0,0,0,0,0,33,33,62,,,,712.2929389000001,None,711.1103714999999,712.3097511000001,s,1,振作,k,1,0.7065424999996139,0.6664020999996865,sxl,f,21,2024_Apr_15_1034,mian,2021.2.3,59.873212485240074,
,,,,,,0,0,pic/flanker6.png,pic/flanker2.png,a,l,pic/AffRest1.png,,,,,,,,,,,,,,,,,,,,,,,,,0,0,0,0,0,34,34,49,,,,715.6268757000003,None,714.4438587,715.6436066000001,a,1,排斥,l,1,1.1472640999995747,0.7005510999997568,sxl,f,21,2024_Apr_15_1034,mian,2021.2.3,59.873212485240074,
,,,,,,1,0,pic/flanker5.png,pic/flanker3.png,a,l,pic/AffRest1.png,,,,,,,,,,,,,,,,,,,,,,,,,0,0,0,0,0,35,35,79,,,,719.5102858999999,None,718.3270579,719.5268056999998,a,1,罚款,l,1,0.936069100000168,0.740716600000269,sxl,f,21,2024_Apr_15_1034,mian,2021.2.3,59.873212485240074,
,,,,,,1,1,pic/flanker6.png,pic/flanker4.png,s,k,pic/AffRest1.png,,,,,,,,,,,,,,,,,,,,,,,,,0,0,0,0,0,36,36,46,,,,723.1935005,None,722.0102925000001,723.2102948000002,s,1,鲜艳,k,1,0.6727136999998038,0.7082218000000466,sxl,f,21,2024_Apr_15_1034,mian,2021.2.3,59.873212485240074,
,,,,,,1,0,pic/flanker6.png,pic/flanker4.png,s,l,pic/AffRest1.png,,,,,,,,,,,,,,,,,,,,,,,,,0,0,0,0,0,37,37,37,,,,726.6270313999999,None,725.4435585000001,726.6436874999999,s,1,厌恶,l,1,1.0089708000000428,0.7333548000001429,sxl,f,21,2024_Apr_15_1034,mian,2021.2.3,59.873212485240074,
,,,,,,0,0,pic/flanker5.png,pic/flanker1.png,s,l,pic/AffRest1.png,,,,,,,,,,,,,,,,,,,,,,,,,0,0,0,0,0,38,38,43,,,,730.4595585000002,None,729.2770645999999,730.4769236000002,s,1,假冒,l,1,1.4234302999998363,0.6475969000002806,sxl,f,21,2024_Apr_15_1034,mian,2021.2.3,59.873212485240074,
,,,,,,1,0,pic/flanker5.png,pic/flanker3.png,a,l,pic/AffRest1.png,,,,,,,,,,,,,,,,,,,,,,,,,0,0,0,0,0,39,39,31,,,,734.5605301,None,733.3769501000002,734.5771892000002,a,1,焦躁,l,1,1.1808991999996579,0.8059283999996296,sxl,f,21,2024_Apr_15_1034,mian,2021.2.3,59.873212485240074,
,,,,,,1,1,pic/flanker6.png,pic/flanker4.png,s,k,pic/AffRest1.png,,,,,,,,,,,,,,,,,,,,,,,,,0,0,0,0,0,40,40,54,,,,738.4101955000001,None,737.2267907999999,738.4270649,s,1,精致,l,0,1.052294499999789,0.8964433999999528,sxl,f,21,2024_Apr_15_1034,mian,2021.2.3,59.873212485240074,
,,,,,,1,0,pic/flanker5.png,pic/flanker3.png,a,l,pic/AffRest1.png,,,,,,,,,,,,,,,,,,,,,,,,,0,0,0,0,0,41,41,63,,,,742.4101439000001,None,741.2269872000002,742.4270405000002,a,1,鲁莽,l,1,1.0265270999998393,0.8951876000000993,sxl,f,21,2024_Apr_15_1034,mian,2021.2.3,59.873212485240074,
,,,,,,1,1,pic/flanker5.png,pic/flanker3.png,a,k,pic/AffRest1.png,,,,,,,,,,,,,,,,,,,,,,,,,0,0,0,0,0,42,42,4,,,,746.1603476999999,None,744.9768156,746.176997,a,1,富丽,k,1,0.9491196999997555,1.2608126000000084,sxl,f,21,2024_Apr_15_1034,mian,2021.2.3,59.873212485240074,
,,,,,,0,0,pic/flanker6.png,pic/flanker2.png,a,l,pic/AffRest1.png,,,,,,,,,,,,,,,,,,,,,,,,,0,0,0,0,0,43,43,9,,,,750.2934226000002,None,749.1102276000001,750.3096266000002,a,1,别扭,l,1,1.3295195000000604,1.217616899999939,sxl,f,21,2024_Apr_15_1034,mian,2021.2.3,59.873212485240074,
,,,,,,0,1,pic/flanker5.png,pic/flanker1.png,s,k,pic/AffRest1.png,,,,,,,,,,,,,,,,,,,,,,,,,0,0,0,0,0,44,44,64,,,,754.8435389000001,None,753.6602486000002,754.8602469000002,s,1,清秀,k,1,1.2014589999998861,0.9706912999999986,sxl,f,21,2024_Apr_15_1034,mian,2021.2.3,59.873212485240074,
,,,,,,0,1,pic/flanker5.png,pic/flanker1.png,s,k,pic/AffRest1.png,,,,,,,,,,,,,,,,,,,,,,,,,0,0,0,0,0,45,45,24,,,,758.9603230000002,None,757.7769360000002,758.9768809000002,s,1,珍藏,k,1,1.1442259999998896,0.5605335000000196,sxl,f,21,2024_Apr_15_1034,mian,2021.2.3,59.873212485240074,
,,,,,,1,0,pic/flanker5.png,pic/flanker3.png,a,l,pic/AffRest1.png,,,,,,,,,,,,,,,,,,,,,,,,,0,0,0,0,0,46,46,15,,,,762.6935917999999,None,761.5102666000003,762.7103611000002,a,1,忧虑,l,1,1.1058177999998406,0.8139620000001742,sxl,f,21,2024_Apr_15_1034,mian,2021.2.3,59.873212485240074,
,,,,,,1,1,pic/flanker5.png,pic/flanker3.png,a,k,pic/AffRest1.png,,,,,,,,,,,,,,,,,,,,,,,,,0,0,0,0,0,47,47,76,,,,766.510311,None,765.3269933000001,766.5269397000002,a,1,赞成,k,1,0.9893111999999746,0.8771904999998696,sxl,f,21,2024_Apr_15_1034,mian,2021.2.3,59.873212485240074,
,,,,,,1,1,pic/flanker6.png,pic/flanker4.png,s,k,pic/AffRest1.png,,,,,,,,,,,,,,,,,,,,,,,,,0,0,0,0,0,48,48,14,,,,770.3102162999999,None,769.1267711999999,770.3269424,s,1,羡慕,k,1,1.0050035000003845,0.6678418000001329,sxl,f,21,2024_Apr_15_1034,mian,2021.2.3,59.873212485240074,
,,,,,,1,0,pic/flanker5.png,pic/flanker3.png,a,l,pic/AffRest1.png,,,,,,,,,,,,,,,,,,,,,,,,,0,0,0,0,0,49,49,55,,,,773.9936434000001,None,772.8101845000001,774.0101771,a,1,伤心,l,1,1.0935857999998007,0.7770889999997053,sxl,f,21,2024_Apr_15_1034,mian,2021.2.3,59.873212485240074,
,,,,,,1,1,pic/flanker5.png,pic/flanker3.png,a,k,pic/AffRest1.png,,,,,,,,,,,,,,,,,,,,,,,,,0,0,0,0,0,50,50,36,,,,777.7935204,None,776.6101931000003,777.8102741000002,a,1,顽强,k,1,0.9432987000000139,1.0063180999995893,sxl,f,21,2024_Apr_15_1034,mian,2021.2.3,59.873212485240074,
,,,,,,1,0,pic/flanker6.png,pic/flanker4.png,s,l,pic/AffRest1.png,,,,,,,,,,,,,,,,,,,,,,,,,0,0,0,0,0,51,51,69,,,,781.7103179999999,None,780.5269272,781.7267557999999,s,1,逃避,l,1,0.8452240999999958,0.8314530000002378,sxl,f,21,2024_Apr_15_1034,mian,2021.2.3,59.873212485240074,
,,,,,,1,1,pic/flanker6.png,pic/flanker4.png,s,k,pic/AffRest1.png,,,,,,,,,,,,,,,,,,,,,,,,,0,0,0,0,0,52,52,70,,,,785.2768458999999,None,784.0935985000001,785.2934011000002,s,1,敬佩,k,1,0.8741353999998864,0.6596024999998917,sxl,f,21,2024_Apr_15_1034,mian,2021.2.3,59.873212485240074,
,,,,,,0,0,pic/flanker6.png,pic/flanker2.png,a,l,pic/AffRest1.png,,,,,,,,,,,,,,,,,,,,,,,,,0,0,0,0,0,53,53,73,,,,788.8102438000001,None,787.6268537000001,788.8268035000001,a,1,失意,l,1,2.014141699999982,1.1780484999999317,sxl,f,21,2024_Apr_15_1034,mian,2021.2.3,59.873212485240074,
,,,,,,0,1,pic/flanker5.png,pic/flanker1.png,s,k,pic/AffRest1.png,,,,,,,,,,,,,,,,,,,,,,,,,0,0,0,0,0,54,54,56,,,,793.9768075000002,None,792.7935295000002,793.9934082,s,1,前进,k,1,0.8767582000000402,0.5765808999999535,sxl,f,21,2024_Apr_15_1034,mian,2021.2.3,59.873212485240074,
,,,,,,0,1,pic/flanker6.png,pic/flanker2.png,a,k,pic/AffRest1.png,,,,,,,,,,,,,,,,,,,,,,,,,0,0,0,0,0,55,55,2,,,,797.4267994000002,None,796.2435149000003,797.4435071000003,a,1,雄厚,k,1,0.891157099999873,0.6534199999996417,sxl,f,21,2024_Apr_15_1034,mian,2021.2.3,59.873212485240074,
,,,,,,1,0,pic/flanker6.png,pic/flanker4.png,s,l,pic/AffRest1.png,,,,,,,,,,,,,,,,,,,,,,,,,0,0,0,0,0,56,56,61,,,,800.8602507,None,799.6768713000001,800.8768374000001,s,1,悲观,l,1,0.8152709000000868,1.2770324999996774,sxl,f,21,2024_Apr_15_1034,mian,2021.2.3,59.873212485240074,
,,,,,,1,0,pic/flanker5.png,pic/flanker3.png,a,l,pic/AffRest1.png,,,,,,,,,,,,,,,,,,,,,,,,,0,0,0,0,0,57,57,47,,,,804.9768357000003,None,803.7935471999999,804.993598,a,1,心慌,l,1,1.298715600000378,1.1767915999998877,sxl,f,21,2024_Apr_15_1034,mian,2021.2.3,59.873212485240074,
,,,,,,1,0,pic/flanker5.png,pic/flanker3.png,a,l,pic/AffRest1.png,,,,,,,,,,,,,,,,,,,,,,,,,0,0,0,0,0,58,58,7,,,,809.4435269,None,808.2601712999999,809.4602719,a,1,撒谎,l,1,1.1012388000003739,0.8068874999999025,sxl,f,21,2024_Apr_15_1034,mian,2021.2.3,59.873212485240074,
,,,,,,0,1,pic/flanker5.png,pic/flanker1.png,s,k,pic/AffRest1.png,,,,,,,,,,,,,,,,,,,,,,,,,0,0,0,0,0,59,59,40,,,,813.310144,None,812.1269069,813.3269316000001,s,1,瑰丽,k,1,0.6880236000001787,0.6957722000001922,sxl,f,21,2024_Apr_15_1034,mian,2021.2.3,59.873212485240074,
,,,,,,0,1,pic/flanker6.png,pic/flanker2.png,a,k,pic/AffRest1.png,,,,,,,,,,,,,,,,,,,,,,,,,0,0,0,0,0,60,60,26,,,,816.7269599000001,None,815.5434251000001,816.7435531000001,a,1,廉洁,k,1,1.0103595000000496,0.5668209999998908,sxl,f,21,2024_Apr_15_1034,mian,2021.2.3,59.873212485240074,
,,,,,,1,0,pic/flanker6.png,pic/flanker4.png,s,l,pic/AffRest1.png,,,,,,,,,,,,,,,,,,,,,,,,,0,0,0,0,0,61,61,77,,,,820.3429071,None,819.1595230000003,820.3596263,s,1,损害,l,1,0.8389139999999315,0.71722120000004,sxl,f,21,2024_Apr_15_1034,mian,2021.2.3,59.873212485240074,
,,,,,,0,0,pic/flanker5.png,pic/flanker1.png,s,l,pic/AffRest1.png,,,,,,,,,,,,,,,,,,,,,,,,,0,0,0,0,0,62,62,59,,,,823.9101033000002,None,822.7269172000001,823.9267334000001,s,1,嘲笑,l,1,1.3370288999999502,0.7341733999996904,sxl,f,21,2024_Apr_15_1034,mian,2021.2.3,59.873212485240074,
,,,,,,1,1,pic/flanker5.png,pic/flanker3.png,a,k,pic/AffRest1.png,,,,,,,,,,,,,,,,,,,,,,,,,0,0,0,0,0,63,63,20,,,,828.0428505999998,None,826.8600829000002,828.0593968000003,a,1,奉献,k,1,1.2432888000003004,0.6903517000000647,sxl,f,21,2024_Apr_15_1034,mian,2021.2.3,59.873212485240074,
,,,,,,1,0,pic/flanker5.png,pic/flanker3.png,a,l,pic/AffRest1.png,,,,,,,,,,,,,,,,,,,,,,,,,0,0,0,0,0,64,64,39,,,,831.9765428000001,None,830.7933140999999,831.9931772999998,a,1,烦恼,l,1,0.9589022999998633,0.6869476000001669,sxl,f,21,2024_Apr_15_1034,mian,2021.2.3,59.873212485240074,
,,,,,,0,1,pic/flanker5.png,pic/flanker1.png,s,k,pic/AffRest1.png,,,,,,,,,,,,,,,,,,,,,,,,,0,0,0,0,0,65,65,0,,,,835.6432292,None,834.4595656000001,835.6598426999999,s,1,卓越,k,1,2.25015059999987,0.657862799999748,sxl,f,21,2024_Apr_15_1034,mian,2021.2.3,59.873212485240074,
,,,,,,1,0,pic/flanker6.png,pic/flanker4.png,s,l,pic/AffRest1.png,,,,,,,,,,,,,,,,,,,,,,,,,0,0,0,0,0,66,66,5,,,,840.5268982000002,None,839.3433187999999,840.5436167000003,s,1,争吵,l,1,0.8266466999998556,0.6562724000000344,sxl,f,21,2024_Apr_15_1034,mian,2021.2.3,59.873212485240074,
,,,,,,0,1,pic/flanker5.png,pic/flanker1.png,s,k,pic/AffRest1.png,,,,,,,,,,,,,,,,,,,,,,,,,0,0,0,0,0,67,67,8,,,,844.0432547999999,None,842.8601520000002,844.0598613000002,s,1,优雅,k,1,0.7702724000000671,0.4547557000000779,sxl,f,21,2024_Apr_15_1034,mian,2021.2.3,59.873212485240074,
,,,,,,0,0,pic/flanker5.png,pic/flanker1.png,s,l,pic/AffRest1.png,,,,,,,,,,,,,,,,,,,,,,,,,0,0,0,0,0,68,68,75,,,,847.3268016000002,None,846.1430648999999,847.3435229000002,s,1,杂乱,l,1,1.0212719000001016,0.8260384999998678,sxl,f,21,2024_Apr_15_1034,mian,2021.2.3,59.873212485240074,
,,,,,,0,0,pic/flanker5.png,pic/flanker1.png,s,l,pic/AffRest1.png,,,,,,,,,,,,,,,,,,,,,,,,,0,0,0,0,0,69,69,67,,,,851.1102707,None,849.9268107000003,851.1269962000001,s,1,浪费,l,1,1.5694241999999576,0.6562340999998924,sxl,f,21,2024_Apr_15_1034,mian,2021.2.3,59.873212485240074,
,,,,,,0,0,pic/flanker5.png,pic/flanker1.png,s,l,pic/AffRest1.png,,,,,,,,,,,,,,,,,,,,,,,,,0,0,0,0,0,70,70,51,,,,855.3935096,None,854.2100702000002,855.4102456999999,s,1,消沉,l,1,1.0000437999997303,0.6286310000000412,sxl,f,21,2024_Apr_15_1034,mian,2021.2.3,59.873212485240074,
,,,,,,1,0,pic/flanker6.png,pic/flanker4.png,s,l,pic/AffRest1.png,,,,,,,,,,,,,,,,,,,,,,,,,0,0,0,0,0,71,71,21,,,,859.0601141000002,None,857.8768584,859.0768514000001,s,1,缺乏,l,1,1.4586684999999306,0.6459036000001106,sxl,f,21,2024_Apr_15_1034,mian,2021.2.3,59.873212485240074,
,,,,,,0,1,pic/flanker6.png,pic/flanker2.png,a,k,pic/AffRest1.png,,,,,,,,,,,,,,,,,,,,,,,,,0,0,0,0,0,72,72,42,,,,862.9933610000003,None,861.8100190999999,863.0100668999999,a,1,公平,k,1,1.5683214999999109,1.0963286999999582,sxl,f,21,2024_Apr_15_1034,mian,2021.2.3,59.873212485240074,
,,,,,,1,0,pic/flanker6.png,pic/flanker4.png,s,l,pic/AffRest1.png,,,,,,,,,,,,,,,,,,,,,,,,,0,0,0,0,0,73,73,45,,,,867.5266449000001,None,866.3432385000001,867.5433702999999,s,1,怀疑,l,1,0.9494445999998788,0.6390067000002091,sxl,f,21,2024_Apr_15_1034,mian,2021.2.3,59.873212485240074,
,,,,,,1,1,pic/flanker6.png,pic/flanker4.png,s,k,pic/AffRest1.png,,,,,,,,,,,,,,,,,,,,,,,,,0,0,0,0,0,74,74,38,,,,871.0601793999999,None,869.8767339999999,871.0767620000001,s,1,正直,k,1,1.0220604999999523,0.7006578000000445,sxl,f,21,2024_Apr_15_1034,mian,2021.2.3,59.873212485240074,
,,,,,,0,1,pic/flanker6.png,pic/flanker2.png,a,k,pic/AffRest1.png,,,,,,,,,,,,,,,,,,,,,,,,,0,0,0,0,0,75,75,50,,,,874.6768608000002,None,873.4933977000001,874.6934098000002,a,1,吉祥,k,1,1.2092959000001429,0.7083145000001423,sxl,f,21,2024_Apr_15_1034,mian,2021.2.3,59.873212485240074,
,,,,,,0,0,pic/flanker5.png,pic/flanker1.png,s,l,pic/AffRest1.png,,,,,,,,,,,,,,,,,,,,,,,,,0,0,0,0,0,76,76,35,,,,878.5434206999998,None,877.3601920000001,878.5601621999999,s,1,沮丧,l,1,0.8466920999999274,0.9318311999995785,sxl,f,21,2024_Apr_15_1034,mian,2021.2.3,59.873212485240074,
,,,,,,0,1,pic/flanker6.png,pic/flanker2.png,a,k,pic/AffRest1.png,,,,,,,,,,,,,,,,,,,,,,,,,0,0,0,0,0,77,77,10,,,,882.3768318000002,None,881.193413,882.3934669999999,a,1,享受,k,1,0.9334068000002844,1.1357896999998047,sxl,f,21,2024_Apr_15_1034,mian,2021.2.3,59.873212485240074,
,,,,,,1,0,pic/flanker6.png,pic/flanker4.png,s,l,pic/AffRest1.png,,,,,,,,,,,,,,,,,,,,,,,,,0,0,0,0,0,78,78,29,,,,886.3266635,None,885.1434730999999,886.3434593000002,s,1,胡涂,l,1,1.178324900000007,0.7393071000001328,sxl,f,21,2024_Apr_15_1034,mian,2021.2.3,59.873212485240074,
,,,,,,0,0,pic/flanker5.png,pic/flanker1.png,s,l,pic/AffRest1.png,,,,,,,,,,,,,,,,,,,,,,,,,0,0,0,0,0,79,79,27,,,,890.2768042000002,None,889.0933337000001,890.2934516999999,s,1,郁闷,l,1,0.8140740000003461,0.46864240000013524,sxl,f,21,2024_Apr_15_1034,mian,2021.2.3,59.873212485240074,
,,,,,,,,,,,,pic/AffRest1.png,,,,,,,,,,,,,,,,,,,,,,,,,0,0,0,0,,,,,,,,,,,,,,,,,,,sxl,f,21,2024_Apr_15_1034,mian,2021.2.3,59.873212485240074,
,,,,,,1,1,pic/flanker5.png,pic/flanker3.png,a,k,pic/AffRest2.png,,,,,,,,,,,,,,,,,,,,,,,,,0,1,1,1,0,0,0,28,,,,898.4266877999999,None,897.2374897,898.4434311999998,a,1,吉祥,k,1,0.7767439000003833,0.6852914000000965,sxl,f,21,2024_Apr_15_1034,mian,2021.2.3,59.873212485240074,
,,,,,,0,1,pic/flanker5.png,pic/flanker1.png,s,k,pic/AffRest2.png,,,,,,,,,,,,,,,,,,,,,,,,,0,1,1,1,0,1,1,16,,,,901.8933021000003,None,900.7101224000003,901.9101338,s,1,舒畅,k,1,0.669502900000225,0.5139278000001468,sxl,f,21,2024_Apr_15_1034,mian,2021.2.3,59.873212485240074,
,,,,,,1,0,pic/flanker6.png,pic/flanker4.png,s,l,pic/AffRest2.png,,,,,,,,,,,,,,,,,,,,,,,,,0,1,1,1,0,2,2,45,,,,905.0767331000002,None,903.8934801,905.0934333,s,1,忧虑,l,1,0.8455416000001605,0.6244161999998141,sxl,f,21,2024_Apr_15_1034,mian,2021.2.3,59.873212485240074,
,,,,,,1,1,pic/flanker6.png,pic/flanker4.png,s,k,pic/AffRest2.png,,,,,,,,,,,,,,,,,,,,,,,,,0,1,1,1,0,3,3,30,,,,908.4430883,None,907.2595940000001,908.4600636,s,1,秀丽,k,1,0.6056769000001623,0.6587203999997655,sxl,f,21,2024_Apr_15_1034,mian,2021.2.3,59.873212485240074,
,,,,,,1,1,pic/flanker6.png,pic/flanker4.png,s,k,pic/AffRest2.png,,,,,,,,,,,,,,,,,,,,,,,,,0,1,1,1,0,4,4,78,,,,911.6598611,None,910.4760532999999,911.6763890000002,s,1,鲜艳,k,1,0.7376784000002772,0.6661473999997725,sxl,f,21,2024_Apr_15_1034,mian,2021.2.3,59.873212485240074,
,,,,,,1,0,pic/flanker6.png,pic/flanker4.png,s,l,pic/AffRest2.png,,,,,,,,,,,,,,,,,,,,,,,,,0,1,1,1,0,5,5,77,,,,914.9600521000002,None,913.7760426,914.9766548000002,s,1,缺乏,l,1,1.2468457999998463,0.9080143999999564,sxl,f,21,2024_Apr_15_1034,mian,2021.2.3,59.873212485240074,
,,,,,,0,1,pic/flanker6.png,pic/flanker2.png,a,k,pic/AffRest2.png,,,,,,,,,,,,,,,,,,,,,,,,,0,1,1,1,0,6,6,50,,,,919.1600278000001,None,917.9766181,919.1766356000003,a,1,敬佩,k,1,1.0704055000001063,0.782094799999868,sxl,f,21,2024_Apr_15_1034,mian,2021.2.3,59.873212485240074,
,,,,,,0,0,pic/flanker6.png,pic/flanker2.png,a,l,pic/AffRest2.png,,,,,,,,,,,,,,,,,,,,,,,,,0,1,1,1,0,7,7,49,,,,923.0266936000003,None,921.8433911000002,923.0433551000001,a,1,伤心,l,1,0.9550748999999996,0.770857800000158,sxl,f,21,2024_Apr_15_1034,mian,2021.2.3,59.873212485240074,
,,,,,,0,0,pic/flanker5.png,pic/flanker1.png,s,l,pic/AffRest2.png,,,,,,,,,,,,,,,,,,,,,,,,,0,1,1,1,0,8,8,43,,,,926.6433016000001,None,925.4600966000003,926.6601068,s,1,慌忙,l,1,1.128755000000183,0.9214646999998877,sxl,f,21,2024_Apr_15_1034,mian,2021.2.3,59.873212485240074,
,,,,,,1,0,pic/flanker5.png,pic/flanker3.png,a,l,pic/AffRest2.png,,,,,,,,,,,,,,,,,,,,,,,,,0,1,1,1,0,9,9,63,,,,930.6432322,None,929.4599828999999,930.6599187000002,a,1,罚款,l,1,0.8421720999999707,1.1267548999999235,sxl,f,21,2024_Apr_15_1034,mian,2021.2.3,59.873212485240074,
,,,,,,1,1,pic/flanker5.png,pic/flanker3.png,a,k,pic/AffRest2.png,,,,,,,,,,,,,,,,,,,,,,,,,0,1,1,1,0,10,10,60,,,,934.4933587,None,933.3099127999999,934.5100611000003,a,1,瑰丽,k,1,1.3408252000003813,0.8237210999996023,sxl,f,21,2024_Apr_15_1034,mian,2021.2.3,59.873212485240074,
,,,,,,1,0,pic/flanker5.png,pic/flanker3.png,a,l,pic/AffRest2.png,,,,,,,,,,,,,,,,,,,,,,,,,0,1,1,1,0,11,11,15,,,,938.6599998000002,None,937.4766359999999,938.6764541000002,a,1,逃避,l,1,2.086711199999627,0.7941861999997855,sxl,f,21,2024_Apr_15_1034,mian,2021.2.3,59.873212485240074,
,,,,,,0,1,pic/flanker5.png,pic/flanker1.png,s,k,pic/AffRest2.png,,,,,,,,,,,,,,,,,,,,,,,,,0,1,1,1,0,12,12,32,,,,943.6100716999999,None,942.4266621000002,943.6266159000002,s,1,畅销,k,1,1.1532571000002463,1.2481121000000712,sxl,f,21,2024_Apr_15_1034,mian,2021.2.3,59.873212485240074,
,,,,,,1,0,pic/flanker6.png,pic/flanker4.png,s,l,pic/AffRest2.png,,,,,,,,,,,,,,,,,,,,,,,,,0,1,1,1,0,13,13,13,,,,947.9100613999999,None,946.7265613,947.9266186,s,1,处罚,l,1,0.7382299000000785,0.9435061999997743,sxl,f,21,2024_Apr_15_1034,mian,2021.2.3,59.873212485240074,
,,,,,,0,0,pic/flanker6.png,pic/flanker2.png,a,l,pic/AffRest2.png,,,,,,,,,,,,,,,,,,,,,,,,,0,1,1,1,0,14,14,9,,,,951.5433290999999,None,950.3599953000003,951.5598293000003,a,1,怀疑,l,1,1.5042054000000462,0.9732374000000164,sxl,f,21,2024_Apr_15_1034,mian,2021.2.3,59.873212485240074,
,,,,,,1,0,pic/flanker6.png,pic/flanker4.png,s,l,pic/AffRest2.png,,,,,,,,,,,,,,,,,,,,,,,,,0,1,1,1,0,15,15,21,,,,955.8599884,None,954.6766121999999,955.8766831000003,s,1,别扭,l,1,0.7450366000002759,0.7018935000000965,sxl,f,21,2024_Apr_15_1034,mian,2021.2.3,59.873212485240074,
,,,,,,1,0,pic/flanker6.png,pic/flanker4.png,s,l,pic/AffRest2.png,,,,,,,,,,,,,,,,,,,,,,,,,0,1,1,1,0,16,16,29,,,,959.3599502000002,None,958.1765770000002,959.3767312,s,1,冷笑,l,1,0.6844750999998723,1.3458579000002828,sxl,f,21,2024_Apr_15_1034,mian,2021.2.3,59.873212485240074,
,,,,,,1,0,pic/flanker6.png,pic/flanker4.png,s,l,pic/AffRest2.png,,,,,,,,,,,,,,,,,,,,,,,,,0,1,1,1,0,17,17,37,,,,963.3264911000001,None,962.1432964,963.3431552000002,s,1,沮丧,l,1,1.6415666000002602,0.6500262999998085,sxl,f,21,2024_Apr_15_1034,mian,2021.2.3,59.873212485240074,
,,,,,,1,0,pic/flanker5.png,pic/flanker3.png,a,l,pic/AffRest2.png,,,,,,,,,,,,,,,,,,,,,,,,,0,1,1,1,0,18,18,47,,,,967.6097089999998,None,966.4266886,967.6266393000001,a,1,浪费,l,1,1.5853093999999146,0.7877592999998342,sxl,f,21,2024_Apr_15_1034,mian,2021.2.3,59.873212485240074,
,,,,,,1,1,pic/flanker6.png,pic/flanker4.png,s,k,pic/AffRest2.png,,,,,,,,,,,,,,,,,,,,,,,,,0,1,1,1,0,19,19,70,,,,971.8932485,None,970.7098295000001,971.9098475000001,s,1,永恒,k,1,0.763625100000354,0.6562205999998696,sxl,f,21,2024_Apr_15_1034,mian,2021.2.3,59.873212485240074,
,,,,,,0,1,pic/flanker6.png,pic/flanker2.png,a,k,pic/AffRest2.png,,,,,,,,,,,,,,,,,,,,,,,,,0,1,1,1,0,20,20,2,,,,975.1932334000003,None,974.0098653999999,975.2099045999998,a,1,俊秀,k,1,0.6783825000002253,0.6490717000001496,sxl,f,21,2024_Apr_15_1034,mian,2021.2.3,59.873212485240074,
,,,,,,0,1,pic/flanker6.png,pic/flanker2.png,a,k,pic/AffRest2.png,,,,,,,,,,,,,,,,,,,,,,,,,0,1,1,1,0,21,21,34,,,,978.5265635999999,None,977.3431457000002,978.5431910000002,a,1,卓越,k,1,0.9763864000001377,0.6761604999996962,sxl,f,21,2024_Apr_15_1034,mian,2021.2.3,59.873212485240074,
,,,,,,0,0,pic/flanker5.png,pic/flanker1.png,s,l,pic/AffRest2.png,,,,,,,,,,,,,,,,,,,,,,,,,0,1,1,1,0,22,22,27,,,,982.2264502000003,None,981.0431193,982.2432377999999,s,1,自卑,l,1,0.7829179000000295,0.6346840999999586,sxl,f,21,2024_Apr_15_1034,mian,2021.2.3,59.873212485240074,
,,,,,,0,1,pic/flanker6.png,pic/flanker2.png,a,k,pic/AffRest2.png,,,,,,,,,,,,,,,,,,,,,,,,,0,1,1,1,0,23,23,58,,,,985.5599035999999,None,984.3765719000003,985.5766532000002,a,1,享受,k,1,1.195995099999891,0.6435138000001643,sxl,f,21,2024_Apr_15_1034,mian,2021.2.3,59.873212485240074,
,,,,,,0,0,pic/flanker5.png,pic/flanker1.png,s,l,pic/AffRest2.png,,,,,,,,,,,,,,,,,,,,,,,,,0,1,1,1,0,24,24,67,,,,989.4266077000002,None,988.2433409,989.4431637000002,s,1,穷苦,l,1,0.9707969999999477,0.665375099999892,sxl,f,21,2024_Apr_15_1034,mian,2021.2.3,59.873212485240074,
,,,,,,1,1,pic/flanker5.png,pic/flanker3.png,a,k,pic/AffRest2.png,,,,,,,,,,,,,,,,,,,,,,,,,0,1,1,1,0,25,25,44,,,,993.0598298,None,991.8763942,993.0766260999999,a,1,羡慕,k,1,1.2344318999998904,1.0418140000001586,sxl,f,21,2024_Apr_15_1034,mian,2021.2.3,59.873212485240074,
,,,,,,0,0,pic/flanker6.png,pic/flanker2.png,a,l,pic/AffRest2.png,,,,,,,,,,,,,,,,,,,,,,,,,0,1,1,1,0,26,26,73,,,,997.3766123999999,None,996.1932700000002,997.3932006999999,a,1,悲观,l,1,0.7421483000002809,0.6632672000000639,sxl,f,21,2024_Apr_15_1034,mian,2021.2.3,59.873212485240074,
,,,,,,1,1,pic/flanker5.png,pic/flanker3.png,a,k,pic/AffRest2.png,,,,,,,,,,,,,,,,,,,,,,,,,0,1,1,1,0,27,27,76,,,,1000.8268294,None,999.6430774999999,1000.8435198000002,a,1,正直,k,1,0.8000622999998086,0.9772329000002173,sxl,f,21,2024_Apr_15_1034,mian,2021.2.3,59.873212485240074,
,,,,,,1,1,pic/flanker6.png,pic/flanker4.png,s,k,pic/AffRest2.png,,,,,,,,,,,,,,,,,,,,,,,,,0,1,1,1,0,28,28,46,,,,1004.5926626999999,None,1003.4093536,1004.6096695000001,s,1,清秀,k,1,0.6925732999998218,1.3741420000001199,sxl,f,21,2024_Apr_15_1034,mian,2021.2.3,59.873212485240074,
,,,,,,1,0,pic/flanker5.png,pic/flanker3.png,a,l,pic/AffRest2.png,,,,,,,,,,,,,,,,,,,,,,,,,0,1,1,1,0,29,29,31,,,,1008.4932954999999,None,1007.3097748999999,1008.5099046999999,a,1,争吵,l,1,1.1356877999996868,0.9660561000000598,sxl,f,21,2024_Apr_15_1034,mian,2021.2.3,59.873212485240074,
,,,,,,1,1,pic/flanker5.png,pic/flanker3.png,a,k,pic/AffRest2.png,,,,,,,,,,,,,,,,,,,,,,,,,0,1,1,1,0,30,30,52,,,,1012.5925692999999,None,1011.4098271000003,1012.6098176999999,a,1,富足,k,1,0.7417170999997325,0.8947739999998703,sxl,f,21,2024_Apr_15_1034,mian,2021.2.3,59.873212485240074,
,,,,,,0,0,pic/flanker5.png,pic/flanker1.png,s,l,pic/AffRest2.png,,,,,,,,,,,,,,,,,,,,,,,,,0,1,1,1,0,31,31,51,,,,1016.1096673000002,None,1014.9260088000001,1016.1263985,s,1,胡涂,l,1,0.78136510000013,0.7236824999999953,sxl,f,21,2024_Apr_15_1034,mian,2021.2.3,59.873212485240074,
,,,,,,0,0,pic/flanker6.png,pic/flanker2.png,a,l,pic/AffRest2.png,,,,,,,,,,,,,,,,,,,,,,,,,0,1,1,1,0,32,32,33,,,,1019.6098803999998,None,1018.4277080000002,1019.6431952000003,a,1,丢失,l,1,0.7604572000000189,1.2246339999996962,sxl,f,21,2024_Apr_15_1034,mian,2021.2.3,59.873212485240074,
,,,,,,0,1,pic/flanker5.png,pic/flanker1.png,s,k,pic/AffRest2.png,,,,,,,,,,,,,,,,,,,,,,,,,0,1,1,1,0,33,33,64,,,,1023.5265730000001,None,1022.3425793000001,1023.5432000999999,s,1,热切,k,1,0.6978214999999182,0.512035200000355,sxl,f,21,2024_Apr_15_1034,mian,2021.2.3,59.873212485240074,
,,,,,,0,0,pic/flanker6.png,pic/flanker2.png,a,l,pic/AffRest2.png,,,,,,,,,,,,,,,,,,,,,,,,,0,1,1,1,0,34,34,57,,,,1026.7099277000002,None,1025.5264631,1026.7264132999999,a,1,落后,l,1,0.9290031999998973,0.6832198000001881,sxl,f,21,2024_Apr_15_1034,mian,2021.2.3,59.873212485240074,
,,,,,,0,0,pic/flanker5.png,pic/flanker1.png,s,l,pic/AffRest2.png,,,,,,,,,,,,,,,,,,,,,,,,,0,1,1,1,0,35,35,35,,,,1030.2265360000001,None,1029.0431210000002,1030.2429859,s,1,懒惰,l,1,0.7460388000004059,1.0704326000000037,sxl,f,21,2024_Apr_15_1034,mian,2021.2.3,59.873212485240074,
,,,,,,0,1,pic/flanker5.png,pic/flanker1.png,s,k,pic/AffRest2.png,,,,,,,,,,,,,,,,,,,,,,,,,0,1,1,1,0,36,36,48,,,,1034.0934496,None,1032.9098348000002,1034.1096919000001,s,1,廉洁,k,1,0.8333420999997543,0.880749200000082,sxl,f,21,2024_Apr_15_1034,mian,2021.2.3,59.873212485240074,
,,,,,,1,1,pic/flanker6.png,pic/flanker4.png,s,k,pic/AffRest2.png,,,,,,,,,,,,,,,,,,,,,,,,,0,1,1,1,0,37,37,14,,,,1037.7758474000002,None,1036.5931025999998,1037.7926362000003,s,1,豪放,k,1,0.7727989999998499,0.8746933999996145,sxl,f,21,2024_Apr_15_1034,mian,2021.2.3,59.873212485240074,
,,,,,,1,1,pic/flanker6.png,pic/flanker4.png,s,k,pic/AffRest2.png,,,,,,,,,,,,,,,,,,,,,,,,,0,1,1,1,0,38,38,62,,,,1041.3599724,None,1040.1767097000002,1041.3765214999999,s,1,充裕,k,1,1.6201363999998648,0.8977185000003374,sxl,f,21,2024_Apr_15_1034,mian,2021.2.3,59.873212485240074,
,,,,,,0,1,pic/flanker6.png,pic/flanker2.png,a,k,pic/AffRest2.png,,,,,,,,,,,,,,,,,,,,,,,,,0,1,1,1,0,39,39,18,,,,1045.7765528999998,None,1044.5931845,1045.7931965000002,a,1,生动,k,1,0.7947204000001875,0.6442271000000801,sxl,f,21,2024_Apr_15_1034,mian,2021.2.3,59.873212485240074,
,,,,,,1,0,pic/flanker5.png,pic/flanker3.png,a,l,pic/AffRest2.png,,,,,,,,,,,,,,,,,,,,,,,,,0,1,1,1,0,40,40,71,,,,1049.0593082,None,1047.8765315,1049.0759395999999,a,1,心慌,l,1,1.2453464000000167,0.6575915999997051,sxl,f,21,2024_Apr_15_1034,mian,2021.2.3,59.873212485240074,
,,,,,,1,1,pic/flanker5.png,pic/flanker3.png,a,k,pic/AffRest2.png,,,,,,,,,,,,,,,,,,,,,,,,,0,1,1,1,0,41,41,4,,,,1052.9597337,None,1051.7764452000001,1052.9765259,None,0,公平,k,1,1.2976420999998481,,sxl,f,21,2024_Apr_15_1034,mian,2021.2.3,59.873212485240074,
,,,,,,0,0,pic/flanker5.png,pic/flanker1.png,s,l,pic/AffRest2.png,,,,,,,,,,,,,,,,,,,,,,,,,0,1,1,1,0,42,42,11,,,,1057.6763968999999,None,1056.4929894000002,1057.6931064,s,1,失意,l,1,0.7098819999996522,0.5421471999998175,sxl,f,21,2024_Apr_15_1034,mian,2021.2.3,59.873212485240074,
,,,,,,1,1,pic/flanker5.png,pic/flanker3.png,a,k,pic/AffRest2.png,,,,,,,,,,,,,,,,,,,,,,,,,0,1,1,1,0,43,43,68,,,,1060.9259566,None,1059.7430628000002,1060.9426442,a,1,顽强,k,1,1.1402837000000545,0.6825447999999597,sxl,f,21,2024_Apr_15_1034,mian,2021.2.3,59.873212485240074,
,,,,,,0,1,pic/flanker6.png,pic/flanker2.png,a,k,pic/AffRest2.png,,,,,,,,,,,,,,,,,,,,,,,,,0,1,1,1,0,44,44,26,,,,1064.7598213,None,1063.5765285000002,1064.7763933,a,1,留恋,k,1,0.9235586999998304,0.621647099999791,sxl,f,21,2024_Apr_15_1034,mian,2021.2.3,59.873212485240074,
,,,,,,0,1,pic/flanker5.png,pic/flanker1.png,s,k,pic/AffRest2.png,,,,,,,,,,,,,,,,,,,,,,,,,0,1,1,1,0,45,45,56,,,,1068.2931643000002,None,1067.1096780000003,1068.3097031000002,s,1,圣洁,k,1,0.6484421999998631,0.884278600000016,sxl,f,21,2024_Apr_15_1034,mian,2021.2.3,59.873212485240074,
,,,,,,1,0,pic/flanker6.png,pic/flanker4.png,s,l,pic/AffRest2.png,,,,,,,,,,,,,,,,,,,,,,,,,0,1,1,1,0,46,46,61,,,,1071.8593104000001,None,1070.6762076999998,1071.8758281,s,1,黑暗,l,1,1.2817740999998932,0.8225244000000203,sxl,f,21,2024_Apr_15_1034,mian,2021.2.3,59.873212485240074,
,,,,,,1,0,pic/flanker5.png,pic/flanker3.png,a,l,pic/AffRest2.png,,,,,,,,,,,,,,,,,,,,,,,,,0,1,1,1,0,47,47,55,,,,1075.9096917000002,None,1074.7264151,1075.926257,a,1,焦躁,l,1,0.8018062999999529,0.8645010000000184,sxl,f,21,2024_Apr_15_1034,mian,2021.2.3,59.873212485240074,
,,,,,,1,0,pic/flanker5.png,pic/flanker3.png,a,l,pic/AffRest2.png,,,,,,,,,,,,,,,,,,,,,,,,,0,1,1,1,0,48,48,39,,,,1079.5431395,None,1078.3598492,1079.5598381,a,1,堵塞,l,1,0.8433740000000398,0.8143270999999004,sxl,f,21,2024_Apr_15_1034,mian,2021.2.3,59.873212485240074,
,,,,,,0,1,pic/flanker5.png,pic/flanker1.png,s,k,pic/AffRest2.png,,,,,,,,,,,,,,,,,,,,,,,,,0,1,1,1,0,49,49,40,,,,1083.2097950000002,None,1082.0264145,1083.2264722999998,s,1,诚恳,k,1,1.8423155000000406,0.6987480999996478,sxl,f,21,2024_Apr_15_1034,mian,2021.2.3,59.873212485240074,
,,,,,,1,0,pic/flanker5.png,pic/flanker3.png,a,l,pic/AffRest2.png,,,,,,,,,,,,,,,,,,,,,,,,,0,1,1,1,0,50,50,7,,,,1087.5924043,None,1086.4095544000002,1087.6096935,a,1,杂乱,l,1,1.129655200000343,0.7365331999999398,sxl,f,21,2024_Apr_15_1034,mian,2021.2.3,59.873212485240074,
,,,,,,1,1,pic/flanker6.png,pic/flanker4.png,s,k,pic/AffRest2.png,,,,,,,,,,,,,,,,,,,,,,,,,0,1,1,1,0,51,51,54,,,,1091.4098115000002,None,1090.2262336,1091.4264210000001,s,1,珍藏,k,1,1.618986799999675,0.9491386999998213,sxl,f,21,2024_Apr_15_1034,mian,2021.2.3,59.873212485240074,
,,,,,,0,1,pic/flanker6.png,pic/flanker2.png,a,k,pic/AffRest2.png,,,,,,,,,,,,,,,,,,,,,,,,,0,1,1,1,0,52,52,42,,,,1096.0096730999999,None,1094.8264049,1096.0264978999999,a,1,振作,k,1,0.7732669000001806,0.6587930999999116,sxl,f,21,2024_Apr_15_1034,mian,2021.2.3,59.873212485240074,
,,,,,,0,0,pic/flanker6.png,pic/flanker2.png,a,l,pic/AffRest2.png,,,,,,,,,,,,,,,,,,,,,,,,,0,1,1,1,0,53,53,17,,,,1099.4431206,None,1098.2596928000003,1099.459738,a,1,损害,l,1,0.9856838000000607,0.6239172999999028,sxl,f,21,2024_Apr_15_1034,mian,2021.2.3,59.873212485240074,
,,,,,,0,0,pic/flanker5.png,pic/flanker1.png,s,l,pic/AffRest2.png,,,,,,,,,,,,,,,,,,,,,,,,,0,1,1,1,0,54,54,3,,,,1102.8763341,None,1101.6931118000002,1102.8932132,s,1,厌恶,l,1,0.8608633000003465,1.0368674000001192,sxl,f,21,2024_Apr_15_1034,mian,2021.2.3,59.873212485240074,
,,,,,,0,0,pic/flanker6.png,pic/flanker2.png,a,l,pic/AffRest2.png,,,,,,,,,,,,,,,,,,,,,,,,,0,1,1,1,0,55,55,1,,,,1106.7598003000003,None,1105.5763528000002,1106.7765167000002,a,1,烦恼,l,1,0.9178665999997975,0.9062693000000763,sxl,f,21,2024_Apr_15_1034,mian,2021.2.3,59.873212485240074,
,,,,,,1,0,pic/flanker5.png,pic/flanker3.png,a,l,pic/AffRest2.png,,,,,,,,,,,,,,,,,,,,,,,,,0,1,1,1,0,56,56,23,,,,1110.4430419999999,None,1109.2595110000002,1110.4597742,a,1,撒谎,l,1,0.8968328999999358,1.2122425999996267,sxl,f,21,2024_Apr_15_1034,mian,2021.2.3,59.873212485240074,
,,,,,,1,0,pic/flanker6.png,pic/flanker4.png,s,l,pic/AffRest2.png,,,,,,,,,,,,,,,,,,,,,,,,,0,1,1,1,0,57,57,69,,,,1114.5929776000003,None,1113.4096075000002,1114.6095989,s,1,孤单,l,1,1.039864000000307,0.683459700000185,sxl,f,21,2024_Apr_15_1034,mian,2021.2.3,59.873212485240074,
,,,,,,0,0,pic/flanker6.png,pic/flanker2.png,a,l,pic/AffRest2.png,,,,,,,,,,,,,,,,,,,,,,,,,0,1,1,1,0,58,58,41,,,,1118.3097926,None,1117.1263242,1118.3263459,a,1,禁止,l,1,0.7407978999999614,1.2354261000000406,sxl,f,21,2024_Apr_15_1034,mian,2021.2.3,59.873212485240074,
,,,,,,0,0,pic/flanker6.png,pic/flanker2.png,a,l,pic/AffRest2.png,,,,,,,,,,,,,,,,,,,,,,,,,0,1,1,1,0,59,59,65,,,,1122.3261814000002,None,1121.1429798,1122.3429927000002,a,1,轻率,l,1,0.6399188000000322,0.9533824999998615,sxl,f,21,2024_Apr_15_1034,mian,2021.2.3,59.873212485240074,
,,,,,,0,1,pic/flanker6.png,pic/flanker2.png,a,k,pic/AffRest2.png,,,,,,,,,,,,,,,,,,,,,,,,,0,1,1,1,0,60,60,66,,,,1125.9930261,None,1124.8094118,1126.0095989000001,a,1,丰满,k,1,0.8674346999996487,0.6882817000000614,sxl,f,21,2024_Apr_15_1034,mian,2021.2.3,59.873212485240074,
,,,,,,0,0,pic/flanker6.png,pic/flanker2.png,a,l,pic/AffRest2.png,,,,,,,,,,,,,,,,,,,,,,,,,0,1,1,1,0,61,61,25,,,,1129.4763934000002,None,1128.2929082,1129.492846,a,1,排斥,l,1,0.6670139000002564,0.6658892000000378,sxl,f,21,2024_Apr_15_1034,mian,2021.2.3,59.873212485240074,
,,,,,,1,1,pic/flanker6.png,pic/flanker4.png,s,k,pic/AffRest2.png,,,,,,,,,,,,,,,,,,,,,,,,,0,1,1,1,0,62,62,22,,,,1132.7597362000001,None,1131.5763648000002,1132.7764064000003,s,1,赞成,k,1,1.1507818000000043,0.6804304000002048,sxl,f,21,2024_Apr_15_1034,mian,2021.2.3,59.873212485240074,
,,,,,,0,1,pic/flanker6.png,pic/flanker2.png,a,k,pic/AffRest2.png,,,,,,,,,,,,,,,,,,,,,,,,,0,1,1,1,0,63,63,10,,,,1136.5596092,None,1135.3763528,1136.5762338,a,1,爽朗,k,1,1.4860603000001902,0.9134017000001222,sxl,f,21,2024_Apr_15_1034,mian,2021.2.3,59.873212485240074,
,,,,,,1,0,pic/flanker5.png,pic/flanker3.png,a,l,pic/AffRest2.png,,,,,,,,,,,,,,,,,,,,,,,,,0,1,1,1,0,64,64,79,,,,1140.8430499,None,1139.6594814,1140.8596646,a,1,郁闷,l,1,1.7897886999999173,0.7697621000002073,sxl,f,21,2024_Apr_15_1034,mian,2021.2.3,59.873212485240074,
,,,,,,0,0,pic/flanker5.png,pic/flanker1.png,s,l,pic/AffRest2.png,,,,,,,,,,,,,,,,,,,,,,,,,0,1,1,1,0,65,65,19,,,,1145.4262672,None,1144.2428937,1145.4427689,s,1,闷热,l,1,1.4225212999999712,0.6309761000002254,sxl,f,21,2024_Apr_15_1034,mian,2021.2.3,59.873212485240074,
,,,,,,0,0,pic/flanker5.png,pic/flanker1.png,s,l,pic/AffRest2.png,,,,,,,,,,,,,,,,,,,,,,,,,0,1,1,1,0,66,66,59,,,,1149.3594513000003,None,1148.1762309,1149.3761324000002,s,1,鲁莽,l,1,0.9642804000000069,1.004707199999757,sxl,f,21,2024_Apr_15_1034,mian,2021.2.3,59.873212485240074,
,,,,,,1,0,pic/flanker6.png,pic/flanker4.png,s,l,pic/AffRest2.png,,,,,,,,,,,,,,,,,,,,,,,,,0,1,1,1,0,67,67,5,,,,1153.2263653,None,1152.0427290000002,1153.2427868,s,1,消沉,l,1,0.6969876000002841,0.658676000000014,sxl,f,21,2024_Apr_15_1034,mian,2021.2.3,59.873212485240074,
,,,,,,0,1,pic/flanker5.png,pic/flanker1.png,s,k,pic/AffRest2.png,,,,,,,,,,,,,,,,,,,,,,,,,0,1,1,1,0,68,68,72,,,,1156.4094783,None,1155.2261191000002,1156.4263162000002,s,1,雄厚,k,1,0.8109233999998651,0.9864161000000422,sxl,f,21,2024_Apr_15_1034,mian,2021.2.3,59.873212485240074,
,,,,,,1,1,pic/flanker6.png,pic/flanker4.png,s,k,pic/AffRest2.png,,,,,,,,,,,,,,,,,,,,,,,,,0,1,1,1,0,69,69,6,,,,1160.1928078,None,1159.0096506999998,1160.2095626,s,1,奉献,k,1,0.715752799999791,0.633150999999998,sxl,f,21,2024_Apr_15_1034,mian,2021.2.3,59.873212485240074,
,,,,,,0,1,pic/flanker5.png,pic/flanker1.png,s,k,pic/AffRest2.png,,,,,,,,,,,,,,,,,,,,,,,,,0,1,1,1,0,70,70,8,,,,1163.5929818,None,1162.4095357,1163.6096545999999,s,1,精致,k,1,0.6162269999999808,0.6364587000002757,sxl,f,21,2024_Apr_15_1034,mian,2021.2.3,59.873212485240074,
,,,,,,0,1,pic/flanker5.png,pic/flanker1.png,s,k,pic/AffRest2.png,,,,,,,,,,,,,,,,,,,,,,,,,0,1,1,1,0,71,71,0,,,,1166.7261944000002,None,1165.5424349999998,1166.7429917,s,1,前进,k,1,0.7392176999996991,0.5236131999999998,sxl,f,21,2024_Apr_15_1034,mian,2021.2.3,59.873212485240074,
,,,,,,0,1,pic/flanker6.png,pic/flanker2.png,a,k,pic/AffRest2.png,,,,,,,,,,,,,,,,,,,,,,,,,0,1,1,1,0,72,72,74,,,,1169.9262957,None,1168.7429777000002,1169.9429171000002,a,1,有利,k,1,1.3950245000000905,1.0919072000001506,sxl,f,21,2024_Apr_15_1034,mian,2021.2.3,59.873212485240074,
,,,,,,1,1,pic/flanker6.png,pic/flanker4.png,s,k,pic/AffRest2.png,,,,,,,,,,,,,,,,,,,,,,,,,0,1,1,1,0,73,73,38,,,,1174.4430882000001,None,1173.2594838,1174.4596293,s,1,典雅,k,1,0.6512182999999823,0.7942137999998522,sxl,f,21,2024_Apr_15_1034,mian,2021.2.3,59.873212485240074,
,,,,,,0,1,pic/flanker5.png,pic/flanker1.png,s,k,pic/AffRest2.png,,,,,,,,,,,,,,,,,,,,,,,,,0,1,1,1,0,74,74,24,,,,1177.8922823000003,None,1176.7088754000001,1177.9093112,s,1,优雅,k,1,0.6330799000002116,0.6838827999999921,sxl,f,21,2024_Apr_15_1034,mian,2021.2.3,59.873212485240074,
,,,,,,1,1,pic/flanker5.png,pic/flanker3.png,a,k,pic/AffRest2.png,,,,,,,,,,,,,,,,,,,,,,,,,0,1,1,1,0,75,75,20,,,,1181.0766122,None,1179.8927649000002,1181.0928362,a,1,如愿,k,1,0.6974769000003107,1.0774719000000914,sxl,f,21,2024_Apr_15_1034,mian,2021.2.3,59.873212485240074,
,,,,,,1,1,pic/flanker5.png,pic/flanker3.png,a,k,pic/AffRest2.png,,,,,,,,,,,,,,,,,,,,,,,,,0,1,1,1,0,76,76,12,,,,1184.876304,None,1183.6928997,1184.8928297000002,a,1,旺盛,k,1,0.7747644999999466,0.8319378000001052,sxl,f,21,2024_Apr_15_1034,mian,2021.2.3,59.873212485240074,
,,,,,,0,0,pic/flanker5.png,pic/flanker1.png,s,l,pic/AffRest2.png,,,,,,,,,,,,,,,,,,,,,,,,,0,1,1,1,0,77,77,75,,,,1188.426286,None,1187.2429263,1188.4428733,s,1,假冒,l,1,1.1420705999998972,0.4082546999998158,sxl,f,21,2024_Apr_15_1034,mian,2021.2.3,59.873212485240074,
,,,,,,1,1,pic/flanker5.png,pic/flanker3.png,a,k,pic/AffRest2.png,,,,,,,,,,,,,,,,,,,,,,,,,0,1,1,1,0,78,78,36,,,,1191.9429303000002,None,1190.7593643999999,1191.9594153000003,a,1,富丽,k,1,0.6357090999999855,0.6310424000002968,sxl,f,21,2024_Apr_15_1034,mian,2021.2.3,59.873212485240074,
,,,,,,1,0,pic/flanker6.png,pic/flanker4.png,s,l,pic/AffRest2.png,,,,,,,,,,,,,,,,,,,,,,,,,0,1,1,1,0,79,79,53,,,,1195.076318,None,1193.8928052,1195.0927955000002,s,1,嘲笑,l,1,1.1736071999998785,0.6404434000000947,sxl,f,21,2024_Apr_15_1034,mian,2021.2.3,59.873212485240074,
,,,,,,,,,,,,pic/AffRest2.png,,,,,,,,,,,,,,,,,,,,,,,,,0,1,1,1,,,,,,,,,,,,,,,,,,,sxl,f,21,2024_Apr_15_1034,mian,2021.2.3,59.873212485240074,
,,,,,,0,1,pic/flanker6.png,pic/flanker2.png,a,k,pic/AffRest3.png,,,,,,,,,,,,,,,,,,,,,,,,,0,2,2,2,0,0,0,34,,,,1206.2760956000002,None,1205.0865342000002,1206.2928667,a,1,生动,k,1,0.7231399000002057,0.6813988999997491,sxl,f,21,2024_Apr_15_1034,mian,2021.2.3,59.873212485240074,
,,,,,,0,0,pic/flanker5.png,pic/flanker1.png,s,l,pic/AffRest3.png,,,,,,,,,,,,,,,,,,,,,,,,,0,2,2,2,0,1,1,67,,,,1209.6928364999999,None,1208.5095735,1209.7093986,s,1,轻率,l,1,0.9474639999998544,0.6712380999997549,sxl,f,21,2024_Apr_15_1034,mian,2021.2.3,59.873212485240074,
,,,,,,1,0,pic/flanker5.png,pic/flanker3.png,a,l,pic/AffRest3.png,,,,,,,,,,,,,,,,,,,,,,,,,0,2,2,2,0,2,2,63,,,,1213.3093299000002,None,1212.1255291000002,1213.3259214,None,0,处罚,l,1,0.7232445999998163,,sxl,f,21,2024_Apr_15_1034,mian,2021.2.3,59.873212485240074,
,,,,,,0,0,pic/flanker6.png,pic/flanker2.png,a,l,pic/AffRest3.png,,,,,,,,,,,,,,,,,,,,,,,,,0,2,2,2,0,3,3,41,,,,1217.2590020000002,None,1216.0762628000002,1217.2754399,a,1,假冒,l,1,0.6907677000003787,0.6352925000001051,sxl,f,21,2024_Apr_15_1034,mian,2021.2.3,59.873212485240074,
,,,,,,1,1,pic/flanker5.png,pic/flanker3.png,a,k,pic/AffRest3.png,,,,,,,,,,,,,,,,,,,,,,,,,0,2,2,2,0,4,4,28,,,,1220.6261429,None,1219.4428106999999,1220.6427218,a,1,永恒,k,1,0.6713168999999652,0.760683699999845,sxl,f,21,2024_Apr_15_1034,mian,2021.2.3,59.873212485240074,
,,,,,,0,0,pic/flanker5.png,pic/flanker1.png,s,l,pic/AffRest3.png,,,,,,,,,,,,,,,,,,,,,,,,,0,2,2,2,0,5,5,75,,,,1223.9595927,None,1222.7761658,1223.9762460000002,s,1,黑暗,l,1,0.903595199999927,1.1384112000000641,sxl,f,21,2024_Apr_15_1034,mian,2021.2.3,59.873212485240074,
,,,,,,1,0,pic/flanker6.png,pic/flanker4.png,s,l,pic/AffRest3.png,,,,,,,,,,,,,,,,,,,,,,,,,0,2,2,2,0,6,6,5,,,,1227.9088666000002,None,1226.7261107,1227.9260751000002,s,1,忧虑,l,1,1.2425293000001147,0.939357100000052,sxl,f,21,2024_Apr_15_1034,mian,2021.2.3,59.873212485240074,
,,,,,,0,0,pic/flanker6.png,pic/flanker2.png,a,l,pic/AffRest3.png,,,,,,,,,,,,,,,,,,,,,,,,,0,2,2,2,0,7,7,33,,,,1232.0760891,None,1230.8927506,1232.0929144000002,a,1,悲观,l,1,0.7321833999999399,0.7038172000002305,sxl,f,21,2024_Apr_15_1034,mian,2021.2.3,59.873212485240074,
,,,,,,0,1,pic/flanker5.png,pic/flanker1.png,s,k,pic/AffRest3.png,,,,,,,,,,,,,,,,,,,,,,,,,0,2,2,2,0,8,8,32,,,,1235.4592877,None,1234.275506,1235.4759242,s,1,爽朗,k,1,0.708961299999828,0.720631499999854,sxl,f,21,2024_Apr_15_1034,mian,2021.2.3,59.873212485240074,
,,,,,,1,0,pic/flanker6.png,pic/flanker4.png,s,l,pic/AffRest3.png,,,,,,,,,,,,,,,,,,,,,,,,,0,2,2,2,0,9,9,53,,,,1238.8589035,None,1237.6762761,1238.8760796000001,s,1,落后,l,1,0.8361408000000665,0.6220341000002918,sxl,f,21,2024_Apr_15_1034,mian,2021.2.3,59.873212485240074,
,,,,,,1,0,pic/flanker5.png,pic/flanker3.png,a,l,pic/AffRest3.png,,,,,,,,,,,,,,,,,,,,,,,,,0,2,2,2,0,10,10,79,,,,1242.1596036,None,1240.9761813999999,1242.1762069000001,a,1,伤心,l,1,0.9104533999998239,0.64803239999992,sxl,f,21,2024_Apr_15_1034,mian,2021.2.3,59.873212485240074,
,,,,,,0,1,pic/flanker5.png,pic/flanker1.png,s,k,pic/AffRest3.png,,,,,,,,,,,,,,,,,,,,,,,,,0,2,2,2,0,11,11,40,,,,1245.5760911000002,None,1244.3928758000002,1245.5927858999999,s,1,优雅,k,1,0.9232842000001256,0.7318264000000454,sxl,f,21,2024_Apr_15_1034,mian,2021.2.3,59.873212485240074,
,,,,,,1,0,pic/flanker5.png,pic/flanker3.png,a,l,pic/AffRest3.png,,,,,,,,,,,,,,,,,,,,,,,,,0,2,2,2,0,12,12,55,,,,1249.0762292,None,1247.8927152,1249.0926617,a,1,鲁莽,l,1,0.799639500000012,0.852415800000017,sxl,f,21,2024_Apr_15_1034,mian,2021.2.3,59.873212485240074,
,,,,,,0,1,pic/flanker5.png,pic/flanker1.png,s,k,pic/AffRest3.png,,,,,,,,,,,,,,,,,,,,,,,,,0,2,2,2,0,13,13,24,,,,1252.7753455000002,None,1251.5930375000003,1252.8087643,s,1,典雅,k,1,0.7049142000000757,0.5177980000003117,sxl,f,21,2024_Apr_15_1034,mian,2021.2.3,59.873212485240074,
,,,,,,1,0,pic/flanker5.png,pic/flanker3.png,a,l,pic/AffRest3.png,,,,,,,,,,,,,,,,,,,,,,,,,0,2,2,2,0,14,14,23,,,,1255.9428265000001,None,1254.7585695000002,1255.9587015000002,a,1,胡涂,l,1,0.813765400000193,0.7587894999996934,sxl,f,21,2024_Apr_15_1034,mian,2021.2.3,59.873212485240074,
,,,,,,1,1,pic/flanker6.png,pic/flanker4.png,s,k,pic/AffRest3.png,,,,,,,,,,,,,,,,,,,,,,,,,0,2,2,2,0,15,15,62,,,,1259.3928945000002,None,1258.2092853,1259.4094158000003,s,1,顽强,k,1,0.8468861999999717,0.77462770000011,sxl,f,21,2024_Apr_15_1034,mian,2021.2.3,59.873212485240074,
,,,,,,0,1,pic/flanker5.png,pic/flanker1.png,s,k,pic/AffRest3.png,,,,,,,,,,,,,,,,,,,,,,,,,0,2,2,2,0,16,16,0,,,,1262.9427022,None,1261.7593139,1262.9594111000001,s,1,舒畅,k,1,0.7703481000003194,0.5797871999998279,sxl,f,21,2024_Apr_15_1034,mian,2021.2.3,59.873212485240074,
,,,,,,1,1,pic/flanker6.png,pic/flanker4.png,s,k,pic/AffRest3.png,,,,,,,,,,,,,,,,,,,,,,,,,0,2,2,2,0,17,17,38,,,,1266.1261130000003,None,1264.9426723000001,1266.1428401000003,s,1,鲜艳,k,1,1.3680586999998923,0.7451836999998704,sxl,f,21,2024_Apr_15_1034,mian,2021.2.3,59.873212485240074,
,,,,,,1,0,pic/flanker6.png,pic/flanker4.png,s,l,pic/AffRest3.png,,,,,,,,,,,,,,,,,,,,,,,,,0,2,2,2,0,18,18,69,,,,1270.2258806,None,1269.0427327000002,1270.2428036000001,s,1,浪费,l,1,0.7513836000002811,0.7701285999996799,sxl,f,21,2024_Apr_15_1034,mian,2021.2.3,59.873212485240074,
,,,,,,1,1,pic/flanker5.png,pic/flanker3.png,a,k,pic/AffRest3.png,,,,,,,,,,,,,,,,,,,,,,,,,0,2,2,2,0,19,19,60,,,,1273.7261945,None,1272.5427517000003,1273.7426928,a,1,公平,k,1,0.7115565000003699,1.1386194000001524,sxl,f,21,2024_Apr_15_1034,mian,2021.2.3,59.873212485240074,
,,,,,,0,0,pic/flanker6.png,pic/flanker2.png,a,l,pic/AffRest3.png,,,,,,,,,,,,,,,,,,,,,,,,,0,2,2,2,0,20,20,73,,,,1277.6094979,None,1276.4259715000003,1277.6260875000003,a,1,穷苦,l,1,0.8089021000000685,0.6634718000000248,sxl,f,21,2024_Apr_15_1034,mian,2021.2.3,59.873212485240074,
,,,,,,0,1,pic/flanker5.png,pic/flanker1.png,s,k,pic/AffRest3.png,,,,,,,,,,,,,,,,,,,,,,,,,0,2,2,2,0,21,21,72,,,,1281.1260584000001,None,1279.9427694,1281.1427408,s,1,有利,k,1,1.5437356000002183,0.6314518999997745,sxl,f,21,2024_Apr_15_1034,mian,2021.2.3,59.873212485240074,
,,,,,,0,0,pic/flanker6.png,pic/flanker2.png,a,l,pic/AffRest3.png,,,,,,,,,,,,,,,,,,,,,,,,,0,2,2,2,0,22,22,49,,,,1285.1427202,None,1283.9593175999998,1285.159334,a,1,撒谎,l,1,0.7857229999999618,0.7011969000000136,sxl,f,21,2024_Apr_15_1034,mian,2021.2.3,59.873212485240074,
,,,,,,1,1,pic/flanker5.png,pic/flanker3.png,a,k,pic/AffRest3.png,,,,,,,,,,,,,,,,,,,,,,,,,0,2,2,2,0,23,23,4,,,,1288.5926832999999,None,1287.4092838000001,1288.6094686000001,a,1,赞成,k,1,0.9585865999997623,0.7237863000000289,sxl,f,21,2024_Apr_15_1034,mian,2021.2.3,59.873212485240074,
,,,,,,0,1,pic/flanker6.png,pic/flanker2.png,a,k,pic/AffRest3.png,,,,,,,,,,,,,,,,,,,,,,,,,0,2,2,2,0,24,24,42,,,,1292.1591976000004,None,1290.9759807000005,1292.1762636999997,a,1,振作,k,1,0.7810749000000214,0.5793513999997231,sxl,f,21,2024_Apr_15_1034,mian,2021.2.3,59.873212485240074,
,,,,,,1,0,pic/flanker6.png,pic/flanker4.png,s,l,pic/AffRest3.png,,,,,,,,,,,,,,,,,,,,,,,,,0,2,2,2,0,25,25,29,,,,1295.3927262000002,None,1294.2093044999997,1295.4094790000004,s,1,冷笑,l,1,0.7734022999993613,0.5586610999998811,sxl,f,21,2024_Apr_15_1034,mian,2021.2.3,59.873212485240074,
,,,,,,1,0,pic/flanker6.png,pic/flanker4.png,s,l,pic/AffRest3.png,,,,,,,,,,,,,,,,,,,,,,,,,0,2,2,2,0,26,26,13,,,,1298.5594953000004,None,1297.3760282999997,1298.5759481,s,1,损害,l,1,0.6106563999992431,0.6088849999996455,sxl,f,21,2024_Apr_15_1034,mian,2021.2.3,59.873212485240074,
,,,,,,1,1,pic/flanker6.png,pic/flanker4.png,s,k,pic/AffRest3.png,,,,,,,,,,,,,,,,,,,,,,,,,0,2,2,2,0,27,27,6,,,,1301.8093037000003,None,1300.6260832000003,1301.8260221000005,s,1,圣洁,k,1,0.6802674000000479,0.6177848999996058,sxl,f,21,2024_Apr_15_1034,mian,2021.2.3,59.873212485240074,
,,,,,,1,1,pic/flanker6.png,pic/flanker4.png,s,k,pic/AffRest3.png,,,,,,,,,,,,,,,,,,,,,,,,,0,2,2,2,0,28,28,54,,,,1304.9928666,None,1303.8093507999997,1305.0092793,s,1,如愿,k,1,0.733472900000379,0.8026882999993177,sxl,f,21,2024_Apr_15_1034,mian,2021.2.3,59.873212485240074,
,,,,,,0,1,pic/flanker6.png,pic/flanker2.png,a,k,pic/AffRest3.png,,,,,,,,,,,,,,,,,,,,,,,,,0,2,2,2,0,29,29,74,,,,1308.3592258000003,None,1307.1760952999998,1308.3760915999997,a,1,清秀,k,1,1.1229150999997728,1.0680904000000737,sxl,f,21,2024_Apr_15_1034,mian,2021.2.3,59.873212485240074,
,,,,,,1,0,pic/flanker5.png,pic/flanker3.png,a,l,pic/AffRest3.png,,,,,,,,,,,,,,,,,,,,,,,,,0,2,2,2,0,30,30,39,,,,1312.4927897000002,None,1311.3094423999996,1312.5095962999999,a,1,嘲笑,l,1,0.7588107000001401,0.7174432000001616,sxl,f,21,2024_Apr_15_1034,mian,2021.2.3,59.873212485240074,
,,,,,,1,0,pic/flanker5.png,pic/flanker3.png,a,l,pic/AffRest3.png,,,,,,,,,,,,,,,,,,,,,,,,,0,2,2,2,0,31,31,71,,,,1315.9093489000002,None,1314.7262157999999,1315.9259938,a,1,失意,l,1,0.7608028000004197,0.7468352000005325,sxl,f,21,2024_Apr_15_1034,mian,2021.2.3,59.873212485240074,
,,,,,,1,1,pic/flanker5.png,pic/flanker3.png,a,k,pic/AffRest3.png,,,,,,,,,,,,,,,,,,,,,,,,,0,2,2,2,0,32,32,36,,,,1319.4593501000004,None,1318.2757158999998,1319.4759251,a,1,畅销,k,1,1.0158365999996022,0.8248560000001817,sxl,f,21,2024_Apr_15_1034,mian,2021.2.3,59.873212485240074,
,,,,,,1,1,pic/flanker5.png,pic/flanker3.png,a,k,pic/AffRest3.png,,,,,,,,,,,,,,,,,,,,,,,,,0,2,2,2,0,33,33,44,,,,1323.1925834999997,None,1322.0092637000002,1323.2092586000003,a,1,奉献,k,1,0.5793443000002299,0.6311587000000145,sxl,f,21,2024_Apr_15_1034,mian,2021.2.3,59.873212485240074,
,,,,,,0,0,pic/flanker6.png,pic/flanker2.png,a,l,pic/AffRest3.png,,,,,,,,,,,,,,,,,,,,,,,,,0,2,2,2,0,34,34,17,,,,1326.4261177000003,None,1325.2427063999999,1326.4426107000004,a,1,心慌,l,1,0.9385271999999532,1.057378599999538,sxl,f,21,2024_Apr_15_1034,mian,2021.2.3,59.873212485240074,
,,,,,,1,1,pic/flanker6.png,pic/flanker4.png,s,k,pic/AffRest3.png,,,,,,,,,,,,,,,,,,,,,,,,,0,2,2,2,0,35,35,14,,,,1330.2760634,None,1329.0924885999998,1330.2926886999999,s,1,前进,k,1,0.8573695000004591,0.7066491999994469,sxl,f,21,2024_Apr_15_1034,mian,2021.2.3,59.873212485240074,
,,,,,,1,1,pic/flanker5.png,pic/flanker3.png,a,k,pic/AffRest3.png,,,,,,,,,,,,,,,,,,,,,,,,,0,2,2,2,0,36,36,20,,,,1333.7927426,None,1332.6094530000005,1333.8094133999998,a,1,敬佩,k,1,1.319407100000717,1.2369533000000956,sxl,f,21,2024_Apr_15_1034,mian,2021.2.3,59.873212485240074,
,,,,,,0,1,pic/flanker6.png,pic/flanker2.png,a,k,pic/AffRest3.png,,,,,,,,,,,,,,,,,,,,,,,,,0,2,2,2,0,37,37,50,,,,1338.2592328000005,None,1337.0758759000005,1338.2760554000001,a,1,留恋,k,1,0.7140011000001323,0.48673390000021755,sxl,f,21,2024_Apr_15_1034,mian,2021.2.3,59.873212485240074,
,,,,,,0,1,pic/flanker6.png,pic/flanker2.png,a,k,pic/AffRest3.png,,,,,,,,,,,,,,,,,,,,,,,,,0,2,2,2,0,38,38,10,,,,1341.4926767000002,None,1340.3093032000002,1341.5094036000005,a,1,廉洁,k,1,0.5809085999999297,0.5843810999995185,sxl,f,21,2024_Apr_15_1034,mian,2021.2.3,59.873212485240074,
,,,,,,1,0,pic/flanker5.png,pic/flanker3.png,a,l,pic/AffRest3.png,,,,,,,,,,,,,,,,,,,,,,,,,0,2,2,2,0,39,39,7,,,,1344.4924562,None,1343.3093753999997,1344.5092767,a,1,沮丧,k,0,0.612895700000081,0.5677840999996988,sxl,f,21,2024_Apr_15_1034,mian,2021.2.3,59.873212485240074,
,,,,,,0,0,pic/flanker5.png,pic/flanker1.png,s,l,pic/AffRest3.png,,,,,,,,,,,,,,,,,,,,,,,,,0,2,2,2,0,40,40,43,,,,1347.5259788999997,None,1346.3425519999996,1347.5426898,None,0,懒惰,l,1,1.0535856000005879,,sxl,f,21,2024_Apr_15_1034,mian,2021.2.3,59.873212485240074,
,,,,,,1,0,pic/flanker6.png,pic/flanker4.png,s,l,pic/AffRest3.png,,,,,,,,,,,,,,,,,,,,,,,,,0,2,2,2,0,41,41,77,,,,1352.0092547999998,None,1350.8260139999998,1352.0259155999997,s,1,排斥,l,1,0.7107139999998253,0.6918378000000303,sxl,f,21,2024_Apr_15_1034,mian,2021.2.3,59.873212485240074,
,,,,,,0,0,pic/flanker5.png,pic/flanker1.png,s,l,pic/AffRest3.png,,,,,,,,,,,,,,,,,,,,,,,,,0,2,2,2,0,42,42,11,,,,1355.3592866000004,None,1354.1758572000003,1355.3759271000004,s,1,郁闷,l,1,0.8633528000000297,0.6614732999996704,sxl,f,21,2024_Apr_15_1034,mian,2021.2.3,59.873212485240074,
,,,,,,0,0,pic/flanker6.png,pic/flanker2.png,a,l,pic/AffRest3.png,,,,,,,,,,,,,,,,,,,,,,,,,0,2,2,2,0,43,43,65,,,,1358.8253648000004,None,1357.6425635,1358.8425736000004,a,1,争吵,l,1,1.6028120000000854,0.74398519999977,sxl,f,21,2024_Apr_15_1034,mian,2021.2.3,59.873212485240074,
,,,,,,0,1,pic/flanker5.png,pic/flanker1.png,s,k,pic/AffRest3.png,,,,,,,,,,,,,,,,,,,,,,,,,0,2,2,2,0,44,44,8,,,,1363.1593540999997,None,1361.9759164000002,1363.1758839,s,1,吉祥,k,1,0.6766642000002321,0.6017511000000013,sxl,f,21,2024_Apr_15_1034,mian,2021.2.3,59.873212485240074,
,,,,,,1,1,pic/flanker6.png,pic/flanker4.png,s,k,pic/AffRest3.png,,,,,,,,,,,,,,,,,,,,,,,,,0,2,2,2,0,45,45,30,,,,1366.3254413999998,None,1365.1425792000005,1366.3421898000001,s,1,正直,k,1,0.7007470999997167,0.624991399999999,sxl,f,21,2024_Apr_15_1034,mian,2021.2.3,59.873212485240074,
,,,,,,0,0,pic/flanker5.png,pic/flanker1.png,s,l,pic/AffRest3.png,,,,,,,,,,,,,,,,,,,,,,,,,0,2,2,2,0,46,46,51,,,,1369.6926590999997,None,1368.5093137999997,1369.7091781000004,s,1,焦躁,l,1,0.8237052000004041,0.5089391999999862,sxl,f,21,2024_Apr_15_1034,mian,2021.2.3,59.873212485240074,
,,,,,,0,0,pic/flanker5.png,pic/flanker1.png,s,l,pic/AffRest3.png,,,,,,,,,,,,,,,,,,,,,,,,,0,2,2,2,0,47,47,3,,,,1372.9253495999997,None,1371.7425527999999,1372.9420843000003,s,1,厌恶,l,1,0.913186499999938,0.498037999999724,sxl,f,21,2024_Apr_15_1034,mian,2021.2.3,59.873212485240074,
,,,,,,0,0,pic/flanker5.png,pic/flanker1.png,s,l,pic/AffRest3.png,,,,,,,,,,,,,,,,,,,,,,,,,0,2,2,2,0,48,48,59,,,,1376.2753499000005,None,1375.0925744,1376.2924472999998,s,1,孤单,l,1,1.4034253999998327,0.6308430999997654,sxl,f,21,2024_Apr_15_1034,mian,2021.2.3,59.873212485240074,
,,,,,,0,1,pic/flanker6.png,pic/flanker2.png,a,k,pic/AffRest3.png,,,,,,,,,,,,,,,,,,,,,,,,,0,2,2,2,0,49,49,26,,,,1380.1426411999996,None,1378.9592851000002,1380.159341,a,1,丰满,k,1,0.7492889000004652,0.6539517999999589,sxl,f,21,2024_Apr_15_1034,mian,2021.2.3,59.873212485240074,
,,,,,,0,0,pic/flanker6.png,pic/flanker2.png,a,l,pic/AffRest3.png,,,,,,,,,,,,,,,,,,,,,,,,,0,2,2,2,0,50,50,57,,,,1383.5093148,None,1382.3253848,1383.5253294,a,1,堵塞,l,1,1.2904077000002872,0.7179328000001988,sxl,f,21,2024_Apr_15_1034,mian,2021.2.3,59.873212485240074,
,,,,,,1,0,pic/flanker5.png,pic/flanker3.png,a,l,pic/AffRest3.png,,,,,,,,,,,,,,,,,,,,,,,,,0,2,2,2,0,51,51,31,,,,1387.4753280999998,None,1386.2918495999998,1387.4921189000002,a,1,怀疑,l,1,0.8562539999993533,0.6911858999992546,sxl,f,21,2024_Apr_15_1034,mian,2021.2.3,59.873212485240074,
,,,,,,1,0,pic/flanker5.png,pic/flanker3.png,a,l,pic/AffRest3.png,,,,,,,,,,,,,,,,,,,,,,,,,0,2,2,2,0,52,52,47,,,,1390.9259176,None,1389.7426029000003,1390.9425443000005,a,1,逃避,l,1,1.0194505999998,0.7586401000007754,sxl,f,21,2024_Apr_15_1034,mian,2021.2.3,59.873212485240074,
,,,,,,0,1,pic/flanker6.png,pic/flanker2.png,a,k,pic/AffRest3.png,,,,,,,,,,,,,,,,,,,,,,,,,0,2,2,2,0,53,53,2,,,,1394.5593171000005,None,1393.3753633000001,1394.5758980000005,a,1,热切,k,1,0.7699631000004956,1.069347700000435,sxl,f,21,2024_Apr_15_1034,mian,2021.2.3,59.873212485240074,
,,,,,,0,0,pic/flanker5.png,pic/flanker1.png,s,l,pic/AffRest3.png,,,,,,,,,,,,,,,,,,,,,,,,,0,2,2,2,0,54,54,19,,,,1398.2758545000002,None,1397.0924983999998,1398.2925001999997,s,1,缺乏,l,1,0.6605685000004087,0.539770999999746,sxl,f,21,2024_Apr_15_1034,mian,2021.2.3,59.873212485240074,
,,,,,,0,0,pic/flanker6.png,pic/flanker2.png,a,l,pic/AffRest3.png,,,,,,,,,,,,,,,,,,,,,,,,,0,2,2,2,0,55,55,9,,,,1401.4759829999998,None,1400.2925338,1401.4924698,a,1,罚款,l,1,0.7824680999992779,0.5952067000007446,sxl,f,21,2024_Apr_15_1034,mian,2021.2.3,59.873212485240074,
,,,,,,0,1,pic/flanker5.png,pic/flanker1.png,s,k,pic/AffRest3.png,,,,,,,,,,,,,,,,,,,,,,,,,0,2,2,2,0,56,56,56,,,,1404.8259543999998,None,1403.6424418000001,1404.8424597999997,s,1,雄厚,k,1,0.7784068999999363,0.6363378000005468,sxl,f,21,2024_Apr_15_1034,mian,2021.2.3,59.873212485240074,
,,,,,,1,1,pic/flanker5.png,pic/flanker3.png,a,k,pic/AffRest3.png,,,,,,,,,,,,,,,,,,,,,,,,,0,2,2,2,0,57,57,12,,,,1408.2752225,None,1407.0924123,1408.2919495,a,1,俊秀,k,1,0.9897623999995631,0.7272665000000416,sxl,f,21,2024_Apr_15_1034,mian,2021.2.3,59.873212485240074,
,,,,,,1,1,pic/flanker6.png,pic/flanker4.png,s,k,pic/AffRest3.png,,,,,,,,,,,,,,,,,,,,,,,,,0,2,2,2,0,58,58,22,,,,1411.9927089999996,None,1410.8090892000005,1412.0090173000003,s,1,旺盛,k,1,0.6779721999992034,0.7181729999992967,sxl,f,21,2024_Apr_15_1034,mian,2021.2.3,59.873212485240074,
,,,,,,0,1,pic/flanker5.png,pic/flanker1.png,s,k,pic/AffRest3.png,,,,,,,,,,,,,,,,,,,,,,,,,0,2,2,2,0,59,59,64,,,,1415.3758795999997,None,1414.1923604999997,1415.3923405,s,1,豪放,k,1,0.8289193000000523,0.600473399999828,sxl,f,21,2024_Apr_15_1034,mian,2021.2.3,59.873212485240074,
,,,,,,1,1,pic/flanker6.png,pic/flanker4.png,s,k,pic/AffRest3.png,,,,,,,,,,,,,,,,,,,,,,,,,0,2,2,2,0,60,60,78,,,,1418.6424749000003,None,1417.4592165,1418.6592377000002,s,1,富丽,k,1,1.093846300000223,0.6409140000005209,sxl,f,21,2024_Apr_15_1034,mian,2021.2.3,59.873212485240074,
,,,,,,1,0,pic/flanker5.png,pic/flanker3.png,a,l,pic/AffRest3.png,,,,,,,,,,,,,,,,,,,,,,,,,0,2,2,2,0,61,61,15,,,,1422.3257543000004,None,1421.1425466000005,1422.3424436,a,1,烦恼,l,1,1.655746000000363,0.5957282999997915,sxl,f,21,2024_Apr_15_1034,mian,2021.2.3,59.873212485240074,
,,,,,,0,1,pic/flanker6.png,pic/flanker2.png,a,k,pic/AffRest3.png,,,,,,,,,,,,,,,,,,,,,,,,,0,2,2,2,0,62,62,18,,,,1426.6252537000005,None,1425.4424439,1426.6424540000003,a,1,卓越,k,1,0.6503077999996094,0.7167755999998917,sxl,f,21,2024_Apr_15_1034,mian,2021.2.3,59.873212485240074,
,,,,,,1,1,pic/flanker6.png,pic/flanker4.png,s,k,pic/AffRest3.png,,,,,,,,,,,,,,,,,,,,,,,,,0,2,2,2,0,63,63,46,,,,1429.9423837,None,1428.7592494000005,1429.9592755999997,s,1,瑰丽,k,1,0.6060452000001533,0.6702023999996527,sxl,f,21,2024_Apr_15_1034,mian,2021.2.3,59.873212485240074,
,,,,,,0,1,pic/flanker6.png,pic/flanker2.png,a,k,pic/AffRest3.png,,,,,,,,,,,,,,,,,,,,,,,,,0,2,2,2,0,64,64,58,,,,1433.2753465,None,1432.0925093,1433.2919746000002,a,1,精致,k,1,0.5564413000001878,0.7257519999993747,sxl,f,21,2024_Apr_15_1034,mian,2021.2.3,59.873212485240074,
,,,,,,0,1,pic/flanker5.png,pic/flanker1.png,s,k,pic/AffRest3.png,,,,,,,,,,,,,,,,,,,,,,,,,0,2,2,2,0,65,65,48,,,,1436.5924536999996,None,1435.4093662999999,1436.6091154,s,1,充裕,k,1,1.427343800000017,0.6711586999999781,sxl,f,21,2024_Apr_15_1034,mian,2021.2.3,59.873212485240074,
,,,,,,1,1,pic/flanker5.png,pic/flanker3.png,a,k,pic/AffRest3.png,,,,,,,,,,,,,,,,,,,,,,,,,0,2,2,2,0,66,66,52,,,,1440.5925407,None,1439.409217,1440.6092469999999,a,1,诚恳,k,1,1.0080173999995168,1.002169700000195,sxl,f,21,2024_Apr_15_1034,mian,2021.2.3,59.873212485240074,
,,,,,,1,0,pic/flanker6.png,pic/flanker4.png,s,l,pic/AffRest3.png,,,,,,,,,,,,,,,,,,,,,,,,,0,2,2,2,0,67,67,21,,,,1444.4425503999996,None,1443.2591371000003,1444.4588632999998,s,1,别扭,l,1,0.7795695999993768,0.5241797999997289,sxl,f,21,2024_Apr_15_1034,mian,2021.2.3,59.873212485240074,
,,,,,,1,0,pic/flanker6.png,pic/flanker4.png,s,l,pic/AffRest3.png,,,,,,,,,,,,,,,,,,,,,,,,,0,2,2,2,0,68,68,37,,,,1447.6257848,None,1446.4424377,1447.6424762000001,s,1,丢失,l,1,0.8216597000000547,0.6456319999997504,sxl,f,21,2024_Apr_15_1034,mian,2021.2.3,59.873212485240074,
,,,,,,1,1,pic/flanker5.png,pic/flanker3.png,a,k,pic/AffRest3.png,,,,,,,,,,,,,,,,,,,,,,,,,0,2,2,2,0,69,69,76,,,,1451.0925492000001,None,1449.9090549999996,1451.1088825000002,a,1,富足,k,1,0.7154799999998431,0.6927667999998448,sxl,f,21,2024_Apr_15_1034,mian,2021.2.3,59.873212485240074,
,,,,,,0,0,pic/flanker5.png,pic/flanker1.png,s,l,pic/AffRest3.png,,,,,,,,,,,,,,,,,,,,,,,,,0,2,2,2,0,70,70,27,,,,1454.3924092000002,None,1453.2089154,1454.4091795,s,1,消沉,l,1,1.0337544000003618,0.572838099999899,sxl,f,21,2024_Apr_15_1034,mian,2021.2.3,59.873212485240074,
,,,,,,1,1,pic/flanker6.png,pic/flanker4.png,s,k,pic/AffRest3.png,,,,,,,,,,,,,,,,,,,,,,,,,0,2,2,2,0,71,71,70,,,,1457.9924512000002,None,1456.809138,1458.0090929000003,s,1,羡慕,k,1,1.0596443000004,0.8102067999998326,sxl,f,21,2024_Apr_15_1034,mian,2021.2.3,59.873212485240074,
,,,,,,0,0,pic/flanker6.png,pic/flanker2.png,a,l,pic/AffRest3.png,,,,,,,,,,,,,,,,,,,,,,,,,0,2,2,2,0,72,72,1,,,,1461.7424293,None,1460.5591473,1461.7590708000002,a,1,慌忙,l,1,0.793038599999818,0.6646874999996726,sxl,f,21,2024_Apr_15_1034,mian,2021.2.3,59.873212485240074,
,,,,,,1,0,pic/flanker6.png,pic/flanker4.png,s,l,pic/AffRest3.png,,,,,,,,,,,,,,,,,,,,,,,,,0,2,2,2,0,73,73,61,,,,1465.0758911999997,None,1463.8919337000002,1465.0923544000002,s,1,闷热,l,1,0.788211300000512,0.5752958000002764,sxl,f,21,2024_Apr_15_1034,mian,2021.2.3,59.873212485240074,
,,,,,,0,1,pic/flanker5.png,pic/flanker1.png,s,k,pic/AffRest3.png,,,,,,,,,,,,,,,,,,,,,,,,,0,2,2,2,0,74,74,16,,,,1468.2758878999998,None,1467.0922308000004,1468.29225,s,1,秀丽,k,1,0.6751556999997774,0.4624202000004516,sxl,f,21,2024_Apr_15_1034,mian,2021.2.3,59.873212485240074,
,,,,,,1,1,pic/flanker5.png,pic/flanker3.png,a,k,pic/AffRest3.png,,,,,,,,,,,,,,,,,,,,,,,,,0,2,2,2,0,75,75,68,,,,1471.2424879000005,None,1470.0588982000004,1471.2590803999997,a,1,珍藏,k,1,1.0580575999993016,0.5909664000000703,sxl,f,21,2024_Apr_15_1034,mian,2021.2.3,59.873212485240074,
,,,,,,0,0,pic/flanker6.png,pic/flanker2.png,a,l,pic/AffRest3.png,,,,,,,,,,,,,,,,,,,,,,,,,0,2,2,2,0,76,76,25,,,,1474.9423136999999,None,1473.7591253000005,1474.9591219,a,1,禁止,l,1,0.7074080000002141,0.4627733999996053,sxl,f,21,2024_Apr_15_1034,mian,2021.2.3,59.873212485240074,
,,,,,,0,1,pic/flanker6.png,pic/flanker2.png,a,k,pic/AffRest3.png,,,,,,,,,,,,,,,,,,,,,,,,,0,2,2,2,0,77,77,66,,,,1478.0590908999998,None,1476.8758270000003,1478.0757809000002,a,1,享受,k,1,0.7610373000006803,0.8954788000000917,sxl,f,21,2024_Apr_15_1034,mian,2021.2.3,59.873212485240074,
,,,,,,0,0,pic/flanker5.png,pic/flanker1.png,s,l,pic/AffRest3.png,,,,,,,,,,,,,,,,,,,,,,,,,0,2,2,2,0,78,78,35,,,,1481.6923650000003,None,1480.5090637999997,1481.7091492000004,s,1,自卑,l,1,0.7607435999998415,0.5998369999997522,sxl,f,21,2024_Apr_15_1034,mian,2021.2.3,59.873212485240074,
,,,,,,1,0,pic/flanker6.png,pic/flanker4.png,s,l,pic/AffRest3.png,,,,,,,,,,,,,,,,,,,,,,,,,0,2,2,2,0,79,79,45,,,,1484.9591714000003,None,1483.7757149000004,1484.9757280999997,s,1,杂乱,l,1,1.0823255000004792,0.6328998999997566,sxl,f,21,2024_Apr_15_1034,mian,2021.2.3,59.873212485240074,
,,,,,,,,,,,,pic/AffRest3.png,,,,,,,,,,,,,,,,,,,,,,,,,0,2,2,2,,,,,,,,,,,,,,,,,,,sxl,f,21,2024_Apr_15_1034,mian,2021.2.3,59.873212485240074,
,,,,,,1,1,pic/flanker5.png,pic/flanker3.png,a,k,pic/EndExp.PNG,,,,,,,,,,,,,,,,,,,,,,,,,0,3,3,3,0,0,0,12,,,,1501.3590297000005,None,1500.1615164,1501.3757799999998,a,1,卓越,k,1,0.9031616000002032,0.6989000999992641,sxl,f,21,2024_Apr_15_1034,mian,2021.2.3,59.873212485240074,
,,,,,,0,0,pic/flanker6.png,pic/flanker2.png,a,l,pic/EndExp.PNG,,,,,,,,,,,,,,,,,,,,,,,,,0,3,3,3,0,1,1,25,,,,1505.0591189000002,None,1503.8755701000005,1505.0757711,a,1,沮丧,l,1,0.6371822000000975,0.9325132000003578,sxl,f,21,2024_Apr_15_1034,mian,2021.2.3,59.873212485240074,
