target,反应类型,条件,truetarget,CorAns,Position,congruency,AffValue,flankerPic,targetPic,corAnsF,corAnsA,RestPic,returnPractice.thisRepN,returnPractice.thisTrialN,returnPractice.thisN,returnPractice.thisIndex,pracNum.thisRepN,pracNum.thisTrialN,pracNum.thisN,pracNum.thisIndex,NumBlock1.thisRepN,NumBlock1.thisTrialN,NumBlock1.thisN,NumBlock1.thisIndex,NumBlock2.thisRepN,NumBlock2.thisTrialN,NumBlock2.thisN,NumBlock2.thisIndex,returnPrac.thisRepN,returnPrac.thisTrialN,returnPrac.thisN,returnPrac.thisIndex,PracAff.thisRepN,PracAff.thisTrialN,PracAff.thisN,PracAff.thisIndex,AffBlocks.thisRepN,AffBlocks.thisTrialN,AffBlocks.thisN,AffBlocks.thisIndex,AffBlock1.thisRepN,AffBlock1.thisTrialN,AffBlock1.thisN,AffBlock1.thisIndex,respNum2word.keys,respNum2word.corr,respNum2word.rt,text.started,text.stopped,blank.started,blank.stopped,respFlanker.keys,respFlanker.corr,respFlanker.rt,thisWord,respAffWord.keys,respAffWord.corr,respAffWord.rt,姓名,性别,年龄（周岁）,date,expName,psychopyVersion,frameRate,
2A,1,1,A,a,"[0.2, 0.2]",,,,,,,,0,0,0,0,0,0,0,0,,,,,,,,,,,,,,,,,,,,,,,,,None,0,,,,,,,,,,,,,tj,m,20,2024_Apr_13_1350,mian,2021.2.3,60.008089090406706,
A9,1,2,A,a,"[-0.2, 0.2]",,,,,,,,0,0,0,0,0,1,1,1,,,,,,,,,,,,,,,,,,,,,,,,,a,1,1.3252659999999423,,,,,,,,,,,,tj,m,20,2024_Apr_13_1350,mian,2021.2.3,60.008089090406706,
7e,2,1,7.0,a,"[-0.2, -0.2]",,,,,,,,0,0,0,0,0,2,2,2,,,,,,,,,,,,,,,,,,,,,,,,,a,1,1.004920900000002,,,,,,,,,,,,tj,m,20,2024_Apr_13_1350,mian,2021.2.3,60.008089090406706,
9H,2,2,9.0,a,"[0.2, -0.2]",,,,,,,,0,0,0,0,0,3,3,3,,,,,,,,,,,,,,,,,,,,,,,,,a,1,1.2151400000000194,,,,,,,,,,,,tj,m,20,2024_Apr_13_1350,mian,2021.2.3,60.008089090406706,
h4,1,1,h,l,"[0.2, 0.2]",,,,,,,,0,0,0,0,0,4,4,4,,,,,,,,,,,,,,,,,,,,,,,,,l,1,0.84766680000007,,,,,,,,,,,,tj,m,20,2024_Apr_13_1350,mian,2021.2.3,60.008089090406706,
4H,1,2,H,a,"[-0.2, 0.2]",,,,,,,,0,0,0,0,0,5,5,5,,,,,,,,,,,,,,,,,,,,,,,,,l,0,1.1135115999999243,,,,,,,,,,,,tj,m,20,2024_Apr_13_1350,mian,2021.2.3,60.008089090406706,
F8,2,1,8.0,l,"[-0.2, -0.2]",,,,,,,,0,0,0,0,0,6,6,6,,,,,,,,,,,,,,,,,,,,,,,,,l,1,1.2379432999999835,,,,,,,,,,,,tj,m,20,2024_Apr_13_1350,mian,2021.2.3,60.008089090406706,
h7,2,2,7.0,a,"[0.2, -0.2]",,,,,,,,0,0,0,0,0,7,7,7,,,,,,,,,,,,,,,,,,,,,,,,,a,1,1.5208971000000702,,,,,,,,,,,,tj,m,20,2024_Apr_13_1350,mian,2021.2.3,60.008089090406706,
5e,1,1,e,l,"[0.2, 0.2]",,,,,,,,0,0,0,0,0,8,8,8,,,,,,,,,,,,,,,,,,,,,,,,,l,1,2.11635339999998,,,,,,,,,,,,tj,m,20,2024_Apr_13_1350,mian,2021.2.3,60.008089090406706,
e8,1,2,e,l,"[-0.2, 0.2]",,,,,,,,0,0,0,0,0,9,9,9,,,,,,,,,,,,,,,,,,,,,,,,,l,1,0.6335235999999895,,,,,,,,,,,,tj,m,20,2024_Apr_13_1350,mian,2021.2.3,60.008089090406706,
4E,2,1,4.0,l,"[-0.2, -0.2]",,,,,,,,0,0,0,0,0,10,10,10,,,,,,,,,,,,,,,,,,,,,,,,,a,0,1.5594605000000001,,,,,,,,,,,,tj,m,20,2024_Apr_13_1350,mian,2021.2.3,60.008089090406706,
5H,2,2,5.0,a,"[0.2, -0.2]",,,,,,,,0,0,0,0,0,11,11,11,,,,,,,,,,,,,,,,,,,,,,,,,a,1,1.6260654000000159,,,,,,,,,,,,tj,m,20,2024_Apr_13_1350,mian,2021.2.3,60.008089090406706,
9E,1,1,E,a,"[0.2, 0.2]",,,,,,,,0,0,0,0,0,12,12,12,,,,,,,,,,,,,,,,,,,,,,,,,a,1,2.5438934000000017,,,,,,,,,,,,tj,m,20,2024_Apr_13_1350,mian,2021.2.3,60.008089090406706,
h9,1,2,h,l,"[-0.2, 0.2]",,,,,,,,0,0,0,0,0,13,13,13,,,,,,,,,,,,,,,,,,,,,,,,,l,1,0.8466143999999076,,,,,,,,,,,,tj,m,20,2024_Apr_13_1350,mian,2021.2.3,60.008089090406706,
2a,2,1,2.0,l,"[-0.2, -0.2]",,,,,,,,0,0,0,0,0,14,14,14,,,,,,,,,,,,,,,,,,,,,,,,,l,1,0.7434886999999435,,,,,,,,,,,,tj,m,20,2024_Apr_13_1350,mian,2021.2.3,60.008089090406706,
e5,2,2,5.0,a,"[0.2, -0.2]",,,,,,,,0,0,0,0,0,15,15,15,,,,,,,,,,,,,,,,,,,,,,,,,a,1,1.639363200000048,,,,,,,,,,,,tj,m,20,2024_Apr_13_1350,mian,2021.2.3,60.008089090406706,
A5,1,1,A,a,"[0.2, 0.2]",,,,,,,,0,0,0,0,0,16,16,16,,,,,,,,,,,,,,,,,,,,,,,,,a,1,0.9848458999999821,,,,,,,,,,,,tj,m,20,2024_Apr_13_1350,mian,2021.2.3,60.008089090406706,
a6,1,2,a,l,"[-0.2, 0.2]",,,,,,,,0,0,0,0,0,17,17,17,,,,,,,,,,,,,,,,,,,,,,,,,a,0,0.6946833000000652,,,,,,,,,,,,tj,m,20,2024_Apr_13_1350,mian,2021.2.3,60.008089090406706,
2F,2,1,2.0,l,"[-0.2, -0.2]",,,,,,,,0,0,0,0,0,18,18,18,,,,,,,,,,,,,,,,,,,,,,,,,l,1,1.2410024999999223,,,,,,,,,,,,tj,m,20,2024_Apr_13_1350,mian,2021.2.3,60.008089090406706,
e4,2,2,4.0,l,"[0.2, -0.2]",,,,,,,,0,0,0,0,0,19,19,19,,,,,,,,,,,,,,,,,,,,,,,,,l,1,1.3819409999999834,,,,,,,,,,,,tj,m,20,2024_Apr_13_1350,mian,2021.2.3,60.008089090406706,
,,,,,,,,,,,,,0,0,0,0,,,,,,,,,,,,,,,,,,,,,,,,,,,,,,,,,,,,,,,,,,,tj,m,20,2024_Apr_13_1350,mian,2021.2.3,60.008089090406706,
7h,1,1,h,l,"[0.2, 0.2]",,,,,,,,,,,,,,,,0,0,0,0,,,,,,,,,,,,,,,,,,,,,l,1,1.1979979999999841,,,,,,,,,,,,tj,m,20,2024_Apr_13_1350,mian,2021.2.3,60.008089090406706,
8F,1,2,F,a,"[-0.2, 0.2]",,,,,,,,,,,,,,,,0,1,1,1,,,,,,,,,,,,,,,,,,,,,a,1,1.057914500000038,,,,,,,,,,,,tj,m,20,2024_Apr_13_1350,mian,2021.2.3,60.008089090406706,
8h,2,1,8.0,l,"[-0.2, -0.2]",,,,,,,,,,,,,,,,0,2,2,2,,,,,,,,,,,,,,,,,,,,,l,1,0.9206719000000021,,,,,,,,,,,,tj,m,20,2024_Apr_13_1350,mian,2021.2.3,60.008089090406706,
a2,2,2,2.0,l,"[0.2, -0.2]",,,,,,,,,,,,,,,,0,3,3,3,,,,,,,,,,,,,,,,,,,,,l,1,0.9427320000000918,,,,,,,,,,,,tj,m,20,2024_Apr_13_1350,mian,2021.2.3,60.008089090406706,
8f,1,1,f,l,"[0.2, 0.2]",,,,,,,,,,,,,,,,0,4,4,4,,,,,,,,,,,,,,,,,,,,,l,1,1.989220699999919,,,,,,,,,,,,tj,m,20,2024_Apr_13_1350,mian,2021.2.3,60.008089090406706,
6a,1,2,a,l,"[-0.2, 0.2]",,,,,,,,,,,,,,,,0,5,5,5,,,,,,,,,,,,,,,,,,,,,l,1,0.6906543999999712,,,,,,,,,,,,tj,m,20,2024_Apr_13_1350,mian,2021.2.3,60.008089090406706,
h6,2,1,6.0,l,"[-0.2, -0.2]",,,,,,,,,,,,,,,,0,6,6,6,,,,,,,,,,,,,,,,,,,,,l,1,0.6892536000000291,,,,,,,,,,,,tj,m,20,2024_Apr_13_1350,mian,2021.2.3,60.008089090406706,
f9,2,2,9.0,a,"[0.2, -0.2]",,,,,,,,,,,,,,,,0,7,7,7,,,,,,,,,,,,,,,,,,,,,a,1,0.5980182000000696,,,,,,,,,,,,tj,m,20,2024_Apr_13_1350,mian,2021.2.3,60.008089090406706,
E4,1,1,E,a,"[0.2, 0.2]",,,,,,,,,,,,,,,,0,8,8,8,,,,,,,,,,,,,,,,,,,,,a,1,1.0176344999999856,,,,,,,,,,,,tj,m,20,2024_Apr_13_1350,mian,2021.2.3,60.008089090406706,
6e,1,2,e,l,"[-0.2, 0.2]",,,,,,,,,,,,,,,,0,9,9,9,,,,,,,,,,,,,,,,,,,,,l,1,0.5508525999999847,,,,,,,,,,,,tj,m,20,2024_Apr_13_1350,mian,2021.2.3,60.008089090406706,
5G,2,1,5.0,a,"[-0.2, -0.2]",,,,,,,,,,,,,,,,0,10,10,10,,,,,,,,,,,,,,,,,,,,,l,0,2.2693334000000505,,,,,,,,,,,,tj,m,20,2024_Apr_13_1350,mian,2021.2.3,60.008089090406706,
h3,2,2,3.0,a,"[0.2, -0.2]",,,,,,,,,,,,,,,,0,11,11,11,,,,,,,,,,,,,,,,,,,,,a,1,1.918586600000026,,,,,,,,,,,,tj,m,20,2024_Apr_13_1350,mian,2021.2.3,60.008089090406706,
9e,1,1,e,l,"[0.2, 0.2]",,,,,,,,,,,,,,,,0,12,12,12,,,,,,,,,,,,,,,,,,,,,l,1,2.051872000000003,,,,,,,,,,,,tj,m,20,2024_Apr_13_1350,mian,2021.2.3,60.008089090406706,
a8,1,2,a,l,"[-0.2, 0.2]",,,,,,,,,,,,,,,,0,13,13,13,,,,,,,,,,,,,,,,,,,,,l,1,0.5402082000000519,,,,,,,,,,,,tj,m,20,2024_Apr_13_1350,mian,2021.2.3,60.008089090406706,
e8,2,1,8.0,l,"[-0.2, -0.2]",,,,,,,,,,,,,,,,0,14,14,14,,,,,,,,,,,,,,,,,,,,,l,1,0.6912383000000091,,,,,,,,,,,,tj,m,20,2024_Apr_13_1350,mian,2021.2.3,60.008089090406706,
3f,2,2,3.0,a,"[0.2, -0.2]",,,,,,,,,,,,,,,,0,15,15,15,,,,,,,,,,,,,,,,,,,,,a,1,0.580486599999972,,,,,,,,,,,,tj,m,20,2024_Apr_13_1350,mian,2021.2.3,60.008089090406706,
7f,1,1,f,l,"[0.2, 0.2]",,,,,,,,,,,,,,,,0,16,16,16,,,,,,,,,,,,,,,,,,,,,l,1,0.754822699999977,,,,,,,,,,,,tj,m,20,2024_Apr_13_1350,mian,2021.2.3,60.008089090406706,
a7,1,2,a,l,"[-0.2, 0.2]",,,,,,,,,,,,,,,,0,17,17,17,,,,,,,,,,,,,,,,,,,,,l,1,0.4812957000000324,,,,,,,,,,,,tj,m,20,2024_Apr_13_1350,mian,2021.2.3,60.008089090406706,
5A,2,1,5.0,a,"[-0.2, -0.2]",,,,,,,,,,,,,,,,0,18,18,18,,,,,,,,,,,,,,,,,,,,,a,1,0.6056098000000247,,,,,,,,,,,,tj,m,20,2024_Apr_13_1350,mian,2021.2.3,60.008089090406706,
8g,2,2,8.0,l,"[0.2, -0.2]",,,,,,,,,,,,,,,,0,19,19,19,,,,,,,,,,,,,,,,,,,,,l,1,0.9224613999999747,,,,,,,,,,,,tj,m,20,2024_Apr_13_1350,mian,2021.2.3,60.008089090406706,
9a,1,1,a,l,"[0.2, 0.2]",,,,,,,,,,,,,,,,0,20,20,20,,,,,,,,,,,,,,,,,,,,,l,1,1.0345914000000676,,,,,,,,,,,,tj,m,20,2024_Apr_13_1350,mian,2021.2.3,60.008089090406706,
f7,1,2,f,l,"[-0.2, 0.2]",,,,,,,,,,,,,,,,0,21,21,21,,,,,,,,,,,,,,,,,,,,,l,1,0.6106722999999192,,,,,,,,,,,,tj,m,20,2024_Apr_13_1350,mian,2021.2.3,60.008089090406706,
g9,2,1,9.0,a,"[-0.2, -0.2]",,,,,,,,,,,,,,,,0,22,22,22,,,,,,,,,,,,,,,,,,,,,a,1,4.3493019,,,,,,,,,,,,tj,m,20,2024_Apr_13_1350,mian,2021.2.3,60.008089090406706,
3h,2,2,3.0,a,"[0.2, -0.2]",,,,,,,,,,,,,,,,0,23,23,23,,,,,,,,,,,,,,,,,,,,,a,1,0.9300041999999848,,,,,,,,,,,,tj,m,20,2024_Apr_13_1350,mian,2021.2.3,60.008089090406706,
E6,1,1,E,a,"[0.2, 0.2]",,,,,,,,,,,,,,,,0,24,24,24,,,,,,,,,,,,,,,,,,,,,a,1,3.0204829000000473,,,,,,,,,,,,tj,m,20,2024_Apr_13_1350,mian,2021.2.3,60.008089090406706,
F6,1,2,F,a,"[-0.2, 0.2]",,,,,,,,,,,,,,,,0,25,25,25,,,,,,,,,,,,,,,,,,,,,a,1,0.7189913000000843,,,,,,,,,,,,tj,m,20,2024_Apr_13_1350,mian,2021.2.3,60.008089090406706,
3A,2,1,3.0,a,"[-0.2, -0.2]",,,,,,,,,,,,,,,,0,26,26,26,,,,,,,,,,,,,,,,,,,,,a,1,2.138700500000027,,,,,,,,,,,,tj,m,20,2024_Apr_13_1350,mian,2021.2.3,60.008089090406706,
8H,2,2,8.0,l,"[0.2, -0.2]",,,,,,,,,,,,,,,,0,27,27,27,,,,,,,,,,,,,,,,,,,,,l,1,0.727843699999994,,,,,,,,,,,,tj,m,20,2024_Apr_13_1350,mian,2021.2.3,60.008089090406706,
5a,1,1,a,l,"[0.2, 0.2]",,,,,,,,,,,,,,,,0,28,28,28,,,,,,,,,,,,,,,,,,,,,l,1,3.093161900000041,,,,,,,,,,,,tj,m,20,2024_Apr_13_1350,mian,2021.2.3,60.008089090406706,
2h,1,2,h,l,"[-0.2, 0.2]",,,,,,,,,,,,,,,,0,29,29,29,,,,,,,,,,,,,,,,,,,,,l,1,0.6872978000000103,,,,,,,,,,,,tj,m,20,2024_Apr_13_1350,mian,2021.2.3,60.008089090406706,
e5,2,1,5.0,a,"[-0.2, -0.2]",,,,,,,,,,,,,,,,0,30,30,30,,,,,,,,,,,,,,,,,,,,,a,1,0.7775855999999521,,,,,,,,,,,,tj,m,20,2024_Apr_13_1350,mian,2021.2.3,60.008089090406706,
a3,2,2,3.0,a,"[0.2, -0.2]",,,,,,,,,,,,,,,,0,31,31,31,,,,,,,,,,,,,,,,,,,,,a,1,1.2363558000000694,,,,,,,,,,,,tj,m,20,2024_Apr_13_1350,mian,2021.2.3,60.008089090406706,
f3,1,1,f,l,"[0.2, 0.2]",,,,,,,,,,,,,,,,0,32,32,32,,,,,,,,,,,,,,,,,,,,,l,1,1.6083581000000322,,,,,,,,,,,,tj,m,20,2024_Apr_13_1350,mian,2021.2.3,60.008089090406706,
2E,1,2,E,a,"[-0.2, 0.2]",,,,,,,,,,,,,,,,0,33,33,33,,,,,,,,,,,,,,,,,,,,,a,1,1.3064540999999963,,,,,,,,,,,,tj,m,20,2024_Apr_13_1350,mian,2021.2.3,60.008089090406706,
2H,2,1,2.0,l,"[-0.2, -0.2]",,,,,,,,,,,,,,,,0,34,34,34,,,,,,,,,,,,,,,,,,,,,l,1,1.7915240999999469,,,,,,,,,,,,tj,m,20,2024_Apr_13_1350,mian,2021.2.3,60.008089090406706,
H8,2,2,8.0,l,"[0.2, -0.2]",,,,,,,,,,,,,,,,0,35,35,35,,,,,,,,,,,,,,,,,,,,,l,1,0.8571779999999762,,,,,,,,,,,,tj,m,20,2024_Apr_13_1350,mian,2021.2.3,60.008089090406706,
9g,1,1,g,l,"[0.2, 0.2]",,,,,,,,,,,,,,,,0,36,36,36,,,,,,,,,,,,,,,,,,,,,l,1,1.5967527999999902,,,,,,,,,,,,tj,m,20,2024_Apr_13_1350,mian,2021.2.3,60.008089090406706,
5h,1,2,h,l,"[-0.2, 0.2]",,,,,,,,,,,,,,,,0,37,37,37,,,,,,,,,,,,,,,,,,,,,l,1,1.1253880000000436,,,,,,,,,,,,tj,m,20,2024_Apr_13_1350,mian,2021.2.3,60.008089090406706,
e4,2,1,4.0,l,"[-0.2, -0.2]",,,,,,,,,,,,,,,,0,38,38,38,,,,,,,,,,,,,,,,,,,,,l,1,1.6192811000000802,,,,,,,,,,,,tj,m,20,2024_Apr_13_1350,mian,2021.2.3,60.008089090406706,
9h,2,2,9.0,a,"[0.2, -0.2]",,,,,,,,,,,,,,,,0,39,39,39,,,,,,,,,,,,,,,,,,,,,a,1,1.0773302000000058,,,,,,,,,,,,tj,m,20,2024_Apr_13_1350,mian,2021.2.3,60.008089090406706,
G3,1,1,G,a,"[0.2, 0.2]",,,,,,,,,,,,,,,,0,40,40,40,,,,,,,,,,,,,,,,,,,,,a,1,1.8550510000000031,,,,,,,,,,,,tj,m,20,2024_Apr_13_1350,mian,2021.2.3,60.008089090406706,
9A,1,2,A,a,"[-0.2, 0.2]",,,,,,,,,,,,,,,,0,41,41,41,,,,,,,,,,,,,,,,,,,,,a,1,0.48947020000002794,,,,,,,,,,,,tj,m,20,2024_Apr_13_1350,mian,2021.2.3,60.008089090406706,
H5,2,1,5.0,a,"[-0.2, -0.2]",,,,,,,,,,,,,,,,0,42,42,42,,,,,,,,,,,,,,,,,,,,,a,1,0.6138461000000461,,,,,,,,,,,,tj,m,20,2024_Apr_13_1350,mian,2021.2.3,60.008089090406706,
4e,2,2,4.0,l,"[0.2, -0.2]",,,,,,,,,,,,,,,,0,43,43,43,,,,,,,,,,,,,,,,,,,,,l,1,0.6474989000000733,,,,,,,,,,,,tj,m,20,2024_Apr_13_1350,mian,2021.2.3,60.008089090406706,
E2,1,1,E,a,"[0.2, 0.2]",,,,,,,,,,,,,,,,0,44,44,44,,,,,,,,,,,,,,,,,,,,,a,1,1.5738775999999461,,,,,,,,,,,,tj,m,20,2024_Apr_13_1350,mian,2021.2.3,60.008089090406706,
A5,1,2,A,a,"[-0.2, 0.2]",,,,,,,,,,,,,,,,0,45,45,45,,,,,,,,,,,,,,,,,,,,,a,1,0.5369302999999945,,,,,,,,,,,,tj,m,20,2024_Apr_13_1350,mian,2021.2.3,60.008089090406706,
2A,2,1,2.0,l,"[-0.2, -0.2]",,,,,,,,,,,,,,,,0,46,46,46,,,,,,,,,,,,,,,,,,,,,l,1,1.3786264000000301,,,,,,,,,,,,tj,m,20,2024_Apr_13_1350,mian,2021.2.3,60.008089090406706,
6G,2,2,6.0,l,"[0.2, -0.2]",,,,,,,,,,,,,,,,0,47,47,47,,,,,,,,,,,,,,,,,,,,,l,1,0.8749369000000797,,,,,,,,,,,,tj,m,20,2024_Apr_13_1350,mian,2021.2.3,60.008089090406706,
H3,1,1,H,a,"[0.2, 0.2]",,,,,,,,,,,,,,,,0,48,48,48,,,,,,,,,,,,,,,,,,,,,a,1,1.9314763000000994,,,,,,,,,,,,tj,m,20,2024_Apr_13_1350,mian,2021.2.3,60.008089090406706,
H2,1,2,H,a,"[-0.2, 0.2]",,,,,,,,,,,,,,,,0,49,49,49,,,,,,,,,,,,,,,,,,,,,a,1,0.43521529999998165,,,,,,,,,,,,tj,m,20,2024_Apr_13_1350,mian,2021.2.3,60.008089090406706,
e9,2,1,9.0,a,"[-0.2, -0.2]",,,,,,,,,,,,,,,,0,50,50,50,,,,,,,,,,,,,,,,,,,,,a,1,2.0675551000000496,,,,,,,,,,,,tj,m,20,2024_Apr_13_1350,mian,2021.2.3,60.008089090406706,
2G,2,2,2.0,l,"[0.2, -0.2]",,,,,,,,,,,,,,,,0,51,51,51,,,,,,,,,,,,,,,,,,,,,l,1,0.6711842999999362,,,,,,,,,,,,tj,m,20,2024_Apr_13_1350,mian,2021.2.3,60.008089090406706,
4f,1,1,f,l,"[0.2, 0.2]",,,,,,,,,,,,,,,,0,52,52,52,,,,,,,,,,,,,,,,,,,,,l,1,1.6867469000000028,,,,,,,,,,,,tj,m,20,2024_Apr_13_1350,mian,2021.2.3,60.008089090406706,
H6,1,2,H,a,"[-0.2, 0.2]",,,,,,,,,,,,,,,,0,53,53,53,,,,,,,,,,,,,,,,,,,,,a,1,0.726763500000061,,,,,,,,,,,,tj,m,20,2024_Apr_13_1350,mian,2021.2.3,60.008089090406706,
A4,2,1,4.0,l,"[-0.2, -0.2]",,,,,,,,,,,,,,,,0,54,54,54,,,,,,,,,,,,,,,,,,,,,l,1,2.6842786000000842,,,,,,,,,,,,tj,m,20,2024_Apr_13_1350,mian,2021.2.3,60.008089090406706,
3F,2,2,3.0,a,"[0.2, -0.2]",,,,,,,,,,,,,,,,0,55,55,55,,,,,,,,,,,,,,,,,,,,,a,1,0.504126000000042,,,,,,,,,,,,tj,m,20,2024_Apr_13_1350,mian,2021.2.3,60.008089090406706,
7e,1,1,e,l,"[0.2, 0.2]",,,,,,,,,,,,,,,,0,56,56,56,,,,,,,,,,,,,,,,,,,,,l,1,4.239310600000067,,,,,,,,,,,,tj,m,20,2024_Apr_13_1350,mian,2021.2.3,60.008089090406706,
F9,1,2,F,a,"[-0.2, 0.2]",,,,,,,,,,,,,,,,0,57,57,57,,,,,,,,,,,,,,,,,,,,,a,1,2.080567599999995,,,,,,,,,,,,tj,m,20,2024_Apr_13_1350,mian,2021.2.3,60.008089090406706,
e2,2,1,2.0,l,"[-0.2, -0.2]",,,,,,,,,,,,,,,,0,58,58,58,,,,,,,,,,,,,,,,,,,,,l,1,2.910220900000013,,,,,,,,,,,,tj,m,20,2024_Apr_13_1350,mian,2021.2.3,60.008089090406706,
5F,2,2,5.0,a,"[0.2, -0.2]",,,,,,,,,,,,,,,,0,59,59,59,,,,,,,,,,,,,,,,,,,,,a,1,1.0180379999999332,,,,,,,,,,,,tj,m,20,2024_Apr_13_1350,mian,2021.2.3,60.008089090406706,
f6,1,1,f,l,"[0.2, 0.2]",,,,,,,,,,,,,,,,0,60,60,60,,,,,,,,,,,,,,,,,,,,,l,1,0.6952277999999978,,,,,,,,,,,,tj,m,20,2024_Apr_13_1350,mian,2021.2.3,60.008089090406706,
7G,1,2,G,a,"[-0.2, 0.2]",,,,,,,,,,,,,,,,0,61,61,61,,,,,,,,,,,,,,,,,,,,,a,1,1.0981388000000152,,,,,,,,,,,,tj,m,20,2024_Apr_13_1350,mian,2021.2.3,60.008089090406706,
e6,2,1,6.0,l,"[-0.2, -0.2]",,,,,,,,,,,,,,,,0,62,62,62,,,,,,,,,,,,,,,,,,,,,l,1,1.1750601999999617,,,,,,,,,,,,tj,m,20,2024_Apr_13_1350,mian,2021.2.3,60.008089090406706,
3G,2,2,3.0,a,"[0.2, -0.2]",,,,,,,,,,,,,,,,0,63,63,63,,,,,,,,,,,,,,,,,,,,,a,1,1.1747027000000116,,,,,,,,,,,,tj,m,20,2024_Apr_13_1350,mian,2021.2.3,60.008089090406706,
5E,1,1,E,a,"[0.2, 0.2]",,,,,,,,,,,,,,,,0,64,64,64,,,,,,,,,,,,,,,,,,,,,a,1,0.7763025000000425,,,,,,,,,,,,tj,m,20,2024_Apr_13_1350,mian,2021.2.3,60.008089090406706,
A6,1,2,A,a,"[-0.2, 0.2]",,,,,,,,,,,,,,,,0,65,65,65,,,,,,,,,,,,,,,,,,,,,a,1,0.6532474000000548,,,,,,,,,,,,tj,m,20,2024_Apr_13_1350,mian,2021.2.3,60.008089090406706,
E3,2,1,3.0,a,"[-0.2, -0.2]",,,,,,,,,,,,,,,,0,66,66,66,,,,,,,,,,,,,,,,,,,,,a,1,1.4800513999999794,,,,,,,,,,,,tj,m,20,2024_Apr_13_1350,mian,2021.2.3,60.008089090406706,
2f,2,2,2.0,l,"[0.2, -0.2]",,,,,,,,,,,,,,,,0,67,67,67,,,,,,,,,,,,,,,,,,,,,l,1,0.6425055000000839,,,,,,,,,,,,tj,m,20,2024_Apr_13_1350,mian,2021.2.3,60.008089090406706,
g3,1,1,g,l,"[0.2, 0.2]",,,,,,,,,,,,,,,,0,68,68,68,,,,,,,,,,,,,,,,,,,,,None,0,,,,,,,,,,,,,tj,m,20,2024_Apr_13_1350,mian,2021.2.3,60.008089090406706,
E8,1,2,E,a,"[-0.2, 0.2]",,,,,,,,,,,,,,,,0,69,69,69,,,,,,,,,,,,,,,,,,,,,a,1,3.391564600000038,,,,,,,,,,,,tj,m,20,2024_Apr_13_1350,mian,2021.2.3,60.008089090406706,
6g,2,1,6.0,l,"[-0.2, -0.2]",,,,,,,,,,,,,,,,0,70,70,70,,,,,,,,,,,,,,,,,,,,,l,1,0.9277253999999857,,,,,,,,,,,,tj,m,20,2024_Apr_13_1350,mian,2021.2.3,60.008089090406706,
5H,2,2,5.0,a,"[0.2, -0.2]",,,,,,,,,,,,,,,,0,71,71,71,,,,,,,,,,,,,,,,,,,,,a,1,2.896466000000032,,,,,,,,,,,,tj,m,20,2024_Apr_13_1350,mian,2021.2.3,60.008089090406706,
4A,1,1,A,a,"[0.2, 0.2]",,,,,,,,,,,,,,,,0,72,72,72,,,,,,,,,,,,,,,,,,,,,a,1,0.6850392999999713,,,,,,,,,,,,tj,m,20,2024_Apr_13_1350,mian,2021.2.3,60.008089090406706,
7F,1,2,F,a,"[-0.2, 0.2]",,,,,,,,,,,,,,,,0,73,73,73,,,,,,,,,,,,,,,,,,,,,a,1,0.7713032999999996,,,,,,,,,,,,tj,m,20,2024_Apr_13_1350,mian,2021.2.3,60.008089090406706,
6H,2,1,6.0,l,"[-0.2, -0.2]",,,,,,,,,,,,,,,,0,74,74,74,,,,,,,,,,,,,,,,,,,,,l,1,1.2028214000000617,,,,,,,,,,,,tj,m,20,2024_Apr_13_1350,mian,2021.2.3,60.008089090406706,
3a,2,2,3.0,a,"[0.2, -0.2]",,,,,,,,,,,,,,,,0,75,75,75,,,,,,,,,,,,,,,,,,,,,a,1,1.6851705000000265,,,,,,,,,,,,tj,m,20,2024_Apr_13_1350,mian,2021.2.3,60.008089090406706,
9F,1,1,F,a,"[0.2, 0.2]",,,,,,,,,,,,,,,,0,76,76,76,,,,,,,,,,,,,,,,,,,,,a,1,3.084092299999952,,,,,,,,,,,,tj,m,20,2024_Apr_13_1350,mian,2021.2.3,60.008089090406706,
G7,1,2,G,a,"[-0.2, 0.2]",,,,,,,,,,,,,,,,0,77,77,77,,,,,,,,,,,,,,,,,,,,,a,1,0.9509616999999935,,,,,,,,,,,,tj,m,20,2024_Apr_13_1350,mian,2021.2.3,60.008089090406706,
a6,2,1,6.0,l,"[-0.2, -0.2]",,,,,,,,,,,,,,,,0,78,78,78,,,,,,,,,,,,,,,,,,,,,l,1,3.5852112000000034,,,,,,,,,,,,tj,m,20,2024_Apr_13_1350,mian,2021.2.3,60.008089090406706,
4h,2,2,4.0,l,"[0.2, -0.2]",,,,,,,,,,,,,,,,0,79,79,79,,,,,,,,,,,,,,,,,,,,,l,1,0.5904261000000588,,,,,,,,,,,,tj,m,20,2024_Apr_13_1350,mian,2021.2.3,60.008089090406706,
6A,1,1,A,a,"[0.2, 0.2]",,,,,,,,,,,,,,,,,,,,0,0,0,0,,,,,,,,,,,,,,,,,a,1,0.669588699999963,,,,,,,,,,,,tj,m,20,2024_Apr_13_1350,mian,2021.2.3,60.008089090406706,
4H,1,2,H,a,"[-0.2, 0.2]",,,,,,,,,,,,,,,,,,,,0,1,1,1,,,,,,,,,,,,,,,,,a,1,0.5541402999999718,,,,,,,,,,,,tj,m,20,2024_Apr_13_1350,mian,2021.2.3,60.008089090406706,
3H,2,1,3.0,a,"[-0.2, -0.2]",,,,,,,,,,,,,,,,,,,,0,2,2,2,,,,,,,,,,,,,,,,,a,1,0.5725651999999855,,,,,,,,,,,,tj,m,20,2024_Apr_13_1350,mian,2021.2.3,60.008089090406706,
a9,2,2,9.0,a,"[0.2, -0.2]",,,,,,,,,,,,,,,,,,,,0,3,3,3,,,,,,,,,,,,,,,,,a,1,0.6214211000000205,,,,,,,,,,,,tj,m,20,2024_Apr_13_1350,mian,2021.2.3,60.008089090406706,
E7,1,1,E,a,"[0.2, 0.2]",,,,,,,,,,,,,,,,,,,,0,4,4,4,,,,,,,,,,,,,,,,,a,1,0.5144147000000885,,,,,,,,,,,,tj,m,20,2024_Apr_13_1350,mian,2021.2.3,60.008089090406706,
6h,1,2,h,l,"[-0.2, 0.2]",,,,,,,,,,,,,,,,,,,,0,5,5,5,,,,,,,,,,,,,,,,,l,1,0.52166770000008,,,,,,,,,,,,tj,m,20,2024_Apr_13_1350,mian,2021.2.3,60.008089090406706,
8A,2,1,8.0,l,"[-0.2, -0.2]",,,,,,,,,,,,,,,,,,,,0,6,6,6,,,,,,,,,,,,,,,,,l,1,0.5308583999999428,,,,,,,,,,,,tj,m,20,2024_Apr_13_1350,mian,2021.2.3,60.008089090406706,
f5,2,2,5.0,a,"[0.2, -0.2]",,,,,,,,,,,,,,,,,,,,0,7,7,7,,,,,,,,,,,,,,,,,a,1,0.4466920999999502,,,,,,,,,,,,tj,m,20,2024_Apr_13_1350,mian,2021.2.3,60.008089090406706,
2a,1,1,a,l,"[0.2, 0.2]",,,,,,,,,,,,,,,,,,,,0,8,8,8,,,,,,,,,,,,,,,,,l,1,0.5873930999999857,,,,,,,,,,,,tj,m,20,2024_Apr_13_1350,mian,2021.2.3,60.008089090406706,
F7,1,2,F,a,"[-0.2, 0.2]",,,,,,,,,,,,,,,,,,,,0,9,9,9,,,,,,,,,,,,,,,,,a,1,1.2427953000000116,,,,,,,,,,,,tj,m,20,2024_Apr_13_1350,mian,2021.2.3,60.008089090406706,
h2,2,1,2.0,l,"[-0.2, -0.2]",,,,,,,,,,,,,,,,,,,,0,10,10,10,,,,,,,,,,,,,,,,,l,1,0.6969717999999148,,,,,,,,,,,,tj,m,20,2024_Apr_13_1350,mian,2021.2.3,60.008089090406706,
F5,2,2,5.0,a,"[0.2, -0.2]",,,,,,,,,,,,,,,,,,,,0,11,11,11,,,,,,,,,,,,,,,,,a,1,0.5198501999999507,,,,,,,,,,,,tj,m,20,2024_Apr_13_1350,mian,2021.2.3,60.008089090406706,
A9,1,1,A,a,"[0.2, 0.2]",,,,,,,,,,,,,,,,,,,,0,12,12,12,,,,,,,,,,,,,,,,,a,1,1.526598599999943,,,,,,,,,,,,tj,m,20,2024_Apr_13_1350,mian,2021.2.3,60.008089090406706,
3e,1,2,e,l,"[-0.2, 0.2]",,,,,,,,,,,,,,,,,,,,0,13,13,13,,,,,,,,,,,,,,,,,l,1,0.6189644999999473,,,,,,,,,,,,tj,m,20,2024_Apr_13_1350,mian,2021.2.3,60.008089090406706,
f8,2,1,8.0,l,"[-0.2, -0.2]",,,,,,,,,,,,,,,,,,,,0,14,14,14,,,,,,,,,,,,,,,,,l,1,1.8124904000000015,,,,,,,,,,,,tj,m,20,2024_Apr_13_1350,mian,2021.2.3,60.008089090406706,
G2,2,2,2.0,l,"[0.2, -0.2]",,,,,,,,,,,,,,,,,,,,0,15,15,15,,,,,,,,,,,,,,,,,l,1,0.7865937000000258,,,,,,,,,,,,tj,m,20,2024_Apr_13_1350,mian,2021.2.3,60.008089090406706,
F2,1,1,F,a,"[0.2, 0.2]",,,,,,,,,,,,,,,,,,,,0,16,16,16,,,,,,,,,,,,,,,,,a,1,0.667532700000038,,,,,,,,,,,,tj,m,20,2024_Apr_13_1350,mian,2021.2.3,60.008089090406706,
5e,1,2,e,l,"[-0.2, 0.2]",,,,,,,,,,,,,,,,,,,,0,17,17,17,,,,,,,,,,,,,,,,,l,1,0.5619866000000684,,,,,,,,,,,,tj,m,20,2024_Apr_13_1350,mian,2021.2.3,60.008089090406706,
A3,2,1,3.0,a,"[-0.2, -0.2]",,,,,,,,,,,,,,,,,,,,0,18,18,18,,,,,,,,,,,,,,,,,a,1,1.712148299999967,,,,,,,,,,,,tj,m,20,2024_Apr_13_1350,mian,2021.2.3,60.008089090406706,
4g,2,2,4.0,l,"[0.2, -0.2]",,,,,,,,,,,,,,,,,,,,0,19,19,19,,,,,,,,,,,,,,,,,l,1,0.8408785000000307,,,,,,,,,,,,tj,m,20,2024_Apr_13_1350,mian,2021.2.3,60.008089090406706,
h7,1,1,h,l,"[0.2, 0.2]",,,,,,,,,,,,,,,,,,,,0,20,20,20,,,,,,,,,,,,,,,,,l,1,0.6257928999999649,,,,,,,,,,,,tj,m,20,2024_Apr_13_1350,mian,2021.2.3,60.008089090406706,
3g,1,2,g,l,"[-0.2, 0.2]",,,,,,,,,,,,,,,,,,,,0,21,21,21,,,,,,,,,,,,,,,,,l,1,0.5848637999999937,,,,,,,,,,,,tj,m,20,2024_Apr_13_1350,mian,2021.2.3,60.008089090406706,
8a,2,1,8.0,l,"[-0.2, -0.2]",,,,,,,,,,,,,,,,,,,,0,22,22,22,,,,,,,,,,,,,,,,,l,1,1.3909115999999813,,,,,,,,,,,,tj,m,20,2024_Apr_13_1350,mian,2021.2.3,60.008089090406706,
4E,2,2,4.0,l,"[0.2, -0.2]",,,,,,,,,,,,,,,,,,,,0,23,23,23,,,,,,,,,,,,,,,,,l,1,0.49982860000000073,,,,,,,,,,,,tj,m,20,2024_Apr_13_1350,mian,2021.2.3,60.008089090406706,
E5,1,1,E,a,"[0.2, 0.2]",,,,,,,,,,,,,,,,,,,,0,24,24,24,,,,,,,,,,,,,,,,,a,1,3.171833900000024,,,,,,,,,,,,tj,m,20,2024_Apr_13_1350,mian,2021.2.3,60.008089090406706,
g6,1,2,g,l,"[-0.2, 0.2]",,,,,,,,,,,,,,,,,,,,0,25,25,25,,,,,,,,,,,,,,,,,l,1,0.5582742999999937,,,,,,,,,,,,tj,m,20,2024_Apr_13_1350,mian,2021.2.3,60.008089090406706,
2e,2,1,2.0,l,"[-0.2, -0.2]",,,,,,,,,,,,,,,,,,,,0,26,26,26,,,,,,,,,,,,,,,,,l,1,0.7798219999999674,,,,,,,,,,,,tj,m,20,2024_Apr_13_1350,mian,2021.2.3,60.008089090406706,
h8,2,2,8.0,l,"[0.2, -0.2]",,,,,,,,,,,,,,,,,,,,0,27,27,27,,,,,,,,,,,,,,,,,l,1,0.7075717000000168,,,,,,,,,,,,tj,m,20,2024_Apr_13_1350,mian,2021.2.3,60.008089090406706,
G6,1,1,G,a,"[0.2, 0.2]",,,,,,,,,,,,,,,,,,,,0,28,28,28,,,,,,,,,,,,,,,,,a,1,0.9729241000000002,,,,,,,,,,,,tj,m,20,2024_Apr_13_1350,mian,2021.2.3,60.008089090406706,
a4,1,2,a,l,"[-0.2, 0.2]",,,,,,,,,,,,,,,,,,,,0,29,29,29,,,,,,,,,,,,,,,,,l,1,0.5508042999999816,,,,,,,,,,,,tj,m,20,2024_Apr_13_1350,mian,2021.2.3,60.008089090406706,
9H,2,1,9.0,a,"[-0.2, -0.2]",,,,,,,,,,,,,,,,,,,,0,30,30,30,,,,,,,,,,,,,,,,,a,1,0.9907951000000139,,,,,,,,,,,,tj,m,20,2024_Apr_13_1350,mian,2021.2.3,60.008089090406706,
7H,2,2,7.0,a,"[0.2, -0.2]",,,,,,,,,,,,,,,,,,,,0,31,31,31,,,,,,,,,,,,,,,,,a,1,0.6099573000000191,,,,,,,,,,,,tj,m,20,2024_Apr_13_1350,mian,2021.2.3,60.008089090406706,
9f,1,1,f,l,"[0.2, 0.2]",,,,,,,,,,,,,,,,,,,,0,32,32,32,,,,,,,,,,,,,,,,,l,1,0.8516790999999557,,,,,,,,,,,,tj,m,20,2024_Apr_13_1350,mian,2021.2.3,60.008089090406706,
8E,1,2,E,a,"[-0.2, 0.2]",,,,,,,,,,,,,,,,,,,,0,33,33,33,,,,,,,,,,,,,,,,,a,1,0.6244598000000678,,,,,,,,,,,,tj,m,20,2024_Apr_13_1350,mian,2021.2.3,60.008089090406706,
A2,2,1,2.0,l,"[-0.2, -0.2]",,,,,,,,,,,,,,,,,,,,0,34,34,34,,,,,,,,,,,,,,,,,l,1,1.7413050000000112,,,,,,,,,,,,tj,m,20,2024_Apr_13_1350,mian,2021.2.3,60.008089090406706,
H7,2,2,7.0,a,"[0.2, -0.2]",,,,,,,,,,,,,,,,,,,,0,35,35,35,,,,,,,,,,,,,,,,,a,1,3.5818479999999226,,,,,,,,,,,,tj,m,20,2024_Apr_13_1350,mian,2021.2.3,60.008089090406706,
h9,1,1,h,l,"[0.2, 0.2]",,,,,,,,,,,,,,,,,,,,0,36,36,36,,,,,,,,,,,,,,,,,l,1,3.5627357999999276,,,,,,,,,,,,tj,m,20,2024_Apr_13_1350,mian,2021.2.3,60.008089090406706,
8G,1,2,G,a,"[-0.2, 0.2]",,,,,,,,,,,,,,,,,,,,0,37,37,37,,,,,,,,,,,,,,,,,a,1,0.5471843000000263,,,,,,,,,,,,tj,m,20,2024_Apr_13_1350,mian,2021.2.3,60.008089090406706,
H4,2,1,4.0,l,"[-0.2, -0.2]",,,,,,,,,,,,,,,,,,,,0,38,38,38,,,,,,,,,,,,,,,,,a,0,1.1785076000001027,,,,,,,,,,,,tj,m,20,2024_Apr_13_1350,mian,2021.2.3,60.008089090406706,
A8,2,2,8.0,l,"[0.2, -0.2]",,,,,,,,,,,,,,,,,,,,0,39,39,39,,,,,,,,,,,,,,,,,l,1,3.701246200000014,,,,,,,,,,,,tj,m,20,2024_Apr_13_1350,mian,2021.2.3,60.008089090406706,
g7,1,1,g,l,"[0.2, 0.2]",,,,,,,,,,,,,,,,,,,,0,40,40,40,,,,,,,,,,,,,,,,,l,1,0.662632799999983,,,,,,,,,,,,tj,m,20,2024_Apr_13_1350,mian,2021.2.3,60.008089090406706,
H9,1,2,H,a,"[-0.2, 0.2]",,,,,,,,,,,,,,,,,,,,0,41,41,41,,,,,,,,,,,,,,,,,a,1,0.6785462999999936,,,,,,,,,,,,tj,m,20,2024_Apr_13_1350,mian,2021.2.3,60.008089090406706,
9E,2,1,9.0,a,"[-0.2, -0.2]",,,,,,,,,,,,,,,,,,,,0,42,42,42,,,,,,,,,,,,,,,,,l,0,4.378843800000027,,,,,,,,,,,,tj,m,20,2024_Apr_13_1350,mian,2021.2.3,60.008089090406706,
a5,2,2,5.0,a,"[0.2, -0.2]",,,,,,,,,,,,,,,,,,,,0,43,43,43,,,,,,,,,,,,,,,,,a,1,1.344697799999949,,,,,,,,,,,,tj,m,20,2024_Apr_13_1350,mian,2021.2.3,60.008089090406706,
3E,1,1,E,a,"[0.2, 0.2]",,,,,,,,,,,,,,,,,,,,0,44,44,44,,,,,,,,,,,,,,,,,a,1,2.0369610000000193,,,,,,,,,,,,tj,m,20,2024_Apr_13_1350,mian,2021.2.3,60.008089090406706,
6f,1,2,f,l,"[-0.2, 0.2]",,,,,,,,,,,,,,,,,,,,0,45,45,45,,,,,,,,,,,,,,,,,l,1,0.6915990999999622,,,,,,,,,,,,tj,m,20,2024_Apr_13_1350,mian,2021.2.3,60.008089090406706,
g8,2,1,8.0,l,"[-0.2, -0.2]",,,,,,,,,,,,,,,,,,,,0,46,46,46,,,,,,,,,,,,,,,,,l,1,0.7489825999999766,,,,,,,,,,,,tj,m,20,2024_Apr_13_1350,mian,2021.2.3,60.008089090406706,
4F,2,2,4.0,l,"[0.2, -0.2]",,,,,,,,,,,,,,,,,,,,0,47,47,47,,,,,,,,,,,,,,,,,l,1,0.5813646999999946,,,,,,,,,,,,tj,m,20,2024_Apr_13_1350,mian,2021.2.3,60.008089090406706,
4a,1,1,a,l,"[0.2, 0.2]",,,,,,,,,,,,,,,,,,,,0,48,48,48,,,,,,,,,,,,,,,,,l,1,1.7428277000000207,,,,,,,,,,,,tj,m,20,2024_Apr_13_1350,mian,2021.2.3,60.008089090406706,
e3,1,2,e,l,"[-0.2, 0.2]",,,,,,,,,,,,,,,,,,,,0,49,49,49,,,,,,,,,,,,,,,,,l,1,1.6226281000000427,,,,,,,,,,,,tj,m,20,2024_Apr_13_1350,mian,2021.2.3,60.008089090406706,
5g,2,1,5.0,a,"[-0.2, -0.2]",,,,,,,,,,,,,,,,,,,,0,50,50,50,,,,,,,,,,,,,,,,,a,1,0.7883970000000318,,,,,,,,,,,,tj,m,20,2024_Apr_13_1350,mian,2021.2.3,60.008089090406706,
f4,2,2,4.0,l,"[0.2, -0.2]",,,,,,,,,,,,,,,,,,,,0,51,51,51,,,,,,,,,,,,,,,,,l,1,0.6669665999999097,,,,,,,,,,,,tj,m,20,2024_Apr_13_1350,mian,2021.2.3,60.008089090406706,
6E,1,1,E,a,"[0.2, 0.2]",,,,,,,,,,,,,,,,,,,,0,52,52,52,,,,,,,,,,,,,,,,,a,1,1.6555708000000777,,,,,,,,,,,,tj,m,20,2024_Apr_13_1350,mian,2021.2.3,60.008089090406706,
7A,1,2,A,a,"[-0.2, 0.2]",,,,,,,,,,,,,,,,,,,,0,53,53,53,,,,,,,,,,,,,,,,,a,1,0.61926660000006,,,,,,,,,,,,tj,m,20,2024_Apr_13_1350,mian,2021.2.3,60.008089090406706,
F4,2,1,4.0,l,"[-0.2, -0.2]",,,,,,,,,,,,,,,,,,,,0,54,54,54,,,,,,,,,,,,,,,,,l,1,1.50776350000001,,,,,,,,,,,,tj,m,20,2024_Apr_13_1350,mian,2021.2.3,60.008089090406706,
2g,2,2,2.0,l,"[0.2, -0.2]",,,,,,,,,,,,,,,,,,,,0,55,55,55,,,,,,,,,,,,,,,,,l,1,0.6471194000000651,,,,,,,,,,,,tj,m,20,2024_Apr_13_1350,mian,2021.2.3,60.008089090406706,
7E,1,1,E,a,"[0.2, 0.2]",,,,,,,,,,,,,,,,,,,,0,56,56,56,,,,,,,,,,,,,,,,,a,1,1.6155095000000301,,,,,,,,,,,,tj,m,20,2024_Apr_13_1350,mian,2021.2.3,60.008089090406706,
G4,1,2,G,a,"[-0.2, 0.2]",,,,,,,,,,,,,,,,,,,,0,57,57,57,,,,,,,,,,,,,,,,,a,1,0.5527609000000666,,,,,,,,,,,,tj,m,20,2024_Apr_13_1350,mian,2021.2.3,60.008089090406706,
2F,2,1,2.0,l,"[-0.2, -0.2]",,,,,,,,,,,,,,,,,,,,0,58,58,58,,,,,,,,,,,,,,,,,l,1,1.4958738000000267,,,,,,,,,,,,tj,m,20,2024_Apr_13_1350,mian,2021.2.3,60.008089090406706,
E9,2,2,9.0,a,"[0.2, -0.2]",,,,,,,,,,,,,,,,,,,,0,59,59,59,,,,,,,,,,,,,,,,,a,1,0.8589619000000539,,,,,,,,,,,,tj,m,20,2024_Apr_13_1350,mian,2021.2.3,60.008089090406706,
5f,1,1,f,l,"[0.2, 0.2]",,,,,,,,,,,,,,,,,,,,0,60,60,60,,,,,,,,,,,,,,,,,l,1,3.6503946999999926,,,,,,,,,,,,tj,m,20,2024_Apr_13_1350,mian,2021.2.3,60.008089090406706,
e7,1,2,e,l,"[-0.2, 0.2]",,,,,,,,,,,,,,,,,,,,0,61,61,61,,,,,,,,,,,,,,,,,l,1,1.1092339999999012,,,,,,,,,,,,tj,m,20,2024_Apr_13_1350,mian,2021.2.3,60.008089090406706,
f2,2,1,2.0,l,"[-0.2, -0.2]",,,,,,,,,,,,,,,,,,,,0,62,62,62,,,,,,,,,,,,,,,,,l,1,0.7356474999999136,,,,,,,,,,,,tj,m,20,2024_Apr_13_1350,mian,2021.2.3,60.008089090406706,
G9,2,2,9.0,a,"[0.2, -0.2]",,,,,,,,,,,,,,,,,,,,0,63,63,63,,,,,,,,,,,,,,,,,a,1,0.6294105000000627,,,,,,,,,,,,tj,m,20,2024_Apr_13_1350,mian,2021.2.3,60.008089090406706,
7g,1,1,g,l,"[0.2, 0.2]",,,,,,,,,,,,,,,,,,,,0,64,64,64,,,,,,,,,,,,,,,,,l,1,1.295031700000095,,,,,,,,,,,,tj,m,20,2024_Apr_13_1350,mian,2021.2.3,60.008089090406706,
F8,1,2,F,a,"[-0.2, 0.2]",,,,,,,,,,,,,,,,,,,,0,65,65,65,,,,,,,,,,,,,,,,,a,1,1.0803601999999728,,,,,,,,,,,,tj,m,20,2024_Apr_13_1350,mian,2021.2.3,60.008089090406706,
A7,2,1,7.0,a,"[-0.2, -0.2]",,,,,,,,,,,,,,,,,,,,0,66,66,66,,,,,,,,,,,,,,,,,a,1,1.5326588000000356,,,,,,,,,,,,tj,m,20,2024_Apr_13_1350,mian,2021.2.3,60.008089090406706,
4G,2,2,4.0,l,"[0.2, -0.2]",,,,,,,,,,,,,,,,,,,,0,67,67,67,,,,,,,,,,,,,,,,,l,1,0.6798533999999563,,,,,,,,,,,,tj,m,20,2024_Apr_13_1350,mian,2021.2.3,60.008089090406706,
g2,1,1,g,l,"[0.2, 0.2]",,,,,,,,,,,,,,,,,,,,0,68,68,68,,,,,,,,,,,,,,,,,l,1,1.1640373999999838,,,,,,,,,,,,tj,m,20,2024_Apr_13_1350,mian,2021.2.3,60.008089090406706,
g4,1,2,g,l,"[-0.2, 0.2]",,,,,,,,,,,,,,,,,,,,0,69,69,69,,,,,,,,,,,,,,,,,l,1,0.4795044999999618,,,,,,,,,,,,tj,m,20,2024_Apr_13_1350,mian,2021.2.3,60.008089090406706,
7a,2,1,7.0,a,"[-0.2, -0.2]",,,,,,,,,,,,,,,,,,,,0,70,70,70,,,,,,,,,,,,,,,,,l,0,0.6786255000000665,,,,,,,,,,,,tj,m,20,2024_Apr_13_1350,mian,2021.2.3,60.008089090406706,
8e,2,2,8.0,l,"[0.2, -0.2]",,,,,,,,,,,,,,,,,,,,0,71,71,71,,,,,,,,,,,,,,,,,l,1,0.8284371999999394,,,,,,,,,,,,tj,m,20,2024_Apr_13_1350,mian,2021.2.3,60.008089090406706,
h4,1,1,h,l,"[0.2, 0.2]",,,,,,,,,,,,,,,,,,,,0,72,72,72,,,,,,,,,,,,,,,,,l,1,1.0848690999999917,,,,,,,,,,,,tj,m,20,2024_Apr_13_1350,mian,2021.2.3,60.008089090406706,
G8,1,2,G,a,"[-0.2, 0.2]",,,,,,,,,,,,,,,,,,,,0,73,73,73,,,,,,,,,,,,,,,,,a,1,0.57826799999998,,,,,,,,,,,,tj,m,20,2024_Apr_13_1350,mian,2021.2.3,60.008089090406706,
6F,2,1,6.0,l,"[-0.2, -0.2]",,,,,,,,,,,,,,,,,,,,0,74,74,74,,,,,,,,,,,,,,,,,a,0,0.7828332000000273,,,,,,,,,,,,tj,m,20,2024_Apr_13_1350,mian,2021.2.3,60.008089090406706,
g5,2,2,5.0,a,"[0.2, -0.2]",,,,,,,,,,,,,,,,,,,,0,75,75,75,,,,,,,,,,,,,,,,,a,1,0.75582959999997,,,,,,,,,,,,tj,m,20,2024_Apr_13_1350,mian,2021.2.3,60.008089090406706,
G5,1,1,G,a,"[0.2, 0.2]",,,,,,,,,,,,,,,,,,,,0,76,76,76,,,,,,,,,,,,,,,,,a,1,2.210558600000013,,,,,,,,,,,,tj,m,20,2024_Apr_13_1350,mian,2021.2.3,60.008089090406706,
h5,1,2,h,l,"[-0.2, 0.2]",,,,,,,,,,,,,,,,,,,,0,77,77,77,,,,,,,,,,,,,,,,,l,1,0.9019518000000062,,,,,,,,,,,,tj,m,20,2024_Apr_13_1350,mian,2021.2.3,60.008089090406706,
9G,2,1,9.0,a,"[-0.2, -0.2]",,,,,,,,,,,,,,,,,,,,0,78,78,78,,,,,,,,,,,,,,,,,a,1,1.8685054999999693,,,,,,,,,,,,tj,m,20,2024_Apr_13_1350,mian,2021.2.3,60.008089090406706,
F3,2,2,3.0,a,"[0.2, -0.2]",,,,,,,,,,,,,,,,,,,,0,79,79,79,,,,,,,,,,,,,,,,,a,1,0.6685097000000724,,,,,,,,,,,,tj,m,20,2024_Apr_13_1350,mian,2021.2.3,60.008089090406706,
,,,,,,0,0,pic/flanker6.png,pic/flanker2.png,a,l,,,,,,,,,,,,,,,,,,0,0,0,0,0,0,0,1,,,,,,,,,,,,644.3018387,None,643.1137152000001,644.3184114999999,a,1,1.1326025000000755,轻率,l,1,2.3869088000001284,tj,m,20,2024_Apr_13_1350,mian,2021.2.3,60.008089090406706,
,,,,,,1,1,pic/flanker5.png,pic/flanker3.png,a,k,,,,,,,,,,,,,,,,,,0,0,0,0,0,1,1,4,,,,,,,,,,,,649.9686322,None,648.7851734999999,649.9852432,a,1,0.6968282000000272,俊秀,k,1,0.8122952000001078,tj,m,20,2024_Apr_13_1350,mian,2021.2.3,60.008089090406706,
,,,,,,0,0,pic/flanker5.png,pic/flanker1.png,s,l,,,,,,,,,,,,,,,,,,0,0,0,0,0,2,2,3,,,,,,,,,,,,653.3685287999999,None,652.1852200000001,653.3850442999999,s,1,0.4513566999999057,撒谎,l,1,0.7457440000000588,tj,m,20,2024_Apr_13_1350,mian,2021.2.3,60.008089090406706,
,,,,,,1,0,pic/flanker6.png,pic/flanker4.png,s,l,,,,,,,,,,,,,,,,,,0,0,0,0,0,3,3,5,,,,,,,,,,,,656.4522340000001,None,655.2683365,656.4688315000001,s,1,0.5777228000001742,落后,l,1,1.1840680000000248,tj,m,20,2024_Apr_13_1350,mian,2021.2.3,60.008089090406706,
,,,,,,1,1,pic/flanker6.png,pic/flanker4.png,s,k,,,,,,,,,,,,,,,,,,0,0,0,0,0,4,4,6,,,,,,,,,,,,660.1018868000001,None,658.9179942000001,660.1185539,s,1,0.5940527999998721,丰满,None,0,,tj,m,20,2024_Apr_13_1350,mian,2021.2.3,60.008089090406706,
,,,,,,0,1,pic/flanker5.png,pic/flanker1.png,s,k,,,,,,,,,,,,,,,,,,0,0,0,0,0,5,5,0,,,,,,,,,,,,665.0184079,None,663.8352256000001,665.0350905,s,1,0.2861189000000195,廉洁,k,1,1.2900738999999248,tj,m,20,2024_Apr_13_1350,mian,2021.2.3,60.008089090406706,
,,,,,,1,0,pic/flanker5.png,pic/flanker3.png,a,l,,,,,,,,,,,,,,,,,,0,0,0,0,0,6,6,7,,,,,,,,,,,,668.6354755,None,667.4518493,668.6521542,a,1,0.5543978000000607,浪费,l,1,0.6991921999999704,tj,m,20,2024_Apr_13_1350,mian,2021.2.3,60.008089090406706,
,,,,,,0,1,pic/flanker6.png,pic/flanker2.png,a,k,,,,,,,,,,,,,,,,,,0,0,0,0,0,7,7,2,,,,,,,,,,,,671.8353122999999,None,670.6516251,671.852083,a,1,0.5070872999999665,热切,k,1,0.936095099999875,tj,m,20,2024_Apr_13_1350,mian,2021.2.3,60.008089090406706,
,,,,,,,,,,,,,,,,,,,,,,,,,,,,,0,0,0,0,,,,,,,,,,,,,,,,,,,,,,,,,,,tj,m,20,2024_Apr_13_1350,mian,2021.2.3,60.008089090406706,
,,,,,,1,1,pic/flanker5.png,pic/flanker3.png,a,k,pic/AffRest1.png,,,,,,,,,,,,,,,,,,,,,,,,,0,0,0,0,0,0,0,12,,,,697.8351287999999,None,696.6360136999999,697.8351287999999,a,1,0.5837108999999145,赞成,k,1,0.6858111000001372,tj,m,20,2024_Apr_13_1350,mian,2021.2.3,60.008089090406706,
,,,,,,1,0,pic/flanker5.png,pic/flanker3.png,a,l,pic/AffRest1.png,,,,,,,,,,,,,,,,,,,,,,,,,0,0,0,0,0,1,1,55,,,,700.9849116,None,699.8017613,701.0012778,a,1,0.5131617000001825,逃避,l,1,0.5534540999999535,tj,m,20,2024_Apr_13_1350,mian,2021.2.3,60.008089090406706,
,,,,,,1,0,pic/flanker5.png,pic/flanker3.png,a,l,pic/AffRest1.png,,,,,,,,,,,,,,,,,,,,,,,,,0,0,0,0,0,2,2,7,,,,704.1018374,None,702.9184637999999,704.117855,a,1,1.3160092999999051,心慌,l,1,0.6777368000000479,tj,m,20,2024_Apr_13_1350,mian,2021.2.3,60.008089090406706,
,,,,,,1,1,pic/flanker6.png,pic/flanker4.png,s,k,pic/AffRest1.png,,,,,,,,,,,,,,,,,,,,,,,,,0,0,0,0,0,3,3,54,,,,708.1018399,None,706.9184565,708.1177565999999,s,1,0.41334059999985584,清秀,k,1,0.577699000000166,tj,m,20,2024_Apr_13_1350,mian,2021.2.3,60.008089090406706,
,,,,,,0,0,pic/flanker5.png,pic/flanker1.png,s,l,pic/AffRest1.png,,,,,,,,,,,,,,,,,,,,,,,,,0,0,0,0,0,4,4,27,,,,711.0346268999999,None,709.8520739,711.0512435,s,1,0.5783931000000848,穷苦,l,1,1.5103619999999864,tj,m,20,2024_Apr_13_1350,mian,2021.2.3,60.008089090406706,
,,,,,,0,0,pic/flanker6.png,pic/flanker2.png,a,l,pic/AffRest1.png,,,,,,,,,,,,,,,,,,,,,,,,,0,0,0,0,0,5,5,41,,,,715.0684666,None,713.8851199999999,715.0852047000001,a,1,0.44363590000011754,郁闷,l,1,0.6915791000001263,tj,m,20,2024_Apr_13_1350,mian,2021.2.3,60.008089090406706,
,,,,,,1,1,pic/flanker6.png,pic/flanker4.png,s,k,pic/AffRest1.png,,,,,,,,,,,,,,,,,,,,,,,,,0,0,0,0,0,6,6,38,,,,718.2684916000001,None,717.0850992000001,718.285202,s,1,0.42039309999995567,珍藏,k,1,2.263905300000033,tj,m,20,2024_Apr_13_1350,mian,2021.2.3,60.008089090406706,
,,,,,,1,0,pic/flanker5.png,pic/flanker3.png,a,l,pic/AffRest1.png,,,,,,,,,,,,,,,,,,,,,,,,,0,0,0,0,0,7,7,47,,,,722.8018483000001,None,721.6184851,722.8185242,a,1,0.5244258999998692,怀疑,l,1,0.7338595999999598,tj,m,20,2024_Apr_13_1350,mian,2021.2.3,60.008089090406706,
,,,,,,1,1,pic/flanker5.png,pic/flanker3.png,a,k,pic/AffRest1.png,,,,,,,,,,,,,,,,,,,,,,,,,0,0,0,0,0,8,8,20,,,,726.1345464000001,None,724.9518951,726.1511138000001,a,1,0.5239555000000564,永恒,k,1,1.4629276000000573,tj,m,20,2024_Apr_13_1350,mian,2021.2.3,60.008089090406706,
,,,,,,1,1,pic/flanker6.png,pic/flanker4.png,s,k,pic/AffRest1.png,,,,,,,,,,,,,,,,,,,,,,,,,0,0,0,0,0,9,9,78,,,,729.984956,None,728.8017944999999,730.0017161000001,s,1,0.571876599999996,豪放,k,1,0.5925477999999202,tj,m,20,2024_Apr_13_1350,mian,2021.2.3,60.008089090406706,
,,,,,,1,1,pic/flanker6.png,pic/flanker4.png,s,k,pic/AffRest1.png,,,,,,,,,,,,,,,,,,,,,,,,,0,0,0,0,0,10,10,30,,,,733.0677229,None,731.8850918999999,733.0851680999999,s,1,0.4667398999999932,富足,k,1,0.6318570999999338,tj,m,20,2024_Apr_13_1350,mian,2021.2.3,60.008089090406706,
,,,,,,1,0,pic/flanker5.png,pic/flanker3.png,a,l,pic/AffRest1.png,,,,,,,,,,,,,,,,,,,,,,,,,0,0,0,0,0,11,11,63,,,,736.0351791999999,None,734.8517872,736.0518594,a,1,0.39930039999990186,悲观,l,1,0.7151992999999948,tj,m,20,2024_Apr_13_1350,mian,2021.2.3,60.008089090406706,
,,,,,,0,1,pic/flanker6.png,pic/flanker2.png,a,k,pic/AffRest1.png,,,,,,,,,,,,,,,,,,,,,,,,,0,0,0,0,0,12,12,34,,,,739.1345782000001,None,737.9511367,739.151347,a,1,0.6054675000000316,前进,k,1,0.6560050999999021,tj,m,20,2024_Apr_13_1350,mian,2021.2.3,60.008089090406706,
,,,,,,0,1,pic/flanker5.png,pic/flanker1.png,s,k,pic/AffRest1.png,,,,,,,,,,,,,,,,,,,,,,,,,0,0,0,0,0,13,13,48,,,,742.3183776999999,None,741.1351672999999,742.3351422999999,s,1,0.5165609000000586,精致,k,1,0.6103914000000259,tj,m,20,2024_Apr_13_1350,mian,2021.2.3,60.008089090406706,
,,,,,,1,0,pic/flanker6.png,pic/flanker4.png,s,l,pic/AffRest1.png,,,,,,,,,,,,,,,,,,,,,,,,,0,0,0,0,0,14,14,5,,,,745.3684828999999,None,744.1851532000001,745.3851107,s,1,0.5226623999999447,忧虑,l,1,1.0985967999999957,tj,m,20,2024_Apr_13_1350,mian,2021.2.3,60.008089090406706,
,,,,,,1,0,pic/flanker6.png,pic/flanker4.png,s,l,pic/AffRest1.png,,,,,,,,,,,,,,,,,,,,,,,,,0,0,0,0,0,15,15,77,,,,748.9517742,None,747.7685160000001,748.9684846,s,1,0.485759200000075,冷笑,l,1,0.9215460000000348,tj,m,20,2024_Apr_13_1350,mian,2021.2.3,60.008089090406706,
,,,,,,0,1,pic/flanker6.png,pic/flanker2.png,a,k,pic/AffRest1.png,,,,,,,,,,,,,,,,,,,,,,,,,0,0,0,0,0,16,16,10,,,,752.3018568,None,751.1184673,752.3184343,a,1,0.5195088000000396,充裕,k,1,2.4692398999998204,tj,m,20,2024_Apr_13_1350,mian,2021.2.3,60.008089090406706,
,,,,,,1,0,pic/flanker6.png,pic/flanker4.png,s,l,pic/AffRest1.png,,,,,,,,,,,,,,,,,,,,,,,,,0,0,0,0,0,17,17,21,,,,757.1684206,None,755.9850408,757.1852873,s,1,0.6216598999999405,沮丧,l,1,0.6428093000001809,tj,m,20,2024_Apr_13_1350,mian,2021.2.3,60.008089090406706,
,,,,,,1,1,pic/flanker6.png,pic/flanker4.png,s,k,pic/AffRest1.png,,,,,,,,,,,,,,,,,,,,,,,,,0,0,0,0,0,18,18,22,,,,760.5017820999999,None,759.3183806,760.5184568,s,1,0.7089011000000482,爽朗,k,1,0.5512023999999656,tj,m,20,2024_Apr_13_1350,mian,2021.2.3,60.008089090406706,
,,,,,,0,1,pic/flanker5.png,pic/flanker1.png,s,k,pic/AffRest1.png,,,,,,,,,,,,,,,,,,,,,,,,,0,0,0,0,0,19,19,56,,,,763.6185734000001,None,762.4351607000001,763.6350617,s,1,0.4415698999998767,振作,k,1,0.5715176000001065,tj,m,20,2024_Apr_13_1350,mian,2021.2.3,60.008089090406706,
,,,,,,0,0,pic/flanker6.png,pic/flanker2.png,a,l,pic/AffRest1.png,,,,,,,,,,,,,,,,,,,,,,,,,0,0,0,0,0,20,20,1,,,,766.5351252999999,None,765.3517033999999,766.5517771,a,1,0.3021353999999974,闷热,l,1,1.4041755000000649,tj,m,20,2024_Apr_13_1350,mian,2021.2.3,60.008089090406706,
,,,,,,0,0,pic/flanker5.png,pic/flanker1.png,s,l,pic/AffRest1.png,,,,,,,,,,,,,,,,,,,,,,,,,0,0,0,0,0,21,21,75,,,,770.3016617999999,None,769.1183632,770.3183044,s,1,0.377396299999873,懒惰,l,1,0.7828868999999941,tj,m,20,2024_Apr_13_1350,mian,2021.2.3,60.008089090406706,
,,,,,,0,0,pic/flanker6.png,pic/flanker2.png,a,l,pic/AffRest1.png,,,,,,,,,,,,,,,,,,,,,,,,,0,0,0,0,0,22,22,65,,,,773.4515481999999,None,772.2683348999999,773.4681822,a,1,0.39640429999985827,杂乱,l,1,0.6596253000000161,tj,m,20,2024_Apr_13_1350,mian,2021.2.3,60.008089090406706,
,,,,,,0,0,pic/flanker5.png,pic/flanker1.png,s,l,pic/AffRest1.png,,,,,,,,,,,,,,,,,,,,,,,,,0,0,0,0,0,23,23,51,,,,776.5683779000001,None,775.3848702,776.5850254,s,1,0.3886866000000282,别扭,l,1,0.5884361999999328,tj,m,20,2024_Apr_13_1350,mian,2021.2.3,60.008089090406706,
,,,,,,1,1,pic/flanker5.png,pic/flanker3.png,a,k,pic/AffRest1.png,,,,,,,,,,,,,,,,,,,,,,,,,0,0,0,0,0,24,24,4,,,,779.4182758,None,778.2350635,779.4350916999999,a,1,0.42973430000006374,有利,k,1,1.2945059999999557,tj,m,20,2024_Apr_13_1350,mian,2021.2.3,60.008089090406706,
,,,,,,0,1,pic/flanker6.png,pic/flanker2.png,a,k,pic/AffRest1.png,,,,,,,,,,,,,,,,,,,,,,,,,0,0,0,0,0,25,25,66,,,,783.1349547,None,781.9516304000001,783.1516859000001,a,1,0.4032706999998936,敬佩,k,1,0.5662520999999288,tj,m,20,2024_Apr_13_1350,mian,2021.2.3,60.008089090406706,
,,,,,,1,1,pic/flanker6.png,pic/flanker4.png,s,k,pic/AffRest1.png,,,,,,,,,,,,,,,,,,,,,,,,,0,0,0,0,0,26,26,62,,,,785.9683250999999,None,784.7851032000001,785.9850786,s,1,0.44071569999982785,羡慕,k,1,2.0758387999999286,tj,m,20,2024_Apr_13_1350,mian,2021.2.3,60.008089090406706,
,,,,,,0,1,pic/flanker6.png,pic/flanker2.png,a,k,pic/AffRest1.png,,,,,,,,,,,,,,,,,,,,,,,,,0,0,0,0,0,27,27,50,,,,790.4016455000001,None,789.2183803,790.4183706000001,a,1,0.6683279000001221,廉洁,k,1,0.5931139000001622,tj,m,20,2024_Apr_13_1350,mian,2021.2.3,60.008089090406706,
,,,,,,0,0,pic/flanker5.png,pic/flanker1.png,s,l,pic/AffRest1.png,,,,,,,,,,,,,,,,,,,,,,,,,0,0,0,0,0,28,28,3,,,,793.6183881,None,792.4349107,793.6350691,s,1,0.29384140000001935,自卑,l,1,0.556219800000008,tj,m,20,2024_Apr_13_1350,mian,2021.2.3,60.008089090406706,
,,,,,,1,1,pic/flanker6.png,pic/flanker4.png,s,k,pic/AffRest1.png,,,,,,,,,,,,,,,,,,,,,,,,,0,0,0,0,0,29,29,46,,,,796.4519321,None,795.2683305999999,796.4684288999999,s,1,0.47005509999985406,奉献,k,1,0.7454359999999269,tj,m,20,2024_Apr_13_1350,mian,2021.2.3,60.008089090406706,
,,,,,,1,0,pic/flanker6.png,pic/flanker4.png,s,l,pic/AffRest1.png,,,,,,,,,,,,,,,,,,,,,,,,,0,0,0,0,0,30,30,37,,,,799.6184072000001,None,798.4349063,799.6349095999999,s,1,0.41419859999996333,撒谎,l,1,0.5760437999999795,tj,m,20,2024_Apr_13_1350,mian,2021.2.3,60.008089090406706,
,,,,,,0,0,pic/flanker5.png,pic/flanker1.png,s,l,pic/AffRest1.png,,,,,,,,,,,,,,,,,,,,,,,,,0,0,0,0,0,31,31,59,,,,802.5016863000001,None,801.3183531,802.5184032,s,1,0.3853865000000951,厌恶,l,1,0.49859809999998106,tj,m,20,2024_Apr_13_1350,mian,2021.2.3,60.008089090406706,
,,,,,,1,1,pic/flanker5.png,pic/flanker3.png,a,k,pic/AffRest1.png,,,,,,,,,,,,,,,,,,,,,,,,,0,0,0,0,0,32,32,68,,,,805.2516212,None,804.0683818,805.2683267,a,1,0.4502177000001666,顽强,k,1,2.36773519999997,tj,m,20,2024_Apr_13_1350,mian,2021.2.3,60.008089090406706,
,,,,,,0,1,pic/flanker6.png,pic/flanker2.png,a,k,pic/AffRest1.png,,,,,,,,,,,,,,,,,,,,,,,,,0,0,0,0,0,33,33,2,,,,810.1016354999999,None,808.9183832000001,810.1182900000001,a,1,0.39807380000002013,雄厚,k,1,0.589697299999898,tj,m,20,2024_Apr_13_1350,mian,2021.2.3,60.008089090406706,
,,,,,,1,0,pic/flanker5.png,pic/flanker3.png,a,l,pic/AffRest1.png,,,,,,,,,,,,,,,,,,,,,,,,,0,0,0,0,0,34,34,31,,,,812.9517452,None,811.7683251999999,812.9682743999999,a,1,0.47131709999985105,浪费,l,1,1.0975206000000526,tj,m,20,2024_Apr_13_1350,mian,2021.2.3,60.008089090406706,
,,,,,,0,1,pic/flanker6.png,pic/flanker2.png,a,k,pic/AffRest1.png,,,,,,,,,,,,,,,,,,,,,,,,,0,0,0,0,0,35,35,58,,,,816.4180271,None,815.2343409,816.4345099,a,1,0.44000720000008187,公平,k,1,1.6143056000000797,tj,m,20,2024_Apr_13_1350,mian,2021.2.3,60.008089090406706,
,,,,,,1,1,pic/flanker5.png,pic/flanker3.png,a,k,pic/AffRest1.png,,,,,,,,,,,,,,,,,,,,,,,,,0,0,0,0,0,36,36,60,,,,820.5178401999999,None,819.3345279,820.5345629999999,a,1,0.6049551999999494,圣洁,k,1,0.7117212999999083,tj,m,20,2024_Apr_13_1350,mian,2021.2.3,60.008089090406706,
,,,,,,0,1,pic/flanker5.png,pic/flanker1.png,s,k,pic/AffRest1.png,,,,,,,,,,,,,,,,,,,,,,,,,0,0,0,0,0,37,37,24,,,,823.7015448,None,822.5182545,823.7182932999999,s,1,0.3657938999999715,享受,k,1,0.6360260999999809,tj,m,20,2024_Apr_13_1350,mian,2021.2.3,60.008089090406706,
,,,,,,0,1,pic/flanker5.png,pic/flanker1.png,s,k,pic/AffRest1.png,,,,,,,,,,,,,,,,,,,,,,,,,0,0,0,0,0,38,38,32,,,,826.7183333999999,None,825.5348435000001,826.7349726,s,1,0.4014048000001367,热切,k,1,0.6740936999999576,tj,m,20,2024_Apr_13_1350,mian,2021.2.3,60.008089090406706,
,,,,,,0,1,pic/flanker5.png,pic/flanker1.png,s,k,pic/AffRest1.png,,,,,,,,,,,,,,,,,,,,,,,,,0,0,0,0,0,39,39,40,,,,829.7848842999999,None,828.6016732999999,829.8017643000001,s,1,0.4946982999999818,秀丽,k,1,0.5868671999999151,tj,m,20,2024_Apr_13_1350,mian,2021.2.3,60.008089090406706,
,,,,,,0,0,pic/flanker5.png,pic/flanker1.png,s,l,pic/AffRest1.png,,,,,,,,,,,,,,,,,,,,,,,,,0,0,0,0,0,40,40,43,,,,832.8683192000001,None,831.6844885999999,832.8848358,s,1,0.5231466999998702,假冒,l,1,0.7031939000000875,tj,m,20,2024_Apr_13_1350,mian,2021.2.3,60.008089090406706,
,,,,,,0,1,pic/flanker5.png,pic/flanker1.png,s,k,pic/AffRest1.png,,,,,,,,,,,,,,,,,,,,,,,,,0,0,0,0,0,41,41,64,,,,836.0509727000001,None,834.8682311,836.0675014000001,s,1,0.39758439999991424,富丽,k,1,0.5931335000000217,tj,m,20,2024_Apr_13_1350,mian,2021.2.3,60.008089090406706,
,,,,,,1,1,pic/flanker5.png,pic/flanker3.png,a,k,pic/AffRest1.png,,,,,,,,,,,,,,,,,,,,,,,,,0,0,0,0,0,42,42,44,,,,838.9347819,None,837.7512287,838.9515707,a,1,0.4422411999998985,如愿,k,1,0.5327968999999939,tj,m,20,2024_Apr_13_1350,mian,2021.2.3,60.008089090406706,
,,,,,,0,0,pic/flanker5.png,pic/flanker1.png,s,l,pic/AffRest1.png,,,,,,,,,,,,,,,,,,,,,,,,,0,0,0,0,0,43,43,19,,,,841.9180696999999,None,840.7362909999999,841.9515093,s,1,0.39014659999998,伤心,l,1,0.5522039000002223,tj,m,20,2024_Apr_13_1350,mian,2021.2.3,60.008089090406706,
,,,,,,1,1,pic/flanker6.png,pic/flanker4.png,s,k,pic/AffRest1.png,,,,,,,,,,,,,,,,,,,,,,,,,0,0,0,0,0,44,44,6,,,,844.9018586,None,843.7182035000001,844.9184117,s,1,0.4259039000000939,瑰丽,k,1,1.2274290000000292,tj,m,20,2024_Apr_13_1350,mian,2021.2.3,60.008089090406706,
,,,,,,1,0,pic/flanker5.png,pic/flanker3.png,a,l,pic/AffRest1.png,,,,,,,,,,,,,,,,,,,,,,,,,0,0,0,0,0,45,45,79,,,,848.5179803999999,None,847.3344927999999,848.5343098000001,a,1,0.5329784999998992,损害,l,1,0.6059645000000273,tj,m,20,2024_Apr_13_1350,mian,2021.2.3,60.008089090406706,
,,,,,,0,1,pic/flanker6.png,pic/flanker2.png,a,k,pic/AffRest1.png,,,,,,,,,,,,,,,,,,,,,,,,,0,0,0,0,0,46,46,18,,,,851.6514345,None,850.4680797000001,851.6683022,a,1,0.3611419000001206,生动,k,1,1.746054999999842,tj,m,20,2024_Apr_13_1350,mian,2021.2.3,60.008089090406706,
,,,,,,0,1,pic/flanker6.png,pic/flanker2.png,a,k,pic/AffRest1.png,,,,,,,,,,,,,,,,,,,,,,,,,0,0,0,0,0,47,47,26,,,,855.6176869999999,None,854.4349666,855.6342910000001,a,1,0.3436990000000151,畅销,k,1,0.7329202000000805,tj,m,20,2024_Apr_13_1350,mian,2021.2.3,60.008089090406706,
,,,,,,0,0,pic/flanker6.png,pic/flanker2.png,a,l,pic/AffRest1.png,,,,,,,,,,,,,,,,,,,,,,,,,0,0,0,0,0,48,48,9,,,,858.6347452,None,857.4515504000001,858.6515342,a,1,0.33647339999993164,鲁莽,l,1,0.6367179999999735,tj,m,20,2024_Apr_13_1350,mian,2021.2.3,60.008089090406706,
,,,,,,1,1,pic/flanker5.png,pic/flanker3.png,a,k,pic/AffRest1.png,,,,,,,,,,,,,,,,,,,,,,,,,0,0,0,0,0,49,49,36,,,,861.5682545,None,860.3849425000001,861.5849052000001,a,1,0.5051716000000397,诚恳,k,1,0.5534619000000021,tj,m,20,2024_Apr_13_1350,mian,2021.2.3,60.008089090406706,
,,,,,,0,0,pic/flanker5.png,pic/flanker1.png,s,l,pic/AffRest1.png,,,,,,,,,,,,,,,,,,,,,,,,,0,0,0,0,0,50,50,67,,,,864.5682675999999,None,863.3842876000001,864.5849189,s,1,0.36975039999992987,落后,l,1,0.5837750000000597,tj,m,20,2024_Apr_13_1350,mian,2021.2.3,60.008089090406706,
,,,,,,1,1,pic/flanker5.png,pic/flanker3.png,a,k,pic/AffRest1.png,,,,,,,,,,,,,,,,,,,,,,,,,0,0,0,0,0,51,51,28,,,,867.4182718,None,866.2343103999999,867.4349144,a,1,0.44833059999996294,卓越,k,1,0.5965656999999283,tj,m,20,2024_Apr_13_1350,mian,2021.2.3,60.008089090406706,
,,,,,,0,1,pic/flanker5.png,pic/flanker1.png,s,k,pic/AffRest1.png,,,,,,,,,,,,,,,,,,,,,,,,,0,0,0,0,0,52,52,72,,,,870.3513246,None,869.1675941000001,870.3682429,s,1,0.5503858000001856,丰满,k,1,0.5815125999999964,tj,m,20,2024_Apr_13_1350,mian,2021.2.3,60.008089090406706,
,,,,,,0,0,pic/flanker6.png,pic/flanker2.png,a,l,pic/AffRest1.png,,,,,,,,,,,,,,,,,,,,,,,,,0,0,0,0,0,53,53,49,,,,873.4512374000001,None,872.2675870999999,873.4679000000001,a,1,0.3469989000000169,失意,l,1,0.6299531000001934,tj,m,20,2024_Apr_13_1350,mian,2021.2.3,60.008089090406706,
,,,,,,0,0,pic/flanker5.png,pic/flanker1.png,s,l,pic/AffRest1.png,,,,,,,,,,,,,,,,,,,,,,,,,0,0,0,0,0,54,54,11,,,,876.4348872999999,None,875.2512340000001,876.4514543,s,1,0.4407310999999936,焦躁,l,1,0.8021676000000753,tj,m,20,2024_Apr_13_1350,mian,2021.2.3,60.008089090406706,
,,,,,,1,0,pic/flanker6.png,pic/flanker4.png,s,l,pic/AffRest1.png,,,,,,,,,,,,,,,,,,,,,,,,,0,0,0,0,0,55,55,69,,,,879.6347788999999,None,878.4514495999999,879.6515440999999,s,1,0.827561199999991,排斥,l,1,1.1435036999998829,tj,m,20,2024_Apr_13_1350,mian,2021.2.3,60.008089090406706,
,,,,,,1,0,pic/flanker6.png,pic/flanker4.png,s,l,pic/AffRest1.png,,,,,,,,,,,,,,,,,,,,,,,,,0,0,0,0,0,56,56,61,,,,883.56818,None,882.3842257000001,883.5849197,s,1,0.47208610000006956,处罚,l,1,0.7319385000000693,tj,m,20,2024_Apr_13_1350,mian,2021.2.3,60.008089090406706,
,,,,,,1,1,pic/flanker6.png,pic/flanker4.png,s,k,pic/AffRest1.png,,,,,,,,,,,,,,,,,,,,,,,,,0,0,0,0,0,57,57,14,,,,886.7681617000001,None,885.5848510999999,886.7848468,s,1,0.48758829999997033,旺盛,k,1,1.4997516000000815,tj,m,20,2024_Apr_13_1350,mian,2021.2.3,60.008089090406706,
,,,,,,1,1,pic/flanker5.png,pic/flanker3.png,a,k,pic/AffRest1.png,,,,,,,,,,,,,,,,,,,,,,,,,0,0,0,0,0,58,58,76,,,,890.7681872,None,889.5847627,890.7841245,a,1,0.4385495000001356,优雅,k,1,0.5787664000001769,tj,m,20,2024_Apr_13_1350,mian,2021.2.3,60.008089090406706,
,,,,,,0,1,pic/flanker5.png,pic/flanker1.png,s,k,pic/AffRest1.png,,,,,,,,,,,,,,,,,,,,,,,,,0,0,0,0,0,59,59,8,,,,893.6848838999999,None,892.5015231,893.7014162999999,s,1,0.36277130000007674,正直,k,1,0.5742399999999179,tj,m,20,2024_Apr_13_1350,mian,2021.2.3,60.008089090406706,
,,,,,,0,0,pic/flanker6.png,pic/flanker2.png,a,l,pic/AffRest1.png,,,,,,,,,,,,,,,,,,,,,,,,,0,0,0,0,0,60,60,25,,,,896.6511892999999,None,895.4677512999999,896.6678342,a,1,0.37170369999989816,轻率,l,1,0.6541870000000927,tj,m,20,2024_Apr_13_1350,mian,2021.2.3,60.008089090406706,
,,,,,,0,0,pic/flanker6.png,pic/flanker2.png,a,l,pic/AffRest1.png,,,,,,,,,,,,,,,,,,,,,,,,,0,0,0,0,0,61,61,17,,,,899.6681455,None,898.4847527,899.6849061,a,1,0.3038231000000451,禁止,l,1,0.9173911000000317,tj,m,20,2024_Apr_13_1350,mian,2021.2.3,60.008089090406706,
,,,,,,1,0,pic/flanker6.png,pic/flanker4.png,s,l,pic/AffRest1.png,,,,,,,,,,,,,,,,,,,,,,,,,0,0,0,0,0,62,62,13,,,,902.8850345999999,None,901.7038739,902.9182006999999,s,1,0.5031160000000909,罚款,l,1,0.6156548999999814,tj,m,20,2024_Apr_13_1350,mian,2021.2.3,60.008089090406706,
,,,,,,0,0,pic/flanker6.png,pic/flanker2.png,a,l,pic/AffRest1.png,,,,,,,,,,,,,,,,,,,,,,,,,0,0,0,0,0,63,63,33,,,,905.9517341999999,None,904.7681865,905.9684493,a,1,0.3394912999999633,消沉,l,1,1.2646394000000782,tj,m,20,2024_Apr_13_1350,mian,2021.2.3,60.008089090406706,
,,,,,,1,1,pic/flanker6.png,pic/flanker4.png,s,k,pic/AffRest1.png,,,,,,,,,,,,,,,,,,,,,,,,,0,0,0,0,0,64,64,70,,,,909.4180586,None,908.2348022000001,909.4347822,s,1,0.4878269000000728,舒畅,k,1,0.6822558000001209,tj,m,20,2024_Apr_13_1350,mian,2021.2.3,60.008089090406706,
,,,,,,1,0,pic/flanker5.png,pic/flanker3.png,a,l,pic/AffRest1.png,,,,,,,,,,,,,,,,,,,,,,,,,0,0,0,0,0,65,65,23,,,,912.6514655999999,None,911.4680576999999,912.6679796999999,a,1,0.42757400000004964,慌忙,l,1,1.1207092000001921,tj,m,20,2024_Apr_13_1350,mian,2021.2.3,60.008089090406706,
,,,,,,1,0,pic/flanker6.png,pic/flanker4.png,s,l,pic/AffRest1.png,,,,,,,,,,,,,,,,,,,,,,,,,0,0,0,0,0,66,66,53,,,,916.2513758,None,915.0679680999999,916.268143,s,1,0.39685800000006566,争吵,l,1,1.6587136999999075,tj,m,20,2024_Apr_13_1350,mian,2021.2.3,60.008089090406706,
,,,,,,1,0,pic/flanker5.png,pic/flanker3.png,a,l,pic/AffRest1.png,,,,,,,,,,,,,,,,,,,,,,,,,0,0,0,0,0,67,67,71,,,,920.2017123999999,None,919.0182483000001,920.2181203,a,1,0.6039905999998609,嘲笑,l,1,2.0576743999999962,tj,m,20,2024_Apr_13_1350,mian,2021.2.3,60.008089090406706,
,,,,,,1,0,pic/flanker5.png,pic/flanker3.png,a,l,pic/AffRest1.png,,,,,,,,,,,,,,,,,,,,,,,,,0,0,0,0,0,68,68,39,,,,924.8848247999999,None,923.7015166000001,924.9014741000001,a,1,0.5774635999998736,缺乏,l,1,0.8014066000000639,tj,m,20,2024_Apr_13_1350,mian,2021.2.3,60.008089090406706,
,,,,,,0,1,pic/flanker6.png,pic/flanker2.png,a,k,pic/AffRest1.png,,,,,,,,,,,,,,,,,,,,,,,,,0,0,0,0,0,69,69,42,,,,928.2839804,None,927.101363,928.3014616,a,1,0.4486452000001009,典雅,k,1,0.7224214000000302,tj,m,20,2024_Apr_13_1350,mian,2021.2.3,60.008089090406706,
,,,,,,0,0,pic/flanker6.png,pic/flanker2.png,a,l,pic/AffRest1.png,,,,,,,,,,,,,,,,,,,,,,,,,0,0,0,0,0,70,70,73,,,,931.5180525000001,None,930.3349788999999,931.5347902000001,a,1,0.33512919999998303,堵塞,l,1,0.6697848000001159,tj,m,20,2024_Apr_13_1350,mian,2021.2.3,60.008089090406706,
,,,,,,1,0,pic/flanker6.png,pic/flanker4.png,s,l,pic/AffRest1.png,,,,,,,,,,,,,,,,,,,,,,,,,0,0,0,0,0,71,71,29,,,,934.5848026000001,None,933.4014749,934.6012614000001,s,1,0.4226966999999604,黑暗,l,1,0.45143400000006295,tj,m,20,2024_Apr_13_1350,mian,2021.2.3,60.008089090406706,
,,,,,,1,1,pic/flanker5.png,pic/flanker3.png,a,k,pic/AffRest1.png,,,,,,,,,,,,,,,,,,,,,,,,,0,0,0,0,0,72,72,52,,,,937.4346855000001,None,936.252013,937.4513850999999,a,1,0.5230751999999939,吉祥,k,1,0.5472257000001264,tj,m,20,2024_Apr_13_1350,mian,2021.2.3,60.008089090406706,
,,,,,,1,0,pic/flanker5.png,pic/flanker3.png,a,l,pic/AffRest1.png,,,,,,,,,,,,,,,,,,,,,,,,,0,0,0,0,0,73,73,15,,,,940.4514362,None,939.2680373999999,940.4680929000001,a,1,0.531995199999983,胡涂,l,1,0.8013080000000627,tj,m,20,2024_Apr_13_1350,mian,2021.2.3,60.008089090406706,
,,,,,,1,0,pic/flanker6.png,pic/flanker4.png,s,l,pic/AffRest1.png,,,,,,,,,,,,,,,,,,,,,,,,,0,0,0,0,0,74,74,45,,,,943.7514808000001,None,942.5681549000001,943.7679759,s,1,0.880086399999982,丢失,l,1,0.6317244000001665,tj,m,20,2024_Apr_13_1350,mian,2021.2.3,60.008089090406706,
,,,,,,0,1,pic/flanker5.png,pic/flanker1.png,s,k,pic/AffRest1.png,,,,,,,,,,,,,,,,,,,,,,,,,0,0,0,0,0,75,75,0,,,,947.3183723,None,946.1347332,947.3349247000001,s,1,0.4065367000000606,俊秀,k,1,0.6941687000000911,tj,m,20,2024_Apr_13_1350,mian,2021.2.3,60.008089090406706,
,,,,,,0,0,pic/flanker6.png,pic/flanker2.png,a,l,pic/AffRest1.png,,,,,,,,,,,,,,,,,,,,,,,,,0,0,0,0,0,76,76,57,,,,950.4183208,None,949.2347778000001,950.4350566,a,1,0.4080707999999049,烦恼,l,1,1.0030361000001449,tj,m,20,2024_Apr_13_1350,mian,2021.2.3,60.008089090406706,
,,,,,,0,0,pic/flanker5.png,pic/flanker1.png,s,l,pic/AffRest1.png,,,,,,,,,,,,,,,,,,,,,,,,,0,0,0,0,0,77,77,35,,,,953.7013637,None,952.5179777999999,953.7180306,s,1,0.3166185999998561,孤单,l,1,1.5515034999998534,tj,m,20,2024_Apr_13_1350,mian,2021.2.3,60.008089090406706,
,,,,,,0,1,pic/flanker6.png,pic/flanker2.png,a,k,pic/AffRest1.png,,,,,,,,,,,,,,,,,,,,,,,,,0,0,0,0,0,78,78,74,,,,957.5347557,None,956.3513476,957.5514278999999,a,1,0.41541030000007595,留恋,k,1,0.8579893000000993,tj,m,20,2024_Apr_13_1350,mian,2021.2.3,60.008089090406706,
,,,,,,0,1,pic/flanker5.png,pic/flanker1.png,s,k,pic/AffRest1.png,,,,,,,,,,,,,,,,,,,,,,,,,0,0,0,0,0,79,79,16,,,,960.8180626000001,None,959.6346638,960.8347914000001,s,1,1.0885568000001058,鲜艳,k,1,0.9678299000001971,tj,m,20,2024_Apr_13_1350,mian,2021.2.3,60.008089090406706,
,,,,,,,,,,,,pic/AffRest1.png,,,,,,,,,,,,,,,,,,,,,,,,,0,0,0,0,,,,,,,,,,,,,,,,,,,tj,m,20,2024_Apr_13_1350,mian,2021.2.3,60.008089090406706,
,,,,,,1,1,pic/flanker6.png,pic/flanker4.png,s,k,pic/AffRest2.png,,,,,,,,,,,,,,,,,,,,,,,,,0,1,1,1,0,0,0,38,,,,995.1013161999999,None,993.9112786999999,995.1180081,s,1,0.7033541000000696,富丽,k,1,0.6189325000000281,tj,m,20,2024_Apr_13_1350,mian,2021.2.3,60.008089090406706,
,,,,,,0,0,pic/flanker5.png,pic/flanker1.png,s,l,pic/AffRest2.png,,,,,,,,,,,,,,,,,,,,,,,,,0,1,1,1,0,1,1,35,,,,998.3512158000001,None,997.1678543,998.3677984999999,s,1,0.3790387000001374,处罚,l,1,0.6470670999999584,tj,m,20,2024_Apr_13_1350,mian,2021.2.3,60.008089090406706,
,,,,,,0,0,pic/flanker5.png,pic/flanker1.png,s,l,pic/AffRest2.png,,,,,,,,,,,,,,,,,,,,,,,,,0,1,1,1,0,2,2,59,,,,1001.2181763000001,None,1000.0346674,1001.2348753000001,s,1,0.3685710999998264,自卑,l,1,1.2649664000000485,tj,m,20,2024_Apr_13_1350,mian,2021.2.3,60.008089090406706,
,,,,,,0,1,pic/flanker6.png,pic/flanker2.png,a,k,pic/AffRest2.png,,,,,,,,,,,,,,,,,,,,,,,,,0,1,1,1,0,3,3,34,,,,1004.7178177999999,None,1003.5345997,1004.7345699,a,1,0.37626079999995454,热切,k,1,0.5533394999999928,tj,m,20,2024_Apr_13_1350,mian,2021.2.3,60.008089090406706,
,,,,,,0,0,pic/flanker6.png,pic/flanker2.png,a,l,pic/AffRest2.png,,,,,,,,,,,,,,,,,,,,,,,,,0,1,1,1,0,4,4,1,,,,1007.5847061,None,1006.4005999999999,1007.6012246,a,1,0.44636590000004617,忧虑,l,1,0.6625040999999783,tj,m,20,2024_Apr_13_1350,mian,2021.2.3,60.008089090406706,
,,,,,,1,0,pic/flanker5.png,pic/flanker3.png,a,l,pic/AffRest2.png,,,,,,,,,,,,,,,,,,,,,,,,,0,1,1,1,0,5,5,63,,,,1010.6342447,None,1009.4512826,1010.6509458999999,a,1,0.42620370000008734,禁止,l,1,0.975766799999974,tj,m,20,2024_Apr_13_1350,mian,2021.2.3,60.008089090406706,
,,,,,,1,1,pic/flanker6.png,pic/flanker4.png,s,k,pic/AffRest2.png,,,,,,,,,,,,,,,,,,,,,,,,,0,1,1,1,0,6,6,6,,,,1014.1173993,None,1012.9340053999999,1014.1341757,s,1,0.533283499999925,圣洁,k,1,0.5762666999999055,tj,m,20,2024_Apr_13_1350,mian,2021.2.3,60.008089090406706,
,,,,,,1,0,pic/flanker6.png,pic/flanker4.png,s,l,pic/AffRest2.png,,,,,,,,,,,,,,,,,,,,,,,,,0,1,1,1,0,7,7,61,,,,1017.2178108,None,1016.0346235,1017.2346087999999,s,1,0.4577892999998312,失意,l,1,0.7121058000000176,tj,m,20,2024_Apr_13_1350,mian,2021.2.3,60.008089090406706,
,,,,,,1,1,pic/flanker5.png,pic/flanker3.png,a,k,pic/AffRest2.png,,,,,,,,,,,,,,,,,,,,,,,,,0,1,1,1,0,8,8,60,,,,1020.4347584,None,1019.2513429,1020.4507516000001,a,1,0.5444667000001573,舒畅,k,1,0.6877504000001409,tj,m,20,2024_Apr_13_1350,mian,2021.2.3,60.008089090406706,
,,,,,,1,0,pic/flanker6.png,pic/flanker4.png,s,l,pic/AffRest2.png,,,,,,,,,,,,,,,,,,,,,,,,,0,1,1,1,0,9,9,13,,,,1023.6680074000001,None,1022.4844261999999,1023.6844802,s,1,0.4294370000000072,逃避,k,0,0.5393292000001111,tj,m,20,2024_Apr_13_1350,mian,2021.2.3,60.008089090406706,
,,,,,,0,1,pic/flanker6.png,pic/flanker2.png,a,k,pic/AffRest2.png,,,,,,,,,,,,,,,,,,,,,,,,,0,1,1,1,0,10,10,42,,,,1026.4845735,None,1025.3006697,1026.5006875,a,1,0.4723968999999215,畅销,k,1,2.1873008000000027,tj,m,20,2024_Apr_13_1350,mian,2021.2.3,60.008089090406706,
,,,,,,1,0,pic/flanker6.png,pic/flanker4.png,s,l,pic/AffRest2.png,,,,,,,,,,,,,,,,,,,,,,,,,0,1,1,1,0,11,11,5,,,,1031.0844734,None,1029.9012313,1031.1011934,s,1,0.41334249999999884,罚款,l,1,0.5853175999998257,tj,m,20,2024_Apr_13_1350,mian,2021.2.3,60.008089090406706,
,,,,,,1,0,pic/flanker6.png,pic/flanker4.png,s,l,pic/AffRest2.png,,,,,,,,,,,,,,,,,,,,,,,,,0,1,1,1,0,12,12,69,,,,1034.1340782,None,1032.950429,1034.1507999,s,1,0.46847040000011475,浪费,l,1,0.4796779000000697,tj,m,20,2024_Apr_13_1350,mian,2021.2.3,60.008089090406706,
,,,,,,0,1,pic/flanker6.png,pic/flanker2.png,a,k,pic/AffRest2.png,,,,,,,,,,,,,,,,,,,,,,,,,0,1,1,1,0,13,13,10,,,,1037.1508174,None,1035.967358,1037.1675603,a,1,0.5138241999998172,富足,k,1,0.6182183000000805,tj,m,20,2024_Apr_13_1350,mian,2021.2.3,60.008089090406706,
,,,,,,1,1,pic/flanker6.png,pic/flanker4.png,s,k,pic/AffRest2.png,,,,,,,,,,,,,,,,,,,,,,,,,0,1,1,1,0,14,14,54,,,,1040.184528,None,1039.0008281,1040.2010893,s,1,0.5396215000000666,留恋,k,1,2.206663400000025,tj,m,20,2024_Apr_13_1350,mian,2021.2.3,60.008089090406706,
,,,,,,1,0,pic/flanker5.png,pic/flanker3.png,a,l,pic/AffRest2.png,,,,,,,,,,,,,,,,,,,,,,,,,0,1,1,1,0,15,15,7,,,,1044.7845466,None,1043.6005737,1044.8013483,a,1,1.1231849000000693,怀疑,l,1,0.9263404999999238,tj,m,20,2024_Apr_13_1350,mian,2021.2.3,60.008089090406706,
,,,,,,0,0,pic/flanker5.png,pic/flanker1.png,s,l,pic/AffRest2.png,,,,,,,,,,,,,,,,,,,,,,,,,0,1,1,1,0,16,16,27,,,,1048.6844741,None,1047.501129,1048.7011072,s,1,0.4101453999999194,悲观,l,1,0.7788716000000022,tj,m,20,2024_Apr_13_1350,mian,2021.2.3,60.008089090406706,
,,,,,,0,1,pic/flanker6.png,pic/flanker2.png,a,k,pic/AffRest2.png,,,,,,,,,,,,,,,,,,,,,,,,,0,1,1,1,0,17,17,74,,,,1051.90058,None,1050.7177675,1051.9172399,a,1,0.5692635000000337,秀丽,k,1,0.745379899999989,tj,m,20,2024_Apr_13_1350,mian,2021.2.3,60.008089090406706,
,,,,,,1,0,pic/flanker6.png,pic/flanker4.png,s,l,pic/AffRest2.png,,,,,,,,,,,,,,,,,,,,,,,,,0,1,1,1,0,18,18,45,,,,1055.0677181,None,1053.8842226,1055.0844518,s,1,0.5155557000000499,嘲笑,l,1,0.7838743999998314,tj,m,20,2024_Apr_13_1350,mian,2021.2.3,60.008089090406706,
,,,,,,1,1,pic/flanker5.png,pic/flanker3.png,a,k,pic/AffRest2.png,,,,,,,,,,,,,,,,,,,,,,,,,0,1,1,1,0,19,19,12,,,,1058.3011637,None,1057.1178758,1058.3179635,a,1,0.6485393999998905,顽强,l,0,0.7211873000001106,tj,m,20,2024_Apr_13_1350,mian,2021.2.3,60.008089090406706,
,,,,,,1,0,pic/flanker5.png,pic/flanker3.png,a,l,pic/AffRest2.png,,,,,,,,,,,,,,,,,,,,,,,,,0,1,1,1,0,20,20,71,,,,1061.6011754,None,1060.4181174,1061.6179101,a,1,0.8178562000000511,争吵,l,1,0.99553149999997,tj,m,20,2024_Apr_13_1350,mian,2021.2.3,60.008089090406706,
,,,,,,1,0,pic/flanker6.png,pic/flanker4.png,s,l,pic/AffRest2.png,,,,,,,,,,,,,,,,,,,,,,,,,0,1,1,1,0,21,21,77,,,,1065.3010801,None,1064.1177592,1065.3176523,s,1,0.4137424999998984,损害,l,1,0.9024122000000716,tj,m,20,2024_Apr_13_1350,mian,2021.2.3,60.008089090406706,
,,,,,,1,0,pic/flanker6.png,pic/flanker4.png,s,l,pic/AffRest2.png,,,,,,,,,,,,,,,,,,,,,,,,,0,1,1,1,0,22,22,53,,,,1068.6512322,None,1067.4678376,1068.6677221,s,1,0.4371390999999676,落后,l,1,0.5001651999998558,tj,m,20,2024_Apr_13_1350,mian,2021.2.3,60.008089090406706,
,,,,,,0,1,pic/flanker6.png,pic/flanker2.png,a,k,pic/AffRest2.png,,,,,,,,,,,,,,,,,,,,,,,,,0,1,1,1,0,23,23,2,,,,1071.6011802,None,1070.4178403,1071.6178993,a,1,0.4342191000000639,豪放,k,1,1.0205081000001428,tj,m,20,2024_Apr_13_1350,mian,2021.2.3,60.008089090406706,
,,,,,,0,1,pic/flanker6.png,pic/flanker2.png,a,k,pic/AffRest2.png,,,,,,,,,,,,,,,,,,,,,,,,,0,1,1,1,0,24,24,50,,,,1074.9845506,None,1073.8004146,1075.0012355,a,1,0.4833128000000215,吉祥,k,1,0.8609450999999808,tj,m,20,2024_Apr_13_1350,mian,2021.2.3,60.008089090406706,
,,,,,,0,0,pic/flanker6.png,pic/flanker2.png,a,l,pic/AffRest2.png,,,,,,,,,,,,,,,,,,,,,,,,,0,1,1,1,0,25,25,49,,,,1078.3844353,None,1077.2005406,1078.4010787,a,1,0.41080639999995583,消沉,l,1,0.7288626999998087,tj,m,20,2024_Apr_13_1350,mian,2021.2.3,60.008089090406706,
,,,,,,0,1,pic/flanker5.png,pic/flanker1.png,s,k,pic/AffRest2.png,,,,,,,,,,,,,,,,,,,,,,,,,0,1,1,1,0,26,26,72,,,,1081.5012361,None,1080.3177598,1081.5178343,s,1,0.45374709999987317,廉洁,k,1,0.8804086000000098,tj,m,20,2024_Apr_13_1350,mian,2021.2.3,60.008089090406706,
,,,,,,0,1,pic/flanker6.png,pic/flanker2.png,a,k,pic/AffRest2.png,,,,,,,,,,,,,,,,,,,,,,,,,0,1,1,1,0,27,27,66,,,,1084.8844945,None,1083.7010334,1084.9010689,a,1,0.44138810000004014,丰满,k,1,0.745701100000133,tj,m,20,2024_Apr_13_1350,mian,2021.2.3,60.008089090406706,
,,,,,,0,1,pic/flanker6.png,pic/flanker2.png,a,k,pic/AffRest2.png,,,,,,,,,,,,,,,,,,,,,,,,,0,1,1,1,0,28,28,58,,,,1087.9178073,None,1086.7344223,1087.9345424,a,1,0.33156420000000253,优雅,l,0,0.7286401999999725,tj,m,20,2024_Apr_13_1350,mian,2021.2.3,60.008089090406706,
,,,,,,1,0,pic/flanker5.png,pic/flanker3.png,a,l,pic/AffRest2.png,,,,,,,,,,,,,,,,,,,,,,,,,0,1,1,1,0,29,29,39,,,,1090.9177838,None,1089.734424,1090.9345719,a,1,0.5171316999999362,别扭,l,1,0.7390232999998716,tj,m,20,2024_Apr_13_1350,mian,2021.2.3,60.008089090406706,
,,,,,,1,1,pic/flanker6.png,pic/flanker4.png,s,k,pic/AffRest2.png,,,,,,,,,,,,,,,,,,,,,,,,,0,1,1,1,0,30,30,70,,,,1094.134487,None,1092.9511687,1094.1509327,s,1,0.474132599999848,羡慕,k,1,0.5971853999999439,tj,m,20,2024_Apr_13_1350,mian,2021.2.3,60.008089090406706,
,,,,,,0,1,pic/flanker6.png,pic/flanker2.png,a,k,pic/AffRest2.png,,,,,,,,,,,,,,,,,,,,,,,,,0,1,1,1,0,31,31,26,,,,1097.134434,None,1095.9511126,1097.1511813,a,1,0.45201380000003155,瑰丽,k,1,0.6348321000000396,tj,m,20,2024_Apr_13_1350,mian,2021.2.3,60.008089090406706,
,,,,,,1,0,pic/flanker5.png,pic/flanker3.png,a,l,pic/AffRest2.png,,,,,,,,,,,,,,,,,,,,,,,,,0,1,1,1,0,32,32,55,,,,1100.1509387,None,1098.967671,1100.1678326,a,1,0.40267279999989114,焦躁,l,1,1.5620112999999947,tj,m,20,2024_Apr_13_1350,mian,2021.2.3,60.008089090406706,
,,,,,,0,0,pic/flanker5.png,pic/flanker1.png,s,l,pic/AffRest2.png,,,,,,,,,,,,,,,,,,,,,,,,,0,1,1,1,0,33,33,43,,,,1104.1677372,None,1102.9844609,1104.1843357,s,1,0.6078334999999697,丢失,l,1,0.6102593000000525,tj,m,20,2024_Apr_13_1350,mian,2021.2.3,60.008089090406706,
,,,,,,0,1,pic/flanker5.png,pic/flanker1.png,s,k,pic/AffRest2.png,,,,,,,,,,,,,,,,,,,,,,,,,0,1,1,1,0,34,34,64,,,,1107.4177713,None,1106.2344968,1107.4344751,s,1,0.4308541000000332,公平,k,1,0.6738939000001665,tj,m,20,2024_Apr_13_1350,mian,2021.2.3,60.008089090406706,
,,,,,,0,0,pic/flanker6.png,pic/flanker2.png,a,l,pic/AffRest2.png,,,,,,,,,,,,,,,,,,,,,,,,,0,1,1,1,0,35,35,41,,,,1110.4512321,None,1109.2675133,1110.4678322,a,1,0.4211645000000317,厌恶,l,1,0.7555495999999948,tj,m,20,2024_Apr_13_1350,mian,2021.2.3,60.008089090406706,
,,,,,,0,0,pic/flanker6.png,pic/flanker2.png,a,l,pic/AffRest2.png,,,,,,,,,,,,,,,,,,,,,,,,,0,1,1,1,0,36,36,57,,,,1113.4843422,None,1112.3008735,1113.5011013,a,1,0.34453110000004017,心慌,l,1,0.5858966000000692,tj,m,20,2024_Apr_13_1350,mian,2021.2.3,60.008089090406706,
,,,,,,1,1,pic/flanker5.png,pic/flanker3.png,a,k,pic/AffRest2.png,,,,,,,,,,,,,,,,,,,,,,,,,0,1,1,1,0,37,37,44,,,,1116.4677215,None,1115.2843729,1116.4844484,a,1,0.451316499999848,振作,k,1,0.9163398000000598,tj,m,20,2024_Apr_13_1350,mian,2021.2.3,60.008089090406706,
,,,,,,1,1,pic/flanker5.png,pic/flanker3.png,a,k,pic/AffRest2.png,,,,,,,,,,,,,,,,,,,,,,,,,0,1,1,1,0,38,38,20,,,,1119.884395,None,1118.7013159,1119.9009859,a,1,0.4339532000001327,鲜艳,k,1,1.5264862999999878,tj,m,20,2024_Apr_13_1350,mian,2021.2.3,60.008089090406706,
,,,,,,1,0,pic/flanker5.png,pic/flanker3.png,a,l,pic/AffRest2.png,,,,,,,,,,,,,,,,,,,,,,,,,0,1,1,1,0,39,39,15,,,,1123.8344101,None,1122.6511364,1123.8510689,a,1,0.5021841000000222,沮丧,l,1,0.8313133999999991,tj,m,20,2024_Apr_13_1350,mian,2021.2.3,60.008089090406706,
,,,,,,1,1,pic/flanker5.png,pic/flanker3.png,a,k,pic/AffRest2.png,,,,,,,,,,,,,,,,,,,,,,,,,0,1,1,1,0,40,40,52,,,,1127.1176628,None,1125.9343861,1127.1344004,a,1,0.3798200999999608,有利,k,1,0.5701263999999355,tj,m,20,2024_Apr_13_1350,mian,2021.2.3,60.008089090406706,
,,,,,,0,0,pic/flanker6.png,pic/flanker2.png,a,l,pic/AffRest2.png,,,,,,,,,,,,,,,,,,,,,,,,,0,1,1,1,0,41,41,25,,,,1130.0011266,None,1128.8176353,1130.0176829,a,1,0.35326579999991736,堵塞,l,1,1.2029701000001296,tj,m,20,2024_Apr_13_1350,mian,2021.2.3,60.008089090406706,
,,,,,,0,0,pic/flanker6.png,pic/flanker2.png,a,l,pic/AffRest2.png,,,,,,,,,,,,,,,,,,,,,,,,,0,1,1,1,0,42,42,17,,,,1133.6007732,None,1132.4178053,1133.6178655,a,1,0.42485080000005837,假冒,l,1,0.7823515999998563,tj,m,20,2024_Apr_13_1350,mian,2021.2.3,60.008089090406706,
,,,,,,1,1,pic/flanker5.png,pic/flanker3.png,a,k,pic/AffRest2.png,,,,,,,,,,,,,,,,,,,,,,,,,0,1,1,1,0,43,43,4,,,,1136.7677129,None,1135.584409,1136.7844375,a,1,0.39881740000009813,诚恳,k,1,0.8704766999999265,tj,m,20,2024_Apr_13_1350,mian,2021.2.3,60.008089090406706,
,,,,,,1,0,pic/flanker6.png,pic/flanker4.png,s,l,pic/AffRest2.png,,,,,,,,,,,,,,,,,,,,,,,,,0,1,1,1,0,44,44,21,,,,1140.0009808,None,1138.8176262,1140.0176908,s,1,0.5490267000000131,缺乏,l,1,1.4549586999999065,tj,m,20,2024_Apr_13_1350,mian,2021.2.3,60.008089090406706,
,,,,,,1,0,pic/flanker5.png,pic/flanker3.png,a,l,pic/AffRest2.png,,,,,,,,,,,,,,,,,,,,,,,,,0,1,1,1,0,45,45,79,,,,1144.050895,None,1142.8677455,1144.0676838,a,1,0.47302460000014435,鲁莽,l,1,1.441149199999927,tj,m,20,2024_Apr_13_1350,mian,2021.2.3,60.008089090406706,
,,,,,,0,1,pic/flanker5.png,pic/flanker1.png,s,k,pic/AffRest2.png,,,,,,,,,,,,,,,,,,,,,,,,,0,1,1,1,0,46,46,16,,,,1147.9009684,None,1146.7177184,1147.9176981,s,1,0.4765230000000429,正直,k,1,0.5975350999999591,tj,m,20,2024_Apr_13_1350,mian,2021.2.3,60.008089090406706,
,,,,,,0,1,pic/flanker5.png,pic/flanker1.png,s,k,pic/AffRest2.png,,,,,,,,,,,,,,,,,,,,,,,,,0,1,1,1,0,47,47,56,,,,1150.9011951,None,1149.7176238,1150.9176272,s,1,0.305912699999908,永恒,k,1,1.1940675999999257,tj,m,20,2024_Apr_13_1350,mian,2021.2.3,60.008089090406706,
,,,,,,1,1,pic/flanker5.png,pic/flanker3.png,a,k,pic/AffRest2.png,,,,,,,,,,,,,,,,,,,,,,,,,0,1,1,1,0,48,48,68,,,,1154.250913,None,1153.0677099,1154.2676807,a,1,0.40325559999996585,清秀,k,1,2.107409799999914,tj,m,20,2024_Apr_13_1350,mian,2021.2.3,60.008089090406706,
,,,,,,0,0,pic/flanker5.png,pic/flanker1.png,s,l,pic/AffRest2.png,,,,,,,,,,,,,,,,,,,,,,,,,0,1,1,1,0,49,49,11,,,,1158.8012783,None,1157.6176716,1158.8179741,s,1,0.4116013999998813,撒谎,l,1,0.6554321999999502,tj,m,20,2024_Apr_13_1350,mian,2021.2.3,60.008089090406706,
,,,,,,1,1,pic/flanker6.png,pic/flanker4.png,s,k,pic/AffRest2.png,,,,,,,,,,,,,,,,,,,,,,,,,0,1,1,1,0,50,50,30,,,,1161.9177167,None,1160.7343272,1161.9343064,s,1,0.6193091000000095,前进,k,1,0.6725378000001001,tj,m,20,2024_Apr_13_1350,mian,2021.2.3,60.008089090406706,
,,,,,,0,0,pic/flanker5.png,pic/flanker1.png,s,l,pic/AffRest2.png,,,,,,,,,,,,,,,,,,,,,,,,,0,1,1,1,0,51,51,75,,,,1165.1010678,None,1163.9177129,1165.1176132,s,1,0.3176191000000017,孤单,l,1,0.7326316000001043,tj,m,20,2024_Apr_13_1350,mian,2021.2.3,60.008089090406706,
,,,,,,1,1,pic/flanker5.png,pic/flanker3.png,a,k,pic/AffRest2.png,,,,,,,,,,,,,,,,,,,,,,,,,0,1,1,1,0,52,52,76,,,,1168.2010183,None,1167.0176892,1168.217737,a,1,0.444556700000021,敬佩,k,1,1.4605631999997968,tj,m,20,2024_Apr_13_1350,mian,2021.2.3,60.008089090406706,
,,,,,,1,1,pic/flanker6.png,pic/flanker4.png,s,k,pic/AffRest2.png,,,,,,,,,,,,,,,,,,,,,,,,,0,1,1,1,0,53,53,78,,,,1172.1510707,None,1170.9675286,1172.1676857,s,1,0.4607962999998563,充裕,k,1,0.7335279000001265,tj,m,20,2024_Apr_13_1350,mian,2021.2.3,60.008089090406706,
,,,,,,0,0,pic/flanker6.png,pic/flanker2.png,a,l,pic/AffRest2.png,,,,,,,,,,,,,,,,,,,,,,,,,0,1,1,1,0,54,54,9,,,,1175.1843739,None,1174.0007668,1175.2011863,a,1,0.3504579999998896,冷笑,l,1,0.8501375000000735,tj,m,20,2024_Apr_13_1350,mian,2021.2.3,60.008089090406706,
,,,,,,0,1,pic/flanker6.png,pic/flanker2.png,a,k,pic/AffRest2.png,,,,,,,,,,,,,,,,,,,,,,,,,0,1,1,1,0,55,55,18,,,,1178.3343325,None,1177.1510138,1178.3509108,a,1,0.7214665000001332,珍藏,k,1,0.8319066999999905,tj,m,20,2024_Apr_13_1350,mian,2021.2.3,60.008089090406706,
,,,,,,0,1,pic/flanker5.png,pic/flanker1.png,s,k,pic/AffRest2.png,,,,,,,,,,,,,,,,,,,,,,,,,0,1,1,1,0,56,56,40,,,,1181.7675044,None,1180.5842593,1181.7844832,s,1,0.36270409999997355,奉献,k,1,0.8123596000000362,tj,m,20,2024_Apr_13_1350,mian,2021.2.3,60.008089090406706,
,,,,,,1,1,pic/flanker5.png,pic/flanker3.png,a,k,pic/AffRest2.png,,,,,,,,,,,,,,,,,,,,,,,,,0,1,1,1,0,57,57,36,,,,1184.8177489,None,1183.6343914,1184.8343274,a,1,0.6188150000000405,赞成,k,1,1.5037445999998909,tj,m,20,2024_Apr_13_1350,mian,2021.2.3,60.008089090406706,
,,,,,,0,1,pic/flanker5.png,pic/flanker1.png,s,k,pic/AffRest2.png,,,,,,,,,,,,,,,,,,,,,,,,,0,1,1,1,0,58,58,24,,,,1188.8009394,None,1187.6175745,1188.817665,s,1,0.3763690000000679,俊秀,k,1,0.6602166999998644,tj,m,20,2024_Apr_13_1350,mian,2021.2.3,60.008089090406706,
,,,,,,0,0,pic/flanker5.png,pic/flanker1.png,s,l,pic/AffRest2.png,,,,,,,,,,,,,,,,,,,,,,,,,0,1,1,1,0,59,59,51,,,,1191.717703,None,1190.5343476,1191.7342216,s,1,0.39683560000003126,懒惰,l,1,1.6744587000000593,tj,m,20,2024_Apr_13_1350,mian,2021.2.3,60.008089090406706,
,,,,,,1,0,pic/flanker6.png,pic/flanker4.png,s,l,pic/AffRest2.png,,,,,,,,,,,,,,,,,,,,,,,,,0,1,1,1,0,60,60,37,,,,1195.6843337,None,1194.5003779,1195.7007509,s,1,0.5807806999998775,郁闷,l,1,1.0151084999999966,tj,m,20,2024_Apr_13_1350,mian,2021.2.3,60.008089090406706,
,,,,,,1,0,pic/flanker5.png,pic/flanker3.png,a,l,pic/AffRest2.png,,,,,,,,,,,,,,,,,,,,,,,,,0,1,1,1,0,61,61,23,,,,1199.2001009,None,1198.0172739,1199.2170574,a,1,0.589680000000044,胡涂,l,1,0.8422794999999041,tj,m,20,2024_Apr_13_1350,mian,2021.2.3,60.008089090406706,
,,,,,,1,1,pic/flanker6.png,pic/flanker4.png,s,k,pic/AffRest2.png,,,,,,,,,,,,,,,,,,,,,,,,,0,1,1,1,0,62,62,22,,,,1202.6842926,None,1201.5009893,1202.7008669,s,1,0.5027936000001318,卓越,k,1,0.7745936999999685,tj,m,20,2024_Apr_13_1350,mian,2021.2.3,60.008089090406706,
,,,,,,0,0,pic/flanker5.png,pic/flanker1.png,s,l,pic/AffRest2.png,,,,,,,,,,,,,,,,,,,,,,,,,0,1,1,1,0,63,63,3,,,,1205.9673948,None,1204.7843359,1205.9842378,s,1,0.3798477999998795,杂乱,l,1,2.3910571999999775,tj,m,20,2024_Apr_13_1350,mian,2021.2.3,60.008089090406706,
,,,,,,1,0,pic/flanker6.png,pic/flanker4.png,s,l,pic/AffRest2.png,,,,,,,,,,,,,,,,,,,,,,,,,0,1,1,1,0,64,64,29,,,,1210.733822,None,1209.5502252,1210.7505136,s,1,0.4706401000000824,慌忙,l,1,0.6963048000000072,tj,m,20,2024_Apr_13_1350,mian,2021.2.3,60.008089090406706,
,,,,,,0,0,pic/flanker6.png,pic/flanker2.png,a,l,pic/AffRest2.png,,,,,,,,,,,,,,,,,,,,,,,,,0,1,1,1,0,65,65,65,,,,1213.9503972,None,1212.7670613,1213.9671751,a,1,0.34888850000015736,黑暗,l,1,0.8154925000001185,tj,m,20,2024_Apr_13_1350,mian,2021.2.3,60.008089090406706,
,,,,,,0,1,pic/flanker5.png,pic/flanker1.png,s,k,pic/AffRest2.png,,,,,,,,,,,,,,,,,,,,,,,,,0,1,1,1,0,66,66,8,,,,1217.1510787,None,1215.9670505,1217.1675338,s,1,0.3749272000000019,生动,k,1,0.6652148999999099,tj,m,20,2024_Apr_13_1350,mian,2021.2.3,60.008089090406706,
,,,,,,1,1,pic/flanker5.png,pic/flanker3.png,a,k,pic/AffRest2.png,,,,,,,,,,,,,,,,,,,,,,,,,0,1,1,1,0,67,67,28,,,,1220.2170745,None,1219.0343005,1220.2343426,a,1,0.5183122999999341,旺盛,k,1,0.500772999999981,tj,m,20,2024_Apr_13_1350,mian,2021.2.3,60.008089090406706,
,,,,,,0,0,pic/flanker6.png,pic/flanker2.png,a,l,pic/AffRest2.png,,,,,,,,,,,,,,,,,,,,,,,,,0,1,1,1,0,68,68,33,,,,1223.1173537,None,1221.9342466,1223.1341867,None,0,,轻率,k,0,1.5173966999998356,tj,m,20,2024_Apr_13_1350,mian,2021.2.3,60.008089090406706,
,,,,,,0,1,pic/flanker5.png,pic/flanker1.png,s,k,pic/AffRest2.png,,,,,,,,,,,,,,,,,,,,,,,,,0,1,1,1,0,69,69,48,,,,1227.9008784,None,1226.7173827,1227.9170181,s,1,0.40511780000019826,享受,k,1,0.578950599999871,tj,m,20,2024_Apr_13_1350,mian,2021.2.3,60.008089090406706,
,,,,,,0,0,pic/flanker5.png,pic/flanker1.png,s,l,pic/AffRest2.png,,,,,,,,,,,,,,,,,,,,,,,,,0,1,1,1,0,70,70,19,,,,1230.7669683,None,1229.584136,1230.7837066,s,1,0.35541889999990417,穷苦,l,1,0.5870866000000206,tj,m,20,2024_Apr_13_1350,mian,2021.2.3,60.008089090406706,
,,,,,,0,0,pic/flanker6.png,pic/flanker2.png,a,l,pic/AffRest2.png,,,,,,,,,,,,,,,,,,,,,,,,,0,1,1,1,0,71,71,73,,,,1233.6673549,None,1232.4836572,1233.6839994,a,1,0.3830090999999811,闷热,l,1,1.0612539999999626,tj,m,20,2024_Apr_13_1350,mian,2021.2.3,60.008089090406706,
,,,,,,1,1,pic/flanker6.png,pic/flanker4.png,s,k,pic/AffRest2.png,,,,,,,,,,,,,,,,,,,,,,,,,0,1,1,1,0,72,72,62,,,,1236.9342062,None,1235.7508941,1236.9508054,s,1,0.43575590000000375,精致,k,1,0.5781815999998798,tj,m,20,2024_Apr_13_1350,mian,2021.2.3,60.008089090406706,
,,,,,,1,1,pic/flanker6.png,pic/flanker4.png,s,k,pic/AffRest2.png,,,,,,,,,,,,,,,,,,,,,,,,,0,1,1,1,0,73,73,14,,,,1240.0175051,None,1238.8343116,1240.0345234,s,1,0.4327197000000069,如愿,k,1,0.7198523000001842,tj,m,20,2024_Apr_13_1350,mian,2021.2.3,60.008089090406706,
,,,,,,0,0,pic/flanker5.png,pic/flanker1.png,s,l,pic/AffRest2.png,,,,,,,,,,,,,,,,,,,,,,,,,0,1,1,1,0,74,74,67,,,,1243.2174035,None,1242.0341962,1243.2342455,s,1,0.5042266000000382,排斥,l,1,0.6667669999999362,tj,m,20,2024_Apr_13_1350,mian,2021.2.3,60.008089090406706,
,,,,,,0,1,pic/flanker5.png,pic/flanker1.png,s,k,pic/AffRest2.png,,,,,,,,,,,,,,,,,,,,,,,,,0,1,1,1,0,75,75,32,,,,1246.3344644000001,None,1245.1506337,1246.3511413,s,1,0.3543660999998792,典雅,k,1,0.6709407000000738,tj,m,20,2024_Apr_13_1350,mian,2021.2.3,60.008089090406706,
,,,,,,1,0,pic/flanker5.png,pic/flanker3.png,a,l,pic/AffRest2.png,,,,,,,,,,,,,,,,,,,,,,,,,0,1,1,1,0,76,76,31,,,,1249.3175312,None,1248.1340406,1249.3341373,a,1,0.5199946999998701,烦恼,l,1,0.655337099999997,tj,m,20,2024_Apr_13_1350,mian,2021.2.3,60.008089090406706,
,,,,,,0,1,pic/flanker5.png,pic/flanker1.png,s,k,pic/AffRest2.png,,,,,,,,,,,,,,,,,,,,,,,,,0,1,1,1,0,77,77,0,,,,1252.5176128,None,1251.3341674,1252.5340286,s,1,0.3654135000001588,雄厚,k,1,0.8172867999999198,tj,m,20,2024_Apr_13_1350,mian,2021.2.3,60.008089090406706,
,,,,,,1,1,pic/flanker6.png,pic/flanker4.png,s,k,pic/AffRest2.png,,,,,,,,,,,,,,,,,,,,,,,,,0,1,1,1,0,78,78,46,,,,1255.6668482,None,1254.4842,1255.6834407,s,1,0.45609150000018417,爽朗,k,1,0.6990479999999479,tj,m,20,2024_Apr_13_1350,mian,2021.2.3,60.008089090406706,
,,,,,,1,0,pic/flanker5.png,pic/flanker3.png,a,l,pic/AffRest2.png,,,,,,,,,,,,,,,,,,,,,,,,,0,1,1,1,0,79,79,47,,,,1258.7341632,None,1257.5506858,1258.7509069,a,1,0.43337849999988975,伤心,l,1,0.852803700000095,tj,m,20,2024_Apr_13_1350,mian,2021.2.3,60.008089090406706,
,,,,,,,,,,,,pic/AffRest2.png,,,,,,,,,,,,,,,,,,,,,,,,,0,1,1,1,,,,,,,,,,,,,,,,,,,tj,m,20,2024_Apr_13_1350,mian,2021.2.3,60.008089090406706,
,,,,,,0,1,pic/flanker5.png,pic/flanker1.png,s,k,pic/AffRest3.png,,,,,,,,,,,,,,,,,,,,,,,,,0,2,2,2,0,0,0,24,,,,1344.534288,None,1343.3449164,1344.5509557,s,1,0.4079776999999467,旺盛,k,1,0.6175149999999121,tj,m,20,2024_Apr_13_1350,mian,2021.2.3,60.008089090406706,
,,,,,,0,0,pic/flanker6.png,pic/flanker2.png,a,l,pic/AffRest3.png,,,,,,,,,,,,,,,,,,,,,,,,,0,2,2,2,0,1,1,33,,,,1347.5840358,None,1346.4005999,1347.6007145,a,1,0.46653970000011213,杂乱,l,1,1.0699937000001682,tj,m,20,2024_Apr_13_1350,mian,2021.2.3,60.008089090406706,
,,,,,,1,1,pic/flanker5.png,pic/flanker3.png,a,k,pic/AffRest3.png,,,,,,,,,,,,,,,,,,,,,,,,,0,2,2,2,0,2,2,60,,,,1351.1175576,None,1349.9340795,1351.1340702,a,1,0.4534469000000172,瑰丽,k,1,0.5990931000001183,tj,m,20,2024_Apr_13_1350,mian,2021.2.3,60.008089090406706,
,,,,,,0,1,pic/flanker5.png,pic/flanker1.png,s,k,pic/AffRest3.png,,,,,,,,,,,,,,,,,,,,,,,,,0,2,2,2,0,3,3,8,,,,1354.1671769,None,1352.9842833,1354.1840898,s,1,0.31486370000015995,秀丽,k,1,0.6177358999998432,tj,m,20,2024_Apr_13_1350,mian,2021.2.3,60.008089090406706,
,,,,,,0,1,pic/flanker6.png,pic/flanker2.png,a,k,pic/AffRest3.png,,,,,,,,,,,,,,,,,,,,,,,,,0,2,2,2,0,4,4,66,,,,1356.9340227,None,1355.750554,1356.9507392,a,1,0.29178010000009635,优雅,k,1,0.5884223999998994,tj,m,20,2024_Apr_13_1350,mian,2021.2.3,60.008089090406706,
,,,,,,1,0,pic/flanker6.png,pic/flanker4.png,s,l,pic/AffRest3.png,,,,,,,,,,,,,,,,,,,,,,,,,0,2,2,2,0,5,5,69,,,,1359.8339321,None,1358.6507298,1359.8507108000001,s,1,0.486252899999954,自卑,l,1,1.5404648999999608,tj,m,20,2024_Apr_13_1350,mian,2021.2.3,60.008089090406706,
,,,,,,1,0,pic/flanker6.png,pic/flanker4.png,s,l,pic/AffRest3.png,,,,,,,,,,,,,,,,,,,,,,,,,0,2,2,2,0,6,6,45,,,,1363.7006175,None,1362.5173582,1363.7172656,s,1,0.47985819999985324,沮丧,l,1,1.4609338000000207,tj,m,20,2024_Apr_13_1350,mian,2021.2.3,60.008089090406706,
,,,,,,1,0,pic/flanker5.png,pic/flanker3.png,a,l,pic/AffRest3.png,,,,,,,,,,,,,,,,,,,,,,,,,0,2,2,2,0,7,7,15,,,,1367.467365,None,1366.2842112,1367.483803,a,1,0.48917039999992085,假冒,l,1,0.7578556999999364,tj,m,20,2024_Apr_13_1350,mian,2021.2.3,60.008089090406706,
,,,,,,0,1,pic/flanker5.png,pic/flanker1.png,s,k,pic/AffRest3.png,,,,,,,,,,,,,,,,,,,,,,,,,0,2,2,2,0,8,8,32,,,,1370.7009159,None,1369.5174075,1370.7176393,s,1,0.5386326000000281,鲜艳,k,1,0.7863476999998511,tj,m,20,2024_Apr_13_1350,mian,2021.2.3,60.008089090406706,
,,,,,,0,0,pic/flanker5.png,pic/flanker1.png,s,l,pic/AffRest3.png,,,,,,,,,,,,,,,,,,,,,,,,,0,2,2,2,0,9,9,51,,,,1374.0340895,None,1372.8508108,1374.0506267,s,1,0.44095000000015716,伤心,l,1,0.7035889999999654,tj,m,20,2024_Apr_13_1350,mian,2021.2.3,60.008089090406706,
,,,,,,1,1,pic/flanker6.png,pic/flanker4.png,s,k,pic/AffRest3.png,,,,,,,,,,,,,,,,,,,,,,,,,0,2,2,2,0,10,10,6,,,,1377.0840703,None,1375.900426,1377.1007663,s,1,0.6090274000000591,顽强,k,1,1.0200145999999677,tj,m,20,2024_Apr_13_1350,mian,2021.2.3,60.008089090406706,
,,,,,,0,1,pic/flanker6.png,pic/flanker2.png,a,k,pic/AffRest3.png,,,,,,,,,,,,,,,,,,,,,,,,,0,2,2,2,0,11,11,18,,,,1380.5840255,None,1379.400672,1380.6006161,a,1,0.36179409999999734,充裕,k,1,0.73953419999998,tj,m,20,2024_Apr_13_1350,mian,2021.2.3,60.008089090406706,
,,,,,,1,0,pic/flanker6.png,pic/flanker4.png,s,l,pic/AffRest3.png,,,,,,,,,,,,,,,,,,,,,,,,,0,2,2,2,0,12,12,77,,,,1383.5174041,None,1382.3339319,1383.533435,s,1,0.5628410000001622,缺乏,l,1,0.6815581000000748,tj,m,20,2024_Apr_13_1350,mian,2021.2.3,60.008089090406706,
,,,,,,0,0,pic/flanker5.png,pic/flanker1.png,s,l,pic/AffRest3.png,,,,,,,,,,,,,,,,,,,,,,,,,0,2,2,2,0,13,13,27,,,,1386.6673481,None,1385.4840392,1386.6834264,s,1,0.4631077000001369,别扭,l,1,1.1010105999998814,tj,m,20,2024_Apr_13_1350,mian,2021.2.3,60.008089090406706,
,,,,,,0,0,pic/flanker5.png,pic/flanker1.png,s,l,pic/AffRest3.png,,,,,,,,,,,,,,,,,,,,,,,,,0,2,2,2,0,14,14,59,,,,1390.1840137,None,1389.0006848,1390.2006778,s,1,0.4600855999999567,焦躁,l,1,0.6590550000000803,tj,m,20,2024_Apr_13_1350,mian,2021.2.3,60.008089090406706,
,,,,,,0,1,pic/flanker6.png,pic/flanker2.png,a,k,pic/AffRest3.png,,,,,,,,,,,,,,,,,,,,,,,,,0,2,2,2,0,15,15,34,,,,1393.3006817,None,1392.1173429,1393.3173964,a,1,0.4796571000001677,典雅,k,1,0.9001098999999613,tj,m,20,2024_Apr_13_1350,mian,2021.2.3,60.008089090406706,
,,,,,,1,0,pic/flanker5.png,pic/flanker3.png,a,l,pic/AffRest3.png,,,,,,,,,,,,,,,,,,,,,,,,,0,2,2,2,0,16,16,39,,,,1396.5173884,None,1395.3340402,1396.5340313,a,1,0.5070097999998779,怀疑,l,1,0.9280946000001222,tj,m,20,2024_Apr_13_1350,mian,2021.2.3,60.008089090406706,
,,,,,,1,1,pic/flanker6.png,pic/flanker4.png,s,k,pic/AffRest3.png,,,,,,,,,,,,,,,,,,,,,,,,,0,2,2,2,0,17,17,70,,,,1400.0008897,None,1398.8172789,1400.0174777,s,1,0.5069361999999273,如愿,k,1,0.5743195000000014,tj,m,20,2024_Apr_13_1350,mian,2021.2.3,60.008089090406706,
,,,,,,1,1,pic/flanker6.png,pic/flanker4.png,s,k,pic/AffRest3.png,,,,,,,,,,,,,,,,,,,,,,,,,0,2,2,2,0,18,18,62,,,,1403.1507383,None,1401.9673348000001,1403.1673442000001,s,1,0.39922630000000936,圣洁,k,1,0.6173472999998921,tj,m,20,2024_Apr_13_1350,mian,2021.2.3,60.008089090406706,
,,,,,,1,1,pic/flanker6.png,pic/flanker4.png,s,k,pic/AffRest3.png,,,,,,,,,,,,,,,,,,,,,,,,,0,2,2,2,0,19,19,46,,,,1406.0336459,None,1404.8498767,1406.0502737,s,1,0.5806010999999671,廉洁,k,1,0.6379091000001154,tj,m,20,2024_Apr_13_1350,mian,2021.2.3,60.008089090406706,
,,,,,,1,0,pic/flanker6.png,pic/flanker4.png,s,l,pic/AffRest3.png,,,,,,,,,,,,,,,,,,,,,,,,,0,2,2,2,0,20,20,37,,,,1409.2501095,None,1408.0669111,1409.2667814,s,1,1.1329895000001216,黑暗,l,1,1.3486582999998973,tj,m,20,2024_Apr_13_1350,mian,2021.2.3,60.008089090406706,
,,,,,,0,1,pic/flanker6.png,pic/flanker2.png,a,k,pic/AffRest3.png,,,,,,,,,,,,,,,,,,,,,,,,,0,2,2,2,0,21,21,10,,,,1413.683919,None,1412.5007351,1413.7006817,a,1,0.33731360000001587,精致,k,1,1.4117177000000538,tj,m,20,2024_Apr_13_1350,mian,2021.2.3,60.008089090406706,
,,,,,,0,1,pic/flanker6.png,pic/flanker2.png,a,k,pic/AffRest3.png,,,,,,,,,,,,,,,,,,,,,,,,,0,2,2,2,0,22,22,74,,,,1417.5006144,None,1416.3170323,1417.5172024,a,1,0.3318685000001551,赞成,k,1,0.7979894000000058,tj,m,20,2024_Apr_13_1350,mian,2021.2.3,60.008089090406706,
,,,,,,1,1,pic/flanker5.png,pic/flanker3.png,a,k,pic/AffRest3.png,,,,,,,,,,,,,,,,,,,,,,,,,0,2,2,2,0,23,23,36,,,,1420.6167705,None,1419.4332185,1420.6333732,a,1,0.6229108999998516,舒畅,k,1,0.7231663000000026,tj,m,20,2024_Apr_13_1350,mian,2021.2.3,60.008089090406706,
,,,,,,1,1,pic/flanker6.png,pic/flanker4.png,s,k,pic/AffRest3.png,,,,,,,,,,,,,,,,,,,,,,,,,0,2,2,2,0,24,24,22,,,,1423.9175117,None,1422.7339082,1423.9341135,s,1,0.5444814999998471,热切,k,1,0.6882676000000174,tj,m,20,2024_Apr_13_1350,mian,2021.2.3,60.008089090406706,
,,,,,,1,1,pic/flanker6.png,pic/flanker4.png,s,k,pic/AffRest3.png,,,,,,,,,,,,,,,,,,,,,,,,,0,2,2,2,0,25,25,38,,,,1427.0504762,None,1425.8669689,1427.067193,s,1,0.487169300000005,生动,k,1,1.0148110000000088,tj,m,20,2024_Apr_13_1350,mian,2021.2.3,60.008089090406706,
,,,,,,0,1,pic/flanker6.png,pic/flanker2.png,a,k,pic/AffRest3.png,,,,,,,,,,,,,,,,,,,,,,,,,0,2,2,2,0,26,26,2,,,,1430.4006589,None,1429.2172644,1430.4173335,a,1,0.34289699999999357,珍藏,k,1,0.5876264000000901,tj,m,20,2024_Apr_13_1350,mian,2021.2.3,60.008089090406706,
,,,,,,1,0,pic/flanker5.png,pic/flanker3.png,a,l,pic/AffRest3.png,,,,,,,,,,,,,,,,,,,,,,,,,0,2,2,2,0,27,27,63,,,,1433.2838339,None,1432.1005324,1433.3005156,a,1,0.44058079999990696,悲观,l,1,0.7898514000000887,tj,m,20,2024_Apr_13_1350,mian,2021.2.3,60.008089090406706,
,,,,,,1,0,pic/flanker5.png,pic/flanker3.png,a,l,pic/AffRest3.png,,,,,,,,,,,,,,,,,,,,,,,,,0,2,2,2,0,28,28,79,,,,1436.5007958,None,1435.3169483,1436.5174302,a,1,0.5822396999999455,禁止,l,1,1.191162200000008,tj,m,20,2024_Apr_13_1350,mian,2021.2.3,60.008089090406706,
,,,,,,1,0,pic/flanker6.png,pic/flanker4.png,s,l,pic/AffRest3.png,,,,,,,,,,,,,,,,,,,,,,,,,0,2,2,2,0,29,29,61,,,,1440.2003889,None,1439.0169357,1440.2172324,s,1,0.4802842999999939,丢失,l,1,1.0936494000000039,tj,m,20,2024_Apr_13_1350,mian,2021.2.3,60.008089090406706,
,,,,,,1,1,pic/flanker5.png,pic/flanker3.png,a,k,pic/AffRest3.png,,,,,,,,,,,,,,,,,,,,,,,,,0,2,2,2,0,30,30,12,,,,1443.5837731,None,1442.4005441,1443.6004632,a,1,0.6005261999998766,有利,k,1,1.374355800000103,tj,m,20,2024_Apr_13_1350,mian,2021.2.3,60.008089090406706,
,,,,,,0,0,pic/flanker6.png,pic/flanker2.png,a,l,pic/AffRest3.png,,,,,,,,,,,,,,,,,,,,,,,,,0,2,2,2,0,31,31,65,,,,1447.5006179,None,1446.317303,1447.5173249,a,1,0.3749080000000049,懒惰,l,1,1.0419643999998698,tj,m,20,2024_Apr_13_1350,mian,2021.2.3,60.008089090406706,
,,,,,,1,1,pic/flanker6.png,pic/flanker4.png,s,k,pic/AffRest3.png,,,,,,,,,,,,,,,,,,,,,,,,,0,2,2,2,0,32,32,54,,,,1450.8502864,None,1449.6671141,1450.8671858,s,1,0.6452144999998382,敬佩,k,1,0.6643859000000703,tj,m,20,2024_Apr_13_1350,mian,2021.2.3,60.008089090406706,
,,,,,,1,0,pic/flanker6.png,pic/flanker4.png,s,l,pic/AffRest3.png,,,,,,,,,,,,,,,,,,,,,,,,,0,2,2,2,0,33,33,29,,,,1454.0505302,None,1452.8671162,1454.0669685,s,1,0.544447099999843,失意,l,1,0.5422328000001926,tj,m,20,2024_Apr_13_1350,mian,2021.2.3,60.008089090406706,
,,,,,,1,0,pic/flanker6.png,pic/flanker4.png,s,l,pic/AffRest3.png,,,,,,,,,,,,,,,,,,,,,,,,,0,2,2,2,0,34,34,53,,,,1457.0831143,None,1455.9003427,1457.1005048,s,1,0.6501329000000169,堵塞,l,1,0.6160717999998724,tj,m,20,2024_Apr_13_1350,mian,2021.2.3,60.008089090406706,
,,,,,,1,1,pic/flanker5.png,pic/flanker3.png,a,k,pic/AffRest3.png,,,,,,,,,,,,,,,,,,,,,,,,,0,2,2,2,0,35,35,68,,,,1460.4337735,None,1459.2505129,1460.4504601,a,1,0.4143166999999721,享受,k,1,0.5020967000000383,tj,m,20,2024_Apr_13_1350,mian,2021.2.3,60.008089090406706,
,,,,,,0,0,pic/flanker6.png,pic/flanker2.png,a,l,pic/AffRest3.png,,,,,,,,,,,,,,,,,,,,,,,,,0,2,2,2,0,36,36,49,,,,1463.2338196,None,1462.0505817,1463.2503927,a,1,0.35186670000007325,争吵,l,1,1.4121151000001646,tj,m,20,2024_Apr_13_1350,mian,2021.2.3,60.008089090406706,
,,,,,,0,0,pic/flanker6.png,pic/flanker2.png,a,l,pic/AffRest3.png,,,,,,,,,,,,,,,,,,,,,,,,,0,2,2,2,0,37,37,1,,,,1466.9837017,None,1465.800462,1467.0007099,a,1,0.3493026999999529,处罚,l,1,0.6630685000000085,tj,m,20,2024_Apr_13_1350,mian,2021.2.3,60.008089090406706,
,,,,,,0,1,pic/flanker5.png,pic/flanker1.png,s,k,pic/AffRest3.png,,,,,,,,,,,,,,,,,,,,,,,,,0,2,2,2,0,38,38,72,,,,1470.0171779,None,1468.8338188,1470.03369,s,1,0.36475309999991623,爽朗,k,1,1.5263866000000235,tj,m,20,2024_Apr_13_1350,mian,2021.2.3,60.008089090406706,
,,,,,,1,0,pic/flanker5.png,pic/flanker3.png,a,l,pic/AffRest3.png,,,,,,,,,,,,,,,,,,,,,,,,,0,2,2,2,0,39,39,23,,,,1473.8670286,None,1472.6830287,1473.8836248,a,1,0.860954700000093,忧虑,k,0,1.1626199999998335,tj,m,20,2024_Apr_13_1350,mian,2021.2.3,60.008089090406706,
,,,,,,0,1,pic/flanker5.png,pic/flanker1.png,s,k,pic/AffRest3.png,,,,,,,,,,,,,,,,,,,,,,,,,0,2,2,2,0,40,40,64,,,,1477.8503351,None,1476.6668588,1477.8670911,s,1,0.4249216000000615,卓越,None,0,,tj,m,20,2024_Apr_13_1350,mian,2021.2.3,60.008089090406706,
,,,,,,0,1,pic/flanker5.png,pic/flanker1.png,s,k,pic/AffRest3.png,,,,,,,,,,,,,,,,,,,,,,,,,0,2,2,2,0,41,41,40,,,,1482.7838723,None,1481.6001322,1482.8005118,s,1,0.3396884000001137,俊秀,k,1,0.6090057999999772,tj,m,20,2024_Apr_13_1350,mian,2021.2.3,60.008089090406706,
,,,,,,0,0,pic/flanker6.png,pic/flanker2.png,a,l,pic/AffRest3.png,,,,,,,,,,,,,,,,,,,,,,,,,0,2,2,2,0,42,42,41,,,,1485.6336237,None,1484.4503763,1485.6502979,a,1,0.4915523999998186,郁闷,l,1,1.0517417000000933,tj,m,20,2024_Apr_13_1350,mian,2021.2.3,60.008089090406706,
,,,,,,1,1,pic/flanker5.png,pic/flanker3.png,a,k,pic/AffRest3.png,,,,,,,,,,,,,,,,,,,,,,,,,0,2,2,2,0,43,43,20,,,,1489.0670169,None,1487.8837848,1489.0836816,a,1,0.559043999999858,诚恳,k,1,1.0296068000000105,tj,m,20,2024_Apr_13_1350,mian,2021.2.3,60.008089090406706,
,,,,,,1,1,pic/flanker5.png,pic/flanker3.png,a,k,pic/AffRest3.png,,,,,,,,,,,,,,,,,,,,,,,,,0,2,2,2,0,44,44,52,,,,1492.6335824,None,1491.4503665,1492.6504867,a,1,0.5166100999999799,富丽,k,1,0.947618200000079,tj,m,20,2024_Apr_13_1350,mian,2021.2.3,60.008089090406706,
,,,,,,1,0,pic/flanker6.png,pic/flanker4.png,s,l,pic/AffRest3.png,,,,,,,,,,,,,,,,,,,,,,,,,0,2,2,2,0,45,45,21,,,,1495.9503194,None,1494.7670923,1495.9668763,s,1,0.4046195999999327,穷苦,l,1,0.8142225999999937,tj,m,20,2024_Apr_13_1350,mian,2021.2.3,60.008089090406706,
,,,,,,0,0,pic/flanker6.png,pic/flanker2.png,a,l,pic/AffRest3.png,,,,,,,,,,,,,,,,,,,,,,,,,0,2,2,2,0,46,46,17,,,,1499.1004693,None,1497.9169653,1499.1170751,a,1,0.32251829999995607,孤单,l,1,1.904833999999937,tj,m,20,2024_Apr_13_1350,mian,2021.2.3,60.008089090406706,
,,,,,,1,1,pic/flanker5.png,pic/flanker3.png,a,k,pic/AffRest3.png,,,,,,,,,,,,,,,,,,,,,,,,,0,2,2,2,0,47,47,4,,,,1503.2170931,None,1502.0337901,1503.2335064,a,1,0.44910030000005463,豪放,k,1,1.0629075000001649,tj,m,20,2024_Apr_13_1350,mian,2021.2.3,60.008089090406706,
,,,,,,1,0,pic/flanker5.png,pic/flanker3.png,a,l,pic/AffRest3.png,,,,,,,,,,,,,,,,,,,,,,,,,0,2,2,2,0,48,48,55,,,,1506.6171164,None,1505.4337879,1506.6339964000001,a,1,0.45773179999991953,鲁莽,l,1,0.859045100000003,tj,m,20,2024_Apr_13_1350,mian,2021.2.3,60.008089090406706,
,,,,,,1,1,pic/flanker5.png,pic/flanker3.png,a,k,pic/AffRest3.png,,,,,,,,,,,,,,,,,,,,,,,,,0,2,2,2,0,49,49,44,,,,1509.8673679,None,1508.6837196,1509.8837623,a,1,0.39858479999998053,吉祥,k,1,1.3213130000001456,tj,m,20,2024_Apr_13_1350,mian,2021.2.3,60.008089090406706,
,,,,,,1,1,pic/flanker6.png,pic/flanker4.png,s,k,pic/AffRest3.png,,,,,,,,,,,,,,,,,,,,,,,,,0,2,2,2,0,50,50,14,,,,1513.6673686,None,1512.4837201,1513.683982,s,1,0.5132765000000745,奉献,k,1,0.6703786000000491,tj,m,20,2024_Apr_13_1350,mian,2021.2.3,60.008089090406706,
,,,,,,1,1,pic/flanker5.png,pic/flanker3.png,a,k,pic/AffRest3.png,,,,,,,,,,,,,,,,,,,,,,,,,0,2,2,2,0,51,51,76,,,,1516.7003661,None,1515.516927,1516.7170106,a,1,0.42158440000002884,丰满,k,1,1.5497628999999051,tj,m,20,2024_Apr_13_1350,mian,2021.2.3,60.008089090406706,
,,,,,,1,1,pic/flanker6.png,pic/flanker4.png,s,k,pic/AffRest3.png,,,,,,,,,,,,,,,,,,,,,,,,,0,2,2,2,0,52,52,30,,,,1520.600428,None,1519.4167926,1520.616946,s,1,0.444753799999944,正直,k,1,1.7069334999998773,tj,m,20,2024_Apr_13_1350,mian,2021.2.3,60.008089090406706,
,,,,,,0,1,pic/flanker5.png,pic/flanker1.png,s,k,pic/AffRest3.png,,,,,,,,,,,,,,,,,,,,,,,,,0,2,2,2,0,53,53,0,,,,1524.6836593,None,1523.5004341,1524.7003802,s,1,0.4762232000000495,留恋,k,1,0.6643196999998509,tj,m,20,2024_Apr_13_1350,mian,2021.2.3,60.008089090406706,
,,,,,,0,0,pic/flanker5.png,pic/flanker1.png,s,l,pic/AffRest3.png,,,,,,,,,,,,,,,,,,,,,,,,,0,2,2,2,0,54,54,35,,,,1527.6506452,None,1526.4669809,1527.6672906000001,s,1,0.33248440000011215,闷热,l,1,1.3017695000000913,tj,m,20,2024_Apr_13_1350,mian,2021.2.3,60.008089090406706,
,,,,,,0,0,pic/flanker5.png,pic/flanker1.png,s,l,pic/AffRest3.png,,,,,,,,,,,,,,,,,,,,,,,,,0,2,2,2,0,55,55,19,,,,1531.2336148,None,1530.050517,1531.2502804,s,1,0.4087480000000596,冷笑,l,1,0.9344773999998779,tj,m,20,2024_Apr_13_1350,mian,2021.2.3,60.008089090406706,
,,,,,,0,1,pic/flanker6.png,pic/flanker2.png,a,k,pic/AffRest3.png,,,,,,,,,,,,,,,,,,,,,,,,,0,2,2,2,0,56,56,26,,,,1534.4338507,None,1533.2503504000001,1534.450452,a,1,0.31918150000001333,雄厚,k,1,0.9661944999998013,tj,m,20,2024_Apr_13_1350,mian,2021.2.3,60.008089090406706,
,,,,,,0,0,pic/flanker6.png,pic/flanker2.png,a,l,pic/AffRest3.png,,,,,,,,,,,,,,,,,,,,,,,,,0,2,2,2,0,57,57,9,,,,1537.6670811,None,1536.4836521,1537.6836742,a,1,0.31446580000010727,落后,l,1,0.9172396999999819,tj,m,20,2024_Apr_13_1350,mian,2021.2.3,60.008089090406706,
,,,,,,0,1,pic/flanker6.png,pic/flanker2.png,a,k,pic/AffRest3.png,,,,,,,,,,,,,,,,,,,,,,,,,0,2,2,2,0,58,58,42,,,,1540.9501269,None,1539.7669031,1540.9669848,a,1,0.2857234000000517,振作,k,1,0.7569200000000365,tj,m,20,2024_Apr_13_1350,mian,2021.2.3,60.008089090406706,
,,,,,,1,1,pic/flanker5.png,pic/flanker3.png,a,k,pic/AffRest3.png,,,,,,,,,,,,,,,,,,,,,,,,,0,2,2,2,0,59,59,28,,,,1543.983746,None,1542.8001656,1544.0003664,a,1,0.6394732999999633,富足,k,1,2.0827010000000428,tj,m,20,2024_Apr_13_1350,mian,2021.2.3,60.008089090406706,
,,,,,,1,1,pic/flanker6.png,pic/flanker4.png,s,k,pic/AffRest3.png,,,,,,,,,,,,,,,,,,,,,,,,,0,2,2,2,0,60,60,78,,,,1548.5505229,None,1547.3668963,1548.5672335,s,1,0.4297855999998319,前进,k,1,0.5109606000000895,tj,m,20,2024_Apr_13_1350,mian,2021.2.3,60.008089090406706,
,,,,,,1,0,pic/flanker5.png,pic/flanker3.png,a,l,pic/AffRest3.png,,,,,,,,,,,,,,,,,,,,,,,,,0,2,2,2,0,61,61,31,,,,1551.5169149,None,1550.3336685,1551.5335862,a,1,0.9326433000001089,嘲笑,l,1,0.7485974000001079,tj,m,20,2024_Apr_13_1350,mian,2021.2.3,60.008089090406706,
,,,,,,0,1,pic/flanker5.png,pic/flanker1.png,s,k,pic/AffRest3.png,,,,,,,,,,,,,,,,,,,,,,,,,0,2,2,2,0,62,62,56,,,,1555.1335999,None,1553.9504207,1555.150216,s,1,0.4218180999998822,羡慕,k,1,1.1741661000000931,tj,m,20,2024_Apr_13_1350,mian,2021.2.3,60.008089090406706,
,,,,,,1,0,pic/flanker5.png,pic/flanker3.png,a,l,pic/AffRest3.png,,,,,,,,,,,,,,,,,,,,,,,,,0,2,2,2,0,63,63,7,,,,1558.6669619,None,1557.483533,1558.6835719,a,1,0.4723935000001802,排斥,l,1,0.523010000000113,tj,m,20,2024_Apr_13_1350,mian,2021.2.3,60.008089090406706,
,,,,,,0,1,pic/flanker6.png,pic/flanker2.png,a,k,pic/AffRest3.png,,,,,,,,,,,,,,,,,,,,,,,,,0,2,2,2,0,64,64,50,,,,1561.5004329,None,1560.3169753,1561.5170492,a,1,0.4007208000000446,畅销,k,1,0.5244809999999234,tj,m,20,2024_Apr_13_1350,mian,2021.2.3,60.008089090406706,
,,,,,,0,1,pic/flanker6.png,pic/flanker2.png,a,k,pic/AffRest3.png,,,,,,,,,,,,,,,,,,,,,,,,,0,2,2,2,0,65,65,58,,,,1564.3335299,None,1563.1502167,1564.3502444,a,1,0.46181460000002517,清秀,k,1,0.5662980999998126,tj,m,20,2024_Apr_13_1350,mian,2021.2.3,60.008089090406706,
,,,,,,0,0,pic/flanker5.png,pic/flanker1.png,s,l,pic/AffRest3.png,,,,,,,,,,,,,,,,,,,,,,,,,0,2,2,2,0,66,66,75,,,,1567.3669392,None,1566.1837117,1567.3836604,s,1,0.29711360000010245,撒谎,l,1,0.6532099999999446,tj,m,20,2024_Apr_13_1350,mian,2021.2.3,60.008089090406706,
,,,,,,1,0,pic/flanker5.png,pic/flanker3.png,a,l,pic/AffRest3.png,,,,,,,,,,,,,,,,,,,,,,,,,0,2,2,2,0,67,67,47,,,,1570.3167783,None,1569.133216,1570.3335404,a,1,0.5436139999999341,烦恼,l,1,0.9138308999999936,tj,m,20,2024_Apr_13_1350,mian,2021.2.3,60.008089090406706,
,,,,,,0,1,pic/flanker5.png,pic/flanker1.png,s,k,pic/AffRest3.png,,,,,,,,,,,,,,,,,,,,,,,,,0,2,2,2,0,68,68,16,,,,1573.817035,None,1572.6336895,1573.8336797,s,1,0.4323566000000483,永恒,k,1,1.402427100000068,tj,m,20,2024_Apr_13_1350,mian,2021.2.3,60.008089090406706,
,,,,,,1,0,pic/flanker5.png,pic/flanker3.png,a,l,pic/AffRest3.png,,,,,,,,,,,,,,,,,,,,,,,,,0,2,2,2,0,69,69,71,,,,1577.5668419,None,1576.383603,1577.5835182,a,1,0.5843674000000192,损害,l,1,0.671566299999995,tj,m,20,2024_Apr_13_1350,mian,2021.2.3,60.008089090406706,
,,,,,,1,0,pic/flanker6.png,pic/flanker4.png,s,l,pic/AffRest3.png,,,,,,,,,,,,,,,,,,,,,,,,,0,2,2,2,0,70,70,5,,,,1580.6996869,None,1579.5162293,1580.7168212,s,1,0.5327732000000651,胡涂,l,1,0.6270166000001609,tj,m,20,2024_Apr_13_1350,mian,2021.2.3,60.008089090406706,
,,,,,,0,1,pic/flanker5.png,pic/flanker1.png,s,k,pic/AffRest3.png,,,,,,,,,,,,,,,,,,,,,,,,,0,2,2,2,0,71,71,48,,,,1583.9002337,None,1582.7168718,1583.916971,s,1,0.4885137000001123,公平,k,1,0.7288628000001154,tj,m,20,2024_Apr_13_1350,mian,2021.2.3,60.008089090406706,
,,,,,,0,0,pic/flanker6.png,pic/flanker2.png,a,l,pic/AffRest3.png,,,,,,,,,,,,,,,,,,,,,,,,,0,2,2,2,0,72,72,25,,,,1586.950198,None,1585.7668262,1586.9668723,a,1,0.5833545999998933,逃避,l,1,0.7432658999998694,tj,m,20,2024_Apr_13_1350,mian,2021.2.3,60.008089090406706,
,,,,,,0,0,pic/flanker5.png,pic/flanker1.png,s,l,pic/AffRest3.png,,,,,,,,,,,,,,,,,,,,,,,,,0,2,2,2,0,73,73,67,,,,1590.2335227,None,1589.0495612,1590.2496937,s,1,0.5674354000000221,慌忙,l,1,0.7292931999998018,tj,m,20,2024_Apr_13_1350,mian,2021.2.3,60.008089090406706,
,,,,,,0,0,pic/flanker5.png,pic/flanker1.png,s,l,pic/AffRest3.png,,,,,,,,,,,,,,,,,,,,,,,,,0,2,2,2,0,74,74,11,,,,1593.483471,None,1592.299635,1593.4997064,a,0,0.4655660999999327,心慌,l,1,1.2170250000001488,tj,m,20,2024_Apr_13_1350,mian,2021.2.3,60.008089090406706,
,,,,,,0,0,pic/flanker5.png,pic/flanker1.png,s,l,pic/AffRest3.png,,,,,,,,,,,,,,,,,,,,,,,,,0,2,2,2,0,75,75,3,,,,1597.0500264,None,1595.867002,1597.0667984,s,1,1.2807070000001204,厌恶,l,1,0.6700292000000445,tj,m,20,2024_Apr_13_1350,mian,2021.2.3,60.008089090406706,
,,,,,,0,0,pic/flanker6.png,pic/flanker2.png,a,l,pic/AffRest3.png,,,,,,,,,,,,,,,,,,,,,,,,,0,2,2,2,0,76,76,57,,,,1600.9337466000002,None,1599.7501312999998,1600.9496030999999,a,1,0.3585395999998582,消沉,l,1,0.5684347999999773,tj,m,20,2024_Apr_13_1350,mian,2021.2.3,60.008089090406706,
,,,,,,0,0,pic/flanker6.png,pic/flanker2.png,a,l,pic/AffRest3.png,,,,,,,,,,,,,,,,,,,,,,,,,0,2,2,2,0,77,77,73,,,,1603.8165672,None,1602.6329961000001,1603.8331763,a,1,0.41230229999973744,罚款,l,1,0.5680024999996931,tj,m,20,2024_Apr_13_1350,mian,2021.2.3,60.008089090406706,
,,,,,,1,0,pic/flanker6.png,pic/flanker4.png,s,l,pic/AffRest3.png,,,,,,,,,,,,,,,,,,,,,,,,,0,2,2,2,0,78,78,13,,,,1606.6835898,None,1605.5002273,1606.6997113000002,s,1,0.45517530000006445,浪费,l,1,0.4278428999996322,tj,m,20,2024_Apr_13_1350,mian,2021.2.3,60.008089090406706,
,,,,,,0,0,pic/flanker5.png,pic/flanker1.png,s,l,pic/AffRest3.png,,,,,,,,,,,,,,,,,,,,,,,,,0,2,2,2,0,79,79,43,,,,1609.5503316999998,None,1608.3669746,1609.5669954999998,s,1,0.3947030999997878,轻率,l,1,0.48441479999974035,tj,m,20,2024_Apr_13_1350,mian,2021.2.3,60.008089090406706,
,,,,,,,,,,,,pic/AffRest3.png,,,,,,,,,,,,,,,,,,,,,,,,,0,2,2,2,,,,,,,,,,,,,,,,,,,tj,m,20,2024_Apr_13_1350,mian,2021.2.3,60.008089090406706,
,,,,,,1,0,pic/flanker6.png,pic/flanker4.png,s,l,pic/EndExp.PNG,,,,,,,,,,,,,,,,,,,,,,,,,0,3,3,3,0,0,0,29,,,,1731.2334202000002,None,1730.0384530000001,1731.2499541000002,s,1,0.4896336000001611,逃避,l,1,0.5180626000001212,tj,m,20,2024_Apr_13_1350,mian,2021.2.3,60.008089090406706,
,,,,,,1,1,pic/flanker6.png,pic/flanker4.png,s,k,pic/EndExp.PNG,,,,,,,,,,,,,,,,,,,,,,,,,0,3,3,3,0,1,1,54,,,,1734.1660698,None,1732.9825993999998,1734.1828332,s,1,0.9594182999999248,公平,k,1,0.9288470999999845,tj,m,20,2024_Apr_13_1350,mian,2021.2.3,60.008089090406706,
,,,,,,1,1,pic/flanker6.png,pic/flanker4.png,s,k,pic/EndExp.PNG,,,,,,,,,,,,,,,,,,,,,,,,,0,3,3,3,0,2,2,78,,,,1737.9496720000002,None,1736.7661515,1737.9664358,s,1,0.3932773999999881,奉献,k,1,0.6755554999999731,tj,m,20,2024_Apr_13_1350,mian,2021.2.3,60.008089090406706,
,,,,,,1,1,pic/flanker5.png,pic/flanker3.png,a,k,pic/EndExp.PNG,,,,,,,,,,,,,,,,,,,,,,,,,0,3,3,3,0,3,3,68,,,,1740.8999364000001,None,1739.7160207000002,1740.9167524,a,1,0.5056695000002946,富足,k,1,0.5788437000001068,tj,m,20,2024_Apr_13_1350,mian,2021.2.3,60.008089090406706,
,,,,,,1,1,pic/flanker5.png,pic/flanker3.png,a,k,pic/EndExp.PNG,,,,,,,,,,,,,,,,,,,,,,,,,0,3,3,3,0,4,4,4,,,,1743.8499955000002,None,1742.66667,1743.8665645,a,1,0.3997242999998889,旺盛,k,1,0.556854999999814,tj,m,20,2024_Apr_13_1350,mian,2021.2.3,60.008089090406706,
,,,,,,1,0,pic/flanker5.png,pic/flanker3.png,a,l,pic/EndExp.PNG,,,,,,,,,,,,,,,,,,,,,,,,,0,3,3,3,0,5,5,39,,,,1746.7499054,None,1745.5668217000002,1746.7666981000002,a,1,0.44717560000026424,鲁莽,l,1,1.681230400000004,tj,m,20,2024_Apr_13_1350,mian,2021.2.3,60.008089090406706,
,,,,,,1,0,pic/flanker5.png,pic/flanker3.png,a,l,pic/EndExp.PNG,,,,,,,,,,,,,,,,,,,,,,,,,0,3,3,3,0,6,6,47,,,,1750.8666248,None,1749.6836859,1750.8833247000002,a,1,0.6990992000000915,烦恼,l,1,1.126694900000075,tj,m,20,2024_Apr_13_1350,mian,2021.2.3,60.008089090406706,
,,,,,,1,0,pic/flanker5.png,pic/flanker3.png,a,l,pic/EndExp.PNG,,,,,,,,,,,,,,,,,,,,,,,,,0,3,3,3,0,7,7,7,,,,1754.5664332000001,None,1753.3833894,1754.5832636,a,1,0.5188178000003063,焦躁,l,1,1.3705252999998265,tj,m,20,2024_Apr_13_1350,mian,2021.2.3,60.008089090406706,
,,,,,,1,1,pic/flanker5.png,pic/flanker3.png,a,k,pic/EndExp.PNG,,,,,,,,,,,,,,,,,,,,,,,,,0,3,3,3,0,8,8,44,,,,1758.2999793,None,1757.1163698,1758.3166498,a,1,0.5694966000000932,畅销,k,1,0.6782460999997966,tj,m,20,2024_Apr_13_1350,mian,2021.2.3,60.008089090406706,
,,,,,,1,0,pic/flanker6.png,pic/flanker4.png,s,l,pic/EndExp.PNG,,,,,,,,,,,,,,,,,,,,,,,,,0,3,3,3,0,9,9,37,,,,1761.4499412999999,None,1760.2660148999998,1761.4660640000002,s,1,0.3632884999997259,罚款,l,1,0.7814080999996804,tj,m,20,2024_Apr_13_1350,mian,2021.2.3,60.008089090406706,
,,,,,,1,1,pic/flanker5.png,pic/flanker3.png,a,k,pic/EndExp.PNG,,,,,,,,,,,,,,,,,,,,,,,,,0,3,3,3,0,10,10,12,,,,1764.6493815,None,1763.4666570999998,1764.6660889999998,a,1,0.4209373999997297,诚恳,k,1,1.0444308000001001,tj,m,20,2024_Apr_13_1350,mian,2021.2.3,60.008089090406706,
