target,反应类型,条件,truetarget,CorAns,Position,congruency,AffValue,flankerPic,targetPic,corAnsF,corAnsA,RestPic,returnPractice.thisRepN,returnPractice.thisTrialN,returnPractice.thisN,returnPractice.thisIndex,pracNum.thisRepN,pracNum.thisTrialN,pracNum.thisN,pracNum.thisIndex,NumBlock1.thisRepN,NumBlock1.thisTrialN,NumBlock1.thisN,NumBlock1.thisIndex,NumBlock2.thisRepN,NumBlock2.thisTrialN,NumBlock2.thisN,NumBlock2.thisIndex,returnPrac.thisRepN,returnPrac.thisTrialN,returnPrac.thisN,returnPrac.thisIndex,PracAff.thisRepN,PracAff.thisTrialN,PracAff.thisN,PracAff.thisIndex,AffBlocks.thisRepN,AffBlocks.thisTrialN,AffBlocks.thisN,AffBlocks.thisIndex,AffBlock1.thisRepN,AffBlock1.thisTrialN,AffBlock1.thisN,AffBlock1.thisIndex,respNum2word.keys,respNum2word.corr,respNum2word.rt,text.started,text.stopped,blank.started,blank.stopped,respFlanker.keys,respFlanker.corr,thisWord,respAffWord.keys,respAffWord.corr,respAffWord.rt,respFlanker.rt,姓名,性别,年龄（周岁）,date,expName,psychopyVersion,frameRate,
2A,1,1,A,a,"[0.2, 0.2]",,,,,,,,0,0,0,0,0,0,0,0,,,,,,,,,,,,,,,,,,,,,,,,,a,1,1.317481799999996,,,,,,,,,,,,wm,f,18,2024_Apr_09_1000,mian,2021.2.3,59.90671326608967,
A9,1,2,A,a,"[-0.2, 0.2]",,,,,,,,0,0,0,0,0,1,1,1,,,,,,,,,,,,,,,,,,,,,,,,,a,1,0.6288159000000064,,,,,,,,,,,,wm,f,18,2024_Apr_09_1000,mian,2021.2.3,59.90671326608967,
7e,2,1,7.0,a,"[-0.2, -0.2]",,,,,,,,0,0,0,0,0,2,2,2,,,,,,,,,,,,,,,,,,,,,,,,,a,1,0.9856090000000108,,,,,,,,,,,,wm,f,18,2024_Apr_09_1000,mian,2021.2.3,59.90671326608967,
9H,2,2,9.0,a,"[0.2, -0.2]",,,,,,,,0,0,0,0,0,3,3,3,,,,,,,,,,,,,,,,,,,,,,,,,a,1,0.8980189999999766,,,,,,,,,,,,wm,f,18,2024_Apr_09_1000,mian,2021.2.3,59.90671326608967,
h4,1,1,h,l,"[0.2, 0.2]",,,,,,,,0,0,0,0,0,4,4,4,,,,,,,,,,,,,,,,,,,,,,,,,l,1,1.0953478000000132,,,,,,,,,,,,wm,f,18,2024_Apr_09_1000,mian,2021.2.3,59.90671326608967,
4H,1,2,H,a,"[-0.2, 0.2]",,,,,,,,0,0,0,0,0,5,5,5,,,,,,,,,,,,,,,,,,,,,,,,,a,1,0.8138497999999572,,,,,,,,,,,,wm,f,18,2024_Apr_09_1000,mian,2021.2.3,59.90671326608967,
F8,2,1,8.0,l,"[-0.2, -0.2]",,,,,,,,0,0,0,0,0,6,6,6,,,,,,,,,,,,,,,,,,,,,,,,,l,1,0.9744382999999743,,,,,,,,,,,,wm,f,18,2024_Apr_09_1000,mian,2021.2.3,59.90671326608967,
h7,2,2,7.0,a,"[0.2, -0.2]",,,,,,,,0,0,0,0,0,7,7,7,,,,,,,,,,,,,,,,,,,,,,,,,a,1,0.719597599999986,,,,,,,,,,,,wm,f,18,2024_Apr_09_1000,mian,2021.2.3,59.90671326608967,
5e,1,1,e,l,"[0.2, 0.2]",,,,,,,,0,0,0,0,0,8,8,8,,,,,,,,,,,,,,,,,,,,,,,,,l,1,0.7861833999999703,,,,,,,,,,,,wm,f,18,2024_Apr_09_1000,mian,2021.2.3,59.90671326608967,
e8,1,2,e,l,"[-0.2, 0.2]",,,,,,,,0,0,0,0,0,9,9,9,,,,,,,,,,,,,,,,,,,,,,,,,l,1,1.4655382999999915,,,,,,,,,,,,wm,f,18,2024_Apr_09_1000,mian,2021.2.3,59.90671326608967,
4E,2,1,4.0,l,"[-0.2, -0.2]",,,,,,,,0,0,0,0,0,10,10,10,,,,,,,,,,,,,,,,,,,,,,,,,a,0,1.697531099999992,,,,,,,,,,,,wm,f,18,2024_Apr_09_1000,mian,2021.2.3,59.90671326608967,
5H,2,2,5.0,a,"[0.2, -0.2]",,,,,,,,0,0,0,0,0,11,11,11,,,,,,,,,,,,,,,,,,,,,,,,,a,1,1.4230501000000118,,,,,,,,,,,,wm,f,18,2024_Apr_09_1000,mian,2021.2.3,59.90671326608967,
9E,1,1,E,a,"[0.2, 0.2]",,,,,,,,0,0,0,0,0,12,12,12,,,,,,,,,,,,,,,,,,,,,,,,,a,1,1.4747507000000155,,,,,,,,,,,,wm,f,18,2024_Apr_09_1000,mian,2021.2.3,59.90671326608967,
h9,1,2,h,l,"[-0.2, 0.2]",,,,,,,,0,0,0,0,0,13,13,13,,,,,,,,,,,,,,,,,,,,,,,,,l,1,0.6645148000000063,,,,,,,,,,,,wm,f,18,2024_Apr_09_1000,mian,2021.2.3,59.90671326608967,
2a,2,1,2.0,l,"[-0.2, -0.2]",,,,,,,,0,0,0,0,0,14,14,14,,,,,,,,,,,,,,,,,,,,,,,,,l,1,0.6244888999999603,,,,,,,,,,,,wm,f,18,2024_Apr_09_1000,mian,2021.2.3,59.90671326608967,
e5,2,2,5.0,a,"[0.2, -0.2]",,,,,,,,0,0,0,0,0,15,15,15,,,,,,,,,,,,,,,,,,,,,,,,,a,1,0.69586129999999,,,,,,,,,,,,wm,f,18,2024_Apr_09_1000,mian,2021.2.3,59.90671326608967,
A5,1,1,A,a,"[0.2, 0.2]",,,,,,,,0,0,0,0,0,16,16,16,,,,,,,,,,,,,,,,,,,,,,,,,a,1,0.8367514000000256,,,,,,,,,,,,wm,f,18,2024_Apr_09_1000,mian,2021.2.3,59.90671326608967,
a6,1,2,a,l,"[-0.2, 0.2]",,,,,,,,0,0,0,0,0,17,17,17,,,,,,,,,,,,,,,,,,,,,,,,,l,1,0.626262200000042,,,,,,,,,,,,wm,f,18,2024_Apr_09_1000,mian,2021.2.3,59.90671326608967,
2F,2,1,2.0,l,"[-0.2, -0.2]",,,,,,,,0,0,0,0,0,18,18,18,,,,,,,,,,,,,,,,,,,,,,,,,l,1,0.7648148999999762,,,,,,,,,,,,wm,f,18,2024_Apr_09_1000,mian,2021.2.3,59.90671326608967,
e4,2,2,4.0,l,"[0.2, -0.2]",,,,,,,,0,0,0,0,0,19,19,19,,,,,,,,,,,,,,,,,,,,,,,,,l,1,0.6254938000000152,,,,,,,,,,,,wm,f,18,2024_Apr_09_1000,mian,2021.2.3,59.90671326608967,
,,,,,,,,,,,,,0,0,0,0,,,,,,,,,,,,,,,,,,,,,,,,,,,,,,,,,,,,,,,,,,,wm,f,18,2024_Apr_09_1000,mian,2021.2.3,59.90671326608967,
7h,1,1,h,l,"[0.2, 0.2]",,,,,,,,,,,,,,,,0,0,0,0,,,,,,,,,,,,,,,,,,,,,l,1,0.4650101999999947,,,,,,,,,,,,wm,f,18,2024_Apr_09_1000,mian,2021.2.3,59.90671326608967,
8F,1,2,F,a,"[-0.2, 0.2]",,,,,,,,,,,,,,,,0,1,1,1,,,,,,,,,,,,,,,,,,,,,a,1,0.6931791000000089,,,,,,,,,,,,wm,f,18,2024_Apr_09_1000,mian,2021.2.3,59.90671326608967,
8h,2,1,8.0,l,"[-0.2, -0.2]",,,,,,,,,,,,,,,,0,2,2,2,,,,,,,,,,,,,,,,,,,,,l,1,0.7912830999999869,,,,,,,,,,,,wm,f,18,2024_Apr_09_1000,mian,2021.2.3,59.90671326608967,
a2,2,2,2.0,l,"[0.2, -0.2]",,,,,,,,,,,,,,,,0,3,3,3,,,,,,,,,,,,,,,,,,,,,l,1,0.6155611000000363,,,,,,,,,,,,wm,f,18,2024_Apr_09_1000,mian,2021.2.3,59.90671326608967,
8f,1,1,f,l,"[0.2, 0.2]",,,,,,,,,,,,,,,,0,4,4,4,,,,,,,,,,,,,,,,,,,,,l,1,0.7379516999999964,,,,,,,,,,,,wm,f,18,2024_Apr_09_1000,mian,2021.2.3,59.90671326608967,
6a,1,2,a,l,"[-0.2, 0.2]",,,,,,,,,,,,,,,,0,5,5,5,,,,,,,,,,,,,,,,,,,,,l,1,0.6652155999999536,,,,,,,,,,,,wm,f,18,2024_Apr_09_1000,mian,2021.2.3,59.90671326608967,
h6,2,1,6.0,l,"[-0.2, -0.2]",,,,,,,,,,,,,,,,0,6,6,6,,,,,,,,,,,,,,,,,,,,,l,1,0.8961192999999525,,,,,,,,,,,,wm,f,18,2024_Apr_09_1000,mian,2021.2.3,59.90671326608967,
f9,2,2,9.0,a,"[0.2, -0.2]",,,,,,,,,,,,,,,,0,7,7,7,,,,,,,,,,,,,,,,,,,,,a,1,0.8286562000000117,,,,,,,,,,,,wm,f,18,2024_Apr_09_1000,mian,2021.2.3,59.90671326608967,
E4,1,1,E,a,"[0.2, 0.2]",,,,,,,,,,,,,,,,0,8,8,8,,,,,,,,,,,,,,,,,,,,,a,1,0.5489003000000139,,,,,,,,,,,,wm,f,18,2024_Apr_09_1000,mian,2021.2.3,59.90671326608967,
6e,1,2,e,l,"[-0.2, 0.2]",,,,,,,,,,,,,,,,0,9,9,9,,,,,,,,,,,,,,,,,,,,,l,1,0.7811374000000342,,,,,,,,,,,,wm,f,18,2024_Apr_09_1000,mian,2021.2.3,59.90671326608967,
5G,2,1,5.0,a,"[-0.2, -0.2]",,,,,,,,,,,,,,,,0,10,10,10,,,,,,,,,,,,,,,,,,,,,a,1,0.8028697000000307,,,,,,,,,,,,wm,f,18,2024_Apr_09_1000,mian,2021.2.3,59.90671326608967,
h3,2,2,3.0,a,"[0.2, -0.2]",,,,,,,,,,,,,,,,0,11,11,11,,,,,,,,,,,,,,,,,,,,,a,1,0.6498664999999733,,,,,,,,,,,,wm,f,18,2024_Apr_09_1000,mian,2021.2.3,59.90671326608967,
9e,1,1,e,l,"[0.2, 0.2]",,,,,,,,,,,,,,,,0,12,12,12,,,,,,,,,,,,,,,,,,,,,l,1,1.2527478999999744,,,,,,,,,,,,wm,f,18,2024_Apr_09_1000,mian,2021.2.3,59.90671326608967,
a8,1,2,a,l,"[-0.2, 0.2]",,,,,,,,,,,,,,,,0,13,13,13,,,,,,,,,,,,,,,,,,,,,l,1,0.6826138000000128,,,,,,,,,,,,wm,f,18,2024_Apr_09_1000,mian,2021.2.3,59.90671326608967,
e8,2,1,8.0,l,"[-0.2, -0.2]",,,,,,,,,,,,,,,,0,14,14,14,,,,,,,,,,,,,,,,,,,,,a,0,1.0439033000000109,,,,,,,,,,,,wm,f,18,2024_Apr_09_1000,mian,2021.2.3,59.90671326608967,
3f,2,2,3.0,a,"[0.2, -0.2]",,,,,,,,,,,,,,,,0,15,15,15,,,,,,,,,,,,,,,,,,,,,a,1,0.7883540999999923,,,,,,,,,,,,wm,f,18,2024_Apr_09_1000,mian,2021.2.3,59.90671326608967,
7f,1,1,f,l,"[0.2, 0.2]",,,,,,,,,,,,,,,,0,16,16,16,,,,,,,,,,,,,,,,,,,,,l,1,1.0957279999999514,,,,,,,,,,,,wm,f,18,2024_Apr_09_1000,mian,2021.2.3,59.90671326608967,
a7,1,2,a,l,"[-0.2, 0.2]",,,,,,,,,,,,,,,,0,17,17,17,,,,,,,,,,,,,,,,,,,,,l,1,0.6795470999999793,,,,,,,,,,,,wm,f,18,2024_Apr_09_1000,mian,2021.2.3,59.90671326608967,
5A,2,1,5.0,a,"[-0.2, -0.2]",,,,,,,,,,,,,,,,0,18,18,18,,,,,,,,,,,,,,,,,,,,,a,1,1.840328100000022,,,,,,,,,,,,wm,f,18,2024_Apr_09_1000,mian,2021.2.3,59.90671326608967,
8g,2,2,8.0,l,"[0.2, -0.2]",,,,,,,,,,,,,,,,0,19,19,19,,,,,,,,,,,,,,,,,,,,,l,1,0.617374199999972,,,,,,,,,,,,wm,f,18,2024_Apr_09_1000,mian,2021.2.3,59.90671326608967,
9a,1,1,a,l,"[0.2, 0.2]",,,,,,,,,,,,,,,,0,20,20,20,,,,,,,,,,,,,,,,,,,,,l,1,0.7206151000000318,,,,,,,,,,,,wm,f,18,2024_Apr_09_1000,mian,2021.2.3,59.90671326608967,
f7,1,2,f,l,"[-0.2, 0.2]",,,,,,,,,,,,,,,,0,21,21,21,,,,,,,,,,,,,,,,,,,,,l,1,0.6856016000000409,,,,,,,,,,,,wm,f,18,2024_Apr_09_1000,mian,2021.2.3,59.90671326608967,
g9,2,1,9.0,a,"[-0.2, -0.2]",,,,,,,,,,,,,,,,0,22,22,22,,,,,,,,,,,,,,,,,,,,,a,1,1.4622148000000834,,,,,,,,,,,,wm,f,18,2024_Apr_09_1000,mian,2021.2.3,59.90671326608967,
3h,2,2,3.0,a,"[0.2, -0.2]",,,,,,,,,,,,,,,,0,23,23,23,,,,,,,,,,,,,,,,,,,,,a,1,0.6156714999999622,,,,,,,,,,,,wm,f,18,2024_Apr_09_1000,mian,2021.2.3,59.90671326608967,
E6,1,1,E,a,"[0.2, 0.2]",,,,,,,,,,,,,,,,0,24,24,24,,,,,,,,,,,,,,,,,,,,,a,1,0.8709387000000106,,,,,,,,,,,,wm,f,18,2024_Apr_09_1000,mian,2021.2.3,59.90671326608967,
F6,1,2,F,a,"[-0.2, 0.2]",,,,,,,,,,,,,,,,0,25,25,25,,,,,,,,,,,,,,,,,,,,,a,1,0.6197210999999925,,,,,,,,,,,,wm,f,18,2024_Apr_09_1000,mian,2021.2.3,59.90671326608967,
3A,2,1,3.0,a,"[-0.2, -0.2]",,,,,,,,,,,,,,,,0,26,26,26,,,,,,,,,,,,,,,,,,,,,a,1,0.7373302999999396,,,,,,,,,,,,wm,f,18,2024_Apr_09_1000,mian,2021.2.3,59.90671326608967,
8H,2,2,8.0,l,"[0.2, -0.2]",,,,,,,,,,,,,,,,0,27,27,27,,,,,,,,,,,,,,,,,,,,,l,1,0.5403539000000137,,,,,,,,,,,,wm,f,18,2024_Apr_09_1000,mian,2021.2.3,59.90671326608967,
5a,1,1,a,l,"[0.2, 0.2]",,,,,,,,,,,,,,,,0,28,28,28,,,,,,,,,,,,,,,,,,,,,l,1,1.012348999999972,,,,,,,,,,,,wm,f,18,2024_Apr_09_1000,mian,2021.2.3,59.90671326608967,
2h,1,2,h,l,"[-0.2, 0.2]",,,,,,,,,,,,,,,,0,29,29,29,,,,,,,,,,,,,,,,,,,,,l,1,0.4859380999999985,,,,,,,,,,,,wm,f,18,2024_Apr_09_1000,mian,2021.2.3,59.90671326608967,
e5,2,1,5.0,a,"[-0.2, -0.2]",,,,,,,,,,,,,,,,0,30,30,30,,,,,,,,,,,,,,,,,,,,,a,1,1.2882571999999755,,,,,,,,,,,,wm,f,18,2024_Apr_09_1000,mian,2021.2.3,59.90671326608967,
a3,2,2,3.0,a,"[0.2, -0.2]",,,,,,,,,,,,,,,,0,31,31,31,,,,,,,,,,,,,,,,,,,,,a,1,0.6261803999999529,,,,,,,,,,,,wm,f,18,2024_Apr_09_1000,mian,2021.2.3,59.90671326608967,
f3,1,1,f,l,"[0.2, 0.2]",,,,,,,,,,,,,,,,0,32,32,32,,,,,,,,,,,,,,,,,,,,,l,1,1.4379445000000715,,,,,,,,,,,,wm,f,18,2024_Apr_09_1000,mian,2021.2.3,59.90671326608967,
2E,1,2,E,a,"[-0.2, 0.2]",,,,,,,,,,,,,,,,0,33,33,33,,,,,,,,,,,,,,,,,,,,,a,1,0.4621478000000252,,,,,,,,,,,,wm,f,18,2024_Apr_09_1000,mian,2021.2.3,59.90671326608967,
2H,2,1,2.0,l,"[-0.2, -0.2]",,,,,,,,,,,,,,,,0,34,34,34,,,,,,,,,,,,,,,,,,,,,l,1,0.8885107999999491,,,,,,,,,,,,wm,f,18,2024_Apr_09_1000,mian,2021.2.3,59.90671326608967,
H8,2,2,8.0,l,"[0.2, -0.2]",,,,,,,,,,,,,,,,0,35,35,35,,,,,,,,,,,,,,,,,,,,,l,1,0.6239461999999776,,,,,,,,,,,,wm,f,18,2024_Apr_09_1000,mian,2021.2.3,59.90671326608967,
9g,1,1,g,l,"[0.2, 0.2]",,,,,,,,,,,,,,,,0,36,36,36,,,,,,,,,,,,,,,,,,,,,l,1,1.794599299999959,,,,,,,,,,,,wm,f,18,2024_Apr_09_1000,mian,2021.2.3,59.90671326608967,
5h,1,2,h,l,"[-0.2, 0.2]",,,,,,,,,,,,,,,,0,37,37,37,,,,,,,,,,,,,,,,,,,,,l,1,0.6924787000000379,,,,,,,,,,,,wm,f,18,2024_Apr_09_1000,mian,2021.2.3,59.90671326608967,
e4,2,1,4.0,l,"[-0.2, -0.2]",,,,,,,,,,,,,,,,0,38,38,38,,,,,,,,,,,,,,,,,,,,,l,1,1.247572200000036,,,,,,,,,,,,wm,f,18,2024_Apr_09_1000,mian,2021.2.3,59.90671326608967,
9h,2,2,9.0,a,"[0.2, -0.2]",,,,,,,,,,,,,,,,0,39,39,39,,,,,,,,,,,,,,,,,,,,,a,1,0.6417420999999877,,,,,,,,,,,,wm,f,18,2024_Apr_09_1000,mian,2021.2.3,59.90671326608967,
G3,1,1,G,a,"[0.2, 0.2]",,,,,,,,,,,,,,,,0,40,40,40,,,,,,,,,,,,,,,,,,,,,a,1,1.0757791999999426,,,,,,,,,,,,wm,f,18,2024_Apr_09_1000,mian,2021.2.3,59.90671326608967,
9A,1,2,A,a,"[-0.2, 0.2]",,,,,,,,,,,,,,,,0,41,41,41,,,,,,,,,,,,,,,,,,,,,a,1,0.639567399999919,,,,,,,,,,,,wm,f,18,2024_Apr_09_1000,mian,2021.2.3,59.90671326608967,
H5,2,1,5.0,a,"[-0.2, -0.2]",,,,,,,,,,,,,,,,0,42,42,42,,,,,,,,,,,,,,,,,,,,,a,1,1.6692534000000023,,,,,,,,,,,,wm,f,18,2024_Apr_09_1000,mian,2021.2.3,59.90671326608967,
4e,2,2,4.0,l,"[0.2, -0.2]",,,,,,,,,,,,,,,,0,43,43,43,,,,,,,,,,,,,,,,,,,,,l,1,0.533423300000095,,,,,,,,,,,,wm,f,18,2024_Apr_09_1000,mian,2021.2.3,59.90671326608967,
E2,1,1,E,a,"[0.2, 0.2]",,,,,,,,,,,,,,,,0,44,44,44,,,,,,,,,,,,,,,,,,,,,a,1,0.8141286000000036,,,,,,,,,,,,wm,f,18,2024_Apr_09_1000,mian,2021.2.3,59.90671326608967,
A5,1,2,A,a,"[-0.2, 0.2]",,,,,,,,,,,,,,,,0,45,45,45,,,,,,,,,,,,,,,,,,,,,a,1,0.5475847000000158,,,,,,,,,,,,wm,f,18,2024_Apr_09_1000,mian,2021.2.3,59.90671326608967,
2A,2,1,2.0,l,"[-0.2, -0.2]",,,,,,,,,,,,,,,,0,46,46,46,,,,,,,,,,,,,,,,,,,,,l,1,0.9167191999999886,,,,,,,,,,,,wm,f,18,2024_Apr_09_1000,mian,2021.2.3,59.90671326608967,
6G,2,2,6.0,l,"[0.2, -0.2]",,,,,,,,,,,,,,,,0,47,47,47,,,,,,,,,,,,,,,,,,,,,l,1,0.5018574999999146,,,,,,,,,,,,wm,f,18,2024_Apr_09_1000,mian,2021.2.3,59.90671326608967,
H3,1,1,H,a,"[0.2, 0.2]",,,,,,,,,,,,,,,,0,48,48,48,,,,,,,,,,,,,,,,,,,,,a,1,1.618203200000039,,,,,,,,,,,,wm,f,18,2024_Apr_09_1000,mian,2021.2.3,59.90671326608967,
H2,1,2,H,a,"[-0.2, 0.2]",,,,,,,,,,,,,,,,0,49,49,49,,,,,,,,,,,,,,,,,,,,,a,1,0.6226258000000371,,,,,,,,,,,,wm,f,18,2024_Apr_09_1000,mian,2021.2.3,59.90671326608967,
e9,2,1,9.0,a,"[-0.2, -0.2]",,,,,,,,,,,,,,,,0,50,50,50,,,,,,,,,,,,,,,,,,,,,a,1,1.0483137999999599,,,,,,,,,,,,wm,f,18,2024_Apr_09_1000,mian,2021.2.3,59.90671326608967,
2G,2,2,2.0,l,"[0.2, -0.2]",,,,,,,,,,,,,,,,0,51,51,51,,,,,,,,,,,,,,,,,,,,,l,1,0.7882167000000209,,,,,,,,,,,,wm,f,18,2024_Apr_09_1000,mian,2021.2.3,59.90671326608967,
4f,1,1,f,l,"[0.2, 0.2]",,,,,,,,,,,,,,,,0,52,52,52,,,,,,,,,,,,,,,,,,,,,l,1,1.2381859999999278,,,,,,,,,,,,wm,f,18,2024_Apr_09_1000,mian,2021.2.3,59.90671326608967,
H6,1,2,H,a,"[-0.2, 0.2]",,,,,,,,,,,,,,,,0,53,53,53,,,,,,,,,,,,,,,,,,,,,a,1,1.3222053000000642,,,,,,,,,,,,wm,f,18,2024_Apr_09_1000,mian,2021.2.3,59.90671326608967,
A4,2,1,4.0,l,"[-0.2, -0.2]",,,,,,,,,,,,,,,,0,54,54,54,,,,,,,,,,,,,,,,,,,,,l,1,1.2053988999999774,,,,,,,,,,,,wm,f,18,2024_Apr_09_1000,mian,2021.2.3,59.90671326608967,
3F,2,2,3.0,a,"[0.2, -0.2]",,,,,,,,,,,,,,,,0,55,55,55,,,,,,,,,,,,,,,,,,,,,a,1,0.6739893000000166,,,,,,,,,,,,wm,f,18,2024_Apr_09_1000,mian,2021.2.3,59.90671326608967,
7e,1,1,e,l,"[0.2, 0.2]",,,,,,,,,,,,,,,,0,56,56,56,,,,,,,,,,,,,,,,,,,,,l,1,1.4849212999999963,,,,,,,,,,,,wm,f,18,2024_Apr_09_1000,mian,2021.2.3,59.90671326608967,
F9,1,2,F,a,"[-0.2, 0.2]",,,,,,,,,,,,,,,,0,57,57,57,,,,,,,,,,,,,,,,,,,,,a,1,0.9943782000000283,,,,,,,,,,,,wm,f,18,2024_Apr_09_1000,mian,2021.2.3,59.90671326608967,
e2,2,1,2.0,l,"[-0.2, -0.2]",,,,,,,,,,,,,,,,0,58,58,58,,,,,,,,,,,,,,,,,,,,,l,1,1.2340634999999338,,,,,,,,,,,,wm,f,18,2024_Apr_09_1000,mian,2021.2.3,59.90671326608967,
5F,2,2,5.0,a,"[0.2, -0.2]",,,,,,,,,,,,,,,,0,59,59,59,,,,,,,,,,,,,,,,,,,,,a,1,1.2031388000000334,,,,,,,,,,,,wm,f,18,2024_Apr_09_1000,mian,2021.2.3,59.90671326608967,
f6,1,1,f,l,"[0.2, 0.2]",,,,,,,,,,,,,,,,0,60,60,60,,,,,,,,,,,,,,,,,,,,,l,1,0.6607718000000204,,,,,,,,,,,,wm,f,18,2024_Apr_09_1000,mian,2021.2.3,59.90671326608967,
7G,1,2,G,a,"[-0.2, 0.2]",,,,,,,,,,,,,,,,0,61,61,61,,,,,,,,,,,,,,,,,,,,,a,1,0.6068377000000282,,,,,,,,,,,,wm,f,18,2024_Apr_09_1000,mian,2021.2.3,59.90671326608967,
e6,2,1,6.0,l,"[-0.2, -0.2]",,,,,,,,,,,,,,,,0,62,62,62,,,,,,,,,,,,,,,,,,,,,l,1,1.471584200000052,,,,,,,,,,,,wm,f,18,2024_Apr_09_1000,mian,2021.2.3,59.90671326608967,
3G,2,2,3.0,a,"[0.2, -0.2]",,,,,,,,,,,,,,,,0,63,63,63,,,,,,,,,,,,,,,,,,,,,a,1,0.8499648000000661,,,,,,,,,,,,wm,f,18,2024_Apr_09_1000,mian,2021.2.3,59.90671326608967,
5E,1,1,E,a,"[0.2, 0.2]",,,,,,,,,,,,,,,,0,64,64,64,,,,,,,,,,,,,,,,,,,,,a,1,1.3600315999999566,,,,,,,,,,,,wm,f,18,2024_Apr_09_1000,mian,2021.2.3,59.90671326608967,
A6,1,2,A,a,"[-0.2, 0.2]",,,,,,,,,,,,,,,,0,65,65,65,,,,,,,,,,,,,,,,,,,,,a,1,0.5196190999999999,,,,,,,,,,,,wm,f,18,2024_Apr_09_1000,mian,2021.2.3,59.90671326608967,
E3,2,1,3.0,a,"[-0.2, -0.2]",,,,,,,,,,,,,,,,0,66,66,66,,,,,,,,,,,,,,,,,,,,,a,1,0.8022730000000138,,,,,,,,,,,,wm,f,18,2024_Apr_09_1000,mian,2021.2.3,59.90671326608967,
2f,2,2,2.0,l,"[0.2, -0.2]",,,,,,,,,,,,,,,,0,67,67,67,,,,,,,,,,,,,,,,,,,,,l,1,0.9950268000000051,,,,,,,,,,,,wm,f,18,2024_Apr_09_1000,mian,2021.2.3,59.90671326608967,
g3,1,1,g,l,"[0.2, 0.2]",,,,,,,,,,,,,,,,0,68,68,68,,,,,,,,,,,,,,,,,,,,,l,1,2.0762346999999863,,,,,,,,,,,,wm,f,18,2024_Apr_09_1000,mian,2021.2.3,59.90671326608967,
E8,1,2,E,a,"[-0.2, 0.2]",,,,,,,,,,,,,,,,0,69,69,69,,,,,,,,,,,,,,,,,,,,,l,0,0.6865333000000646,,,,,,,,,,,,wm,f,18,2024_Apr_09_1000,mian,2021.2.3,59.90671326608967,
6g,2,1,6.0,l,"[-0.2, -0.2]",,,,,,,,,,,,,,,,0,70,70,70,,,,,,,,,,,,,,,,,,,,,l,1,1.599563499999931,,,,,,,,,,,,wm,f,18,2024_Apr_09_1000,mian,2021.2.3,59.90671326608967,
5H,2,2,5.0,a,"[0.2, -0.2]",,,,,,,,,,,,,,,,0,71,71,71,,,,,,,,,,,,,,,,,,,,,a,1,1.1438471000000163,,,,,,,,,,,,wm,f,18,2024_Apr_09_1000,mian,2021.2.3,59.90671326608967,
4A,1,1,A,a,"[0.2, 0.2]",,,,,,,,,,,,,,,,0,72,72,72,,,,,,,,,,,,,,,,,,,,,a,1,0.619423299999994,,,,,,,,,,,,wm,f,18,2024_Apr_09_1000,mian,2021.2.3,59.90671326608967,
7F,1,2,F,a,"[-0.2, 0.2]",,,,,,,,,,,,,,,,0,73,73,73,,,,,,,,,,,,,,,,,,,,,a,1,1.1077086000000236,,,,,,,,,,,,wm,f,18,2024_Apr_09_1000,mian,2021.2.3,59.90671326608967,
6H,2,1,6.0,l,"[-0.2, -0.2]",,,,,,,,,,,,,,,,0,74,74,74,,,,,,,,,,,,,,,,,,,,,l,1,2.5891493999999966,,,,,,,,,,,,wm,f,18,2024_Apr_09_1000,mian,2021.2.3,59.90671326608967,
3a,2,2,3.0,a,"[0.2, -0.2]",,,,,,,,,,,,,,,,0,75,75,75,,,,,,,,,,,,,,,,,,,,,a,1,1.0284005000000889,,,,,,,,,,,,wm,f,18,2024_Apr_09_1000,mian,2021.2.3,59.90671326608967,
9F,1,1,F,a,"[0.2, 0.2]",,,,,,,,,,,,,,,,0,76,76,76,,,,,,,,,,,,,,,,,,,,,a,1,0.8904340000000275,,,,,,,,,,,,wm,f,18,2024_Apr_09_1000,mian,2021.2.3,59.90671326608967,
G7,1,2,G,a,"[-0.2, 0.2]",,,,,,,,,,,,,,,,0,77,77,77,,,,,,,,,,,,,,,,,,,,,a,1,0.9375953999999638,,,,,,,,,,,,wm,f,18,2024_Apr_09_1000,mian,2021.2.3,59.90671326608967,
a6,2,1,6.0,l,"[-0.2, -0.2]",,,,,,,,,,,,,,,,0,78,78,78,,,,,,,,,,,,,,,,,,,,,l,1,0.8410776999999143,,,,,,,,,,,,wm,f,18,2024_Apr_09_1000,mian,2021.2.3,59.90671326608967,
4h,2,2,4.0,l,"[0.2, -0.2]",,,,,,,,,,,,,,,,0,79,79,79,,,,,,,,,,,,,,,,,,,,,l,1,0.5705143999999791,,,,,,,,,,,,wm,f,18,2024_Apr_09_1000,mian,2021.2.3,59.90671326608967,
6A,1,1,A,a,"[0.2, 0.2]",,,,,,,,,,,,,,,,,,,,0,0,0,0,,,,,,,,,,,,,,,,,a,1,1.3767329999999447,,,,,,,,,,,,wm,f,18,2024_Apr_09_1000,mian,2021.2.3,59.90671326608967,
4H,1,2,H,a,"[-0.2, 0.2]",,,,,,,,,,,,,,,,,,,,0,1,1,1,,,,,,,,,,,,,,,,,a,1,0.6598395999999411,,,,,,,,,,,,wm,f,18,2024_Apr_09_1000,mian,2021.2.3,59.90671326608967,
3H,2,1,3.0,a,"[-0.2, -0.2]",,,,,,,,,,,,,,,,,,,,0,2,2,2,,,,,,,,,,,,,,,,,l,0,0.75802740000006,,,,,,,,,,,,wm,f,18,2024_Apr_09_1000,mian,2021.2.3,59.90671326608967,
a9,2,2,9.0,a,"[0.2, -0.2]",,,,,,,,,,,,,,,,,,,,0,3,3,3,,,,,,,,,,,,,,,,,l,0,0.8664218000000119,,,,,,,,,,,,wm,f,18,2024_Apr_09_1000,mian,2021.2.3,59.90671326608967,
E7,1,1,E,a,"[0.2, 0.2]",,,,,,,,,,,,,,,,,,,,0,4,4,4,,,,,,,,,,,,,,,,,a,1,4.251435499999957,,,,,,,,,,,,wm,f,18,2024_Apr_09_1000,mian,2021.2.3,59.90671326608967,
6h,1,2,h,l,"[-0.2, 0.2]",,,,,,,,,,,,,,,,,,,,0,5,5,5,,,,,,,,,,,,,,,,,l,1,0.7454980999999634,,,,,,,,,,,,wm,f,18,2024_Apr_09_1000,mian,2021.2.3,59.90671326608967,
8A,2,1,8.0,l,"[-0.2, -0.2]",,,,,,,,,,,,,,,,,,,,0,6,6,6,,,,,,,,,,,,,,,,,l,1,0.9942303000000265,,,,,,,,,,,,wm,f,18,2024_Apr_09_1000,mian,2021.2.3,59.90671326608967,
f5,2,2,5.0,a,"[0.2, -0.2]",,,,,,,,,,,,,,,,,,,,0,7,7,7,,,,,,,,,,,,,,,,,a,1,0.6993614000000434,,,,,,,,,,,,wm,f,18,2024_Apr_09_1000,mian,2021.2.3,59.90671326608967,
2a,1,1,a,l,"[0.2, 0.2]",,,,,,,,,,,,,,,,,,,,0,8,8,8,,,,,,,,,,,,,,,,,l,1,1.0732907999999952,,,,,,,,,,,,wm,f,18,2024_Apr_09_1000,mian,2021.2.3,59.90671326608967,
F7,1,2,F,a,"[-0.2, 0.2]",,,,,,,,,,,,,,,,,,,,0,9,9,9,,,,,,,,,,,,,,,,,a,1,0.6584543999999823,,,,,,,,,,,,wm,f,18,2024_Apr_09_1000,mian,2021.2.3,59.90671326608967,
h2,2,1,2.0,l,"[-0.2, -0.2]",,,,,,,,,,,,,,,,,,,,0,10,10,10,,,,,,,,,,,,,,,,,l,1,0.6698979000000236,,,,,,,,,,,,wm,f,18,2024_Apr_09_1000,mian,2021.2.3,59.90671326608967,
F5,2,2,5.0,a,"[0.2, -0.2]",,,,,,,,,,,,,,,,,,,,0,11,11,11,,,,,,,,,,,,,,,,,a,1,0.7273966999999857,,,,,,,,,,,,wm,f,18,2024_Apr_09_1000,mian,2021.2.3,59.90671326608967,
A9,1,1,A,a,"[0.2, 0.2]",,,,,,,,,,,,,,,,,,,,0,12,12,12,,,,,,,,,,,,,,,,,a,1,1.057989799999973,,,,,,,,,,,,wm,f,18,2024_Apr_09_1000,mian,2021.2.3,59.90671326608967,
3e,1,2,e,l,"[-0.2, 0.2]",,,,,,,,,,,,,,,,,,,,0,13,13,13,,,,,,,,,,,,,,,,,l,1,0.6530698999999913,,,,,,,,,,,,wm,f,18,2024_Apr_09_1000,mian,2021.2.3,59.90671326608967,
f8,2,1,8.0,l,"[-0.2, -0.2]",,,,,,,,,,,,,,,,,,,,0,14,14,14,,,,,,,,,,,,,,,,,l,1,0.6443277999999282,,,,,,,,,,,,wm,f,18,2024_Apr_09_1000,mian,2021.2.3,59.90671326608967,
G2,2,2,2.0,l,"[0.2, -0.2]",,,,,,,,,,,,,,,,,,,,0,15,15,15,,,,,,,,,,,,,,,,,l,1,0.5220521999999619,,,,,,,,,,,,wm,f,18,2024_Apr_09_1000,mian,2021.2.3,59.90671326608967,
F2,1,1,F,a,"[0.2, 0.2]",,,,,,,,,,,,,,,,,,,,0,16,16,16,,,,,,,,,,,,,,,,,a,1,0.6859633000000258,,,,,,,,,,,,wm,f,18,2024_Apr_09_1000,mian,2021.2.3,59.90671326608967,
5e,1,2,e,l,"[-0.2, 0.2]",,,,,,,,,,,,,,,,,,,,0,17,17,17,,,,,,,,,,,,,,,,,l,1,0.5907925000000205,,,,,,,,,,,,wm,f,18,2024_Apr_09_1000,mian,2021.2.3,59.90671326608967,
A3,2,1,3.0,a,"[-0.2, -0.2]",,,,,,,,,,,,,,,,,,,,0,18,18,18,,,,,,,,,,,,,,,,,a,1,3.2189087000000427,,,,,,,,,,,,wm,f,18,2024_Apr_09_1000,mian,2021.2.3,59.90671326608967,
4g,2,2,4.0,l,"[0.2, -0.2]",,,,,,,,,,,,,,,,,,,,0,19,19,19,,,,,,,,,,,,,,,,,l,1,0.6982214000000795,,,,,,,,,,,,wm,f,18,2024_Apr_09_1000,mian,2021.2.3,59.90671326608967,
h7,1,1,h,l,"[0.2, 0.2]",,,,,,,,,,,,,,,,,,,,0,20,20,20,,,,,,,,,,,,,,,,,l,1,1.0008209999999735,,,,,,,,,,,,wm,f,18,2024_Apr_09_1000,mian,2021.2.3,59.90671326608967,
3g,1,2,g,l,"[-0.2, 0.2]",,,,,,,,,,,,,,,,,,,,0,21,21,21,,,,,,,,,,,,,,,,,l,1,0.6885730000000194,,,,,,,,,,,,wm,f,18,2024_Apr_09_1000,mian,2021.2.3,59.90671326608967,
8a,2,1,8.0,l,"[-0.2, -0.2]",,,,,,,,,,,,,,,,,,,,0,22,22,22,,,,,,,,,,,,,,,,,l,1,1.7079281000000037,,,,,,,,,,,,wm,f,18,2024_Apr_09_1000,mian,2021.2.3,59.90671326608967,
4E,2,2,4.0,l,"[0.2, -0.2]",,,,,,,,,,,,,,,,,,,,0,23,23,23,,,,,,,,,,,,,,,,,l,1,0.5889707000000044,,,,,,,,,,,,wm,f,18,2024_Apr_09_1000,mian,2021.2.3,59.90671326608967,
E5,1,1,E,a,"[0.2, 0.2]",,,,,,,,,,,,,,,,,,,,0,24,24,24,,,,,,,,,,,,,,,,,a,1,0.660243600000058,,,,,,,,,,,,wm,f,18,2024_Apr_09_1000,mian,2021.2.3,59.90671326608967,
g6,1,2,g,l,"[-0.2, 0.2]",,,,,,,,,,,,,,,,,,,,0,25,25,25,,,,,,,,,,,,,,,,,l,1,1.2423799999999119,,,,,,,,,,,,wm,f,18,2024_Apr_09_1000,mian,2021.2.3,59.90671326608967,
2e,2,1,2.0,l,"[-0.2, -0.2]",,,,,,,,,,,,,,,,,,,,0,26,26,26,,,,,,,,,,,,,,,,,l,1,0.7708562999999913,,,,,,,,,,,,wm,f,18,2024_Apr_09_1000,mian,2021.2.3,59.90671326608967,
h8,2,2,8.0,l,"[0.2, -0.2]",,,,,,,,,,,,,,,,,,,,0,27,27,27,,,,,,,,,,,,,,,,,l,1,0.8034303999999111,,,,,,,,,,,,wm,f,18,2024_Apr_09_1000,mian,2021.2.3,59.90671326608967,
G6,1,1,G,a,"[0.2, 0.2]",,,,,,,,,,,,,,,,,,,,0,28,28,28,,,,,,,,,,,,,,,,,a,1,0.6018794000000298,,,,,,,,,,,,wm,f,18,2024_Apr_09_1000,mian,2021.2.3,59.90671326608967,
a4,1,2,a,l,"[-0.2, 0.2]",,,,,,,,,,,,,,,,,,,,0,29,29,29,,,,,,,,,,,,,,,,,l,1,1.0778894999999693,,,,,,,,,,,,wm,f,18,2024_Apr_09_1000,mian,2021.2.3,59.90671326608967,
9H,2,1,9.0,a,"[-0.2, -0.2]",,,,,,,,,,,,,,,,,,,,0,30,30,30,,,,,,,,,,,,,,,,,a,1,1.3473007999999709,,,,,,,,,,,,wm,f,18,2024_Apr_09_1000,mian,2021.2.3,59.90671326608967,
7H,2,2,7.0,a,"[0.2, -0.2]",,,,,,,,,,,,,,,,,,,,0,31,31,31,,,,,,,,,,,,,,,,,a,1,0.7294895999999653,,,,,,,,,,,,wm,f,18,2024_Apr_09_1000,mian,2021.2.3,59.90671326608967,
9f,1,1,f,l,"[0.2, 0.2]",,,,,,,,,,,,,,,,,,,,0,32,32,32,,,,,,,,,,,,,,,,,l,1,1.6442859999999655,,,,,,,,,,,,wm,f,18,2024_Apr_09_1000,mian,2021.2.3,59.90671326608967,
8E,1,2,E,a,"[-0.2, 0.2]",,,,,,,,,,,,,,,,,,,,0,33,33,33,,,,,,,,,,,,,,,,,a,1,1.6780320000000302,,,,,,,,,,,,wm,f,18,2024_Apr_09_1000,mian,2021.2.3,59.90671326608967,
A2,2,1,2.0,l,"[-0.2, -0.2]",,,,,,,,,,,,,,,,,,,,0,34,34,34,,,,,,,,,,,,,,,,,l,1,1.0053560000000061,,,,,,,,,,,,wm,f,18,2024_Apr_09_1000,mian,2021.2.3,59.90671326608967,
H7,2,2,7.0,a,"[0.2, -0.2]",,,,,,,,,,,,,,,,,,,,0,35,35,35,,,,,,,,,,,,,,,,,a,1,0.7673795999999129,,,,,,,,,,,,wm,f,18,2024_Apr_09_1000,mian,2021.2.3,59.90671326608967,
h9,1,1,h,l,"[0.2, 0.2]",,,,,,,,,,,,,,,,,,,,0,36,36,36,,,,,,,,,,,,,,,,,l,1,1.1212456999999176,,,,,,,,,,,,wm,f,18,2024_Apr_09_1000,mian,2021.2.3,59.90671326608967,
8G,1,2,G,a,"[-0.2, 0.2]",,,,,,,,,,,,,,,,,,,,0,37,37,37,,,,,,,,,,,,,,,,,a,1,0.8589425999999776,,,,,,,,,,,,wm,f,18,2024_Apr_09_1000,mian,2021.2.3,59.90671326608967,
H4,2,1,4.0,l,"[-0.2, -0.2]",,,,,,,,,,,,,,,,,,,,0,38,38,38,,,,,,,,,,,,,,,,,l,1,1.8953897000000097,,,,,,,,,,,,wm,f,18,2024_Apr_09_1000,mian,2021.2.3,59.90671326608967,
A8,2,2,8.0,l,"[0.2, -0.2]",,,,,,,,,,,,,,,,,,,,0,39,39,39,,,,,,,,,,,,,,,,,l,1,0.6514316000000235,,,,,,,,,,,,wm,f,18,2024_Apr_09_1000,mian,2021.2.3,59.90671326608967,
g7,1,1,g,l,"[0.2, 0.2]",,,,,,,,,,,,,,,,,,,,0,40,40,40,,,,,,,,,,,,,,,,,a,0,1.6947567999999364,,,,,,,,,,,,wm,f,18,2024_Apr_09_1000,mian,2021.2.3,59.90671326608967,
H9,1,2,H,a,"[-0.2, 0.2]",,,,,,,,,,,,,,,,,,,,0,41,41,41,,,,,,,,,,,,,,,,,a,1,1.1331147000000783,,,,,,,,,,,,wm,f,18,2024_Apr_09_1000,mian,2021.2.3,59.90671326608967,
9E,2,1,9.0,a,"[-0.2, -0.2]",,,,,,,,,,,,,,,,,,,,0,42,42,42,,,,,,,,,,,,,,,,,a,1,0.7815087999999832,,,,,,,,,,,,wm,f,18,2024_Apr_09_1000,mian,2021.2.3,59.90671326608967,
a5,2,2,5.0,a,"[0.2, -0.2]",,,,,,,,,,,,,,,,,,,,0,43,43,43,,,,,,,,,,,,,,,,,a,1,2.2200523000000203,,,,,,,,,,,,wm,f,18,2024_Apr_09_1000,mian,2021.2.3,59.90671326608967,
3E,1,1,E,a,"[0.2, 0.2]",,,,,,,,,,,,,,,,,,,,0,44,44,44,,,,,,,,,,,,,,,,,a,1,0.7982753000000002,,,,,,,,,,,,wm,f,18,2024_Apr_09_1000,mian,2021.2.3,59.90671326608967,
6f,1,2,f,l,"[-0.2, 0.2]",,,,,,,,,,,,,,,,,,,,0,45,45,45,,,,,,,,,,,,,,,,,l,1,0.6870949999999993,,,,,,,,,,,,wm,f,18,2024_Apr_09_1000,mian,2021.2.3,59.90671326608967,
g8,2,1,8.0,l,"[-0.2, -0.2]",,,,,,,,,,,,,,,,,,,,0,46,46,46,,,,,,,,,,,,,,,,,l,1,1.7633116000000655,,,,,,,,,,,,wm,f,18,2024_Apr_09_1000,mian,2021.2.3,59.90671326608967,
4F,2,2,4.0,l,"[0.2, -0.2]",,,,,,,,,,,,,,,,,,,,0,47,47,47,,,,,,,,,,,,,,,,,l,1,0.8776224999999158,,,,,,,,,,,,wm,f,18,2024_Apr_09_1000,mian,2021.2.3,59.90671326608967,
4a,1,1,a,l,"[0.2, 0.2]",,,,,,,,,,,,,,,,,,,,0,48,48,48,,,,,,,,,,,,,,,,,l,1,1.0046230000000378,,,,,,,,,,,,wm,f,18,2024_Apr_09_1000,mian,2021.2.3,59.90671326608967,
e3,1,2,e,l,"[-0.2, 0.2]",,,,,,,,,,,,,,,,,,,,0,49,49,49,,,,,,,,,,,,,,,,,l,1,0.75248739999995,,,,,,,,,,,,wm,f,18,2024_Apr_09_1000,mian,2021.2.3,59.90671326608967,
5g,2,1,5.0,a,"[-0.2, -0.2]",,,,,,,,,,,,,,,,,,,,0,50,50,50,,,,,,,,,,,,,,,,,a,1,1.4500507000000198,,,,,,,,,,,,wm,f,18,2024_Apr_09_1000,mian,2021.2.3,59.90671326608967,
f4,2,2,4.0,l,"[0.2, -0.2]",,,,,,,,,,,,,,,,,,,,0,51,51,51,,,,,,,,,,,,,,,,,l,1,0.8277017999999998,,,,,,,,,,,,wm,f,18,2024_Apr_09_1000,mian,2021.2.3,59.90671326608967,
6E,1,1,E,a,"[0.2, 0.2]",,,,,,,,,,,,,,,,,,,,0,52,52,52,,,,,,,,,,,,,,,,,a,1,2.4231051000000434,,,,,,,,,,,,wm,f,18,2024_Apr_09_1000,mian,2021.2.3,59.90671326608967,
7A,1,2,A,a,"[-0.2, 0.2]",,,,,,,,,,,,,,,,,,,,0,53,53,53,,,,,,,,,,,,,,,,,a,1,0.6707218000000239,,,,,,,,,,,,wm,f,18,2024_Apr_09_1000,mian,2021.2.3,59.90671326608967,
F4,2,1,4.0,l,"[-0.2, -0.2]",,,,,,,,,,,,,,,,,,,,0,54,54,54,,,,,,,,,,,,,,,,,l,1,1.4825984999999946,,,,,,,,,,,,wm,f,18,2024_Apr_09_1000,mian,2021.2.3,59.90671326608967,
2g,2,2,2.0,l,"[0.2, -0.2]",,,,,,,,,,,,,,,,,,,,0,55,55,55,,,,,,,,,,,,,,,,,l,1,0.6201414999999315,,,,,,,,,,,,wm,f,18,2024_Apr_09_1000,mian,2021.2.3,59.90671326608967,
7E,1,1,E,a,"[0.2, 0.2]",,,,,,,,,,,,,,,,,,,,0,56,56,56,,,,,,,,,,,,,,,,,a,1,0.6620874999999842,,,,,,,,,,,,wm,f,18,2024_Apr_09_1000,mian,2021.2.3,59.90671326608967,
G4,1,2,G,a,"[-0.2, 0.2]",,,,,,,,,,,,,,,,,,,,0,57,57,57,,,,,,,,,,,,,,,,,a,1,1.012097400000016,,,,,,,,,,,,wm,f,18,2024_Apr_09_1000,mian,2021.2.3,59.90671326608967,
2F,2,1,2.0,l,"[-0.2, -0.2]",,,,,,,,,,,,,,,,,,,,0,58,58,58,,,,,,,,,,,,,,,,,l,1,0.7151252999999542,,,,,,,,,,,,wm,f,18,2024_Apr_09_1000,mian,2021.2.3,59.90671326608967,
E9,2,2,9.0,a,"[0.2, -0.2]",,,,,,,,,,,,,,,,,,,,0,59,59,59,,,,,,,,,,,,,,,,,a,1,0.6492528999999649,,,,,,,,,,,,wm,f,18,2024_Apr_09_1000,mian,2021.2.3,59.90671326608967,
5f,1,1,f,l,"[0.2, 0.2]",,,,,,,,,,,,,,,,,,,,0,60,60,60,,,,,,,,,,,,,,,,,l,1,2.8891267999999855,,,,,,,,,,,,wm,f,18,2024_Apr_09_1000,mian,2021.2.3,59.90671326608967,
e7,1,2,e,l,"[-0.2, 0.2]",,,,,,,,,,,,,,,,,,,,0,61,61,61,,,,,,,,,,,,,,,,,l,1,0.5844961000000239,,,,,,,,,,,,wm,f,18,2024_Apr_09_1000,mian,2021.2.3,59.90671326608967,
f2,2,1,2.0,l,"[-0.2, -0.2]",,,,,,,,,,,,,,,,,,,,0,62,62,62,,,,,,,,,,,,,,,,,l,1,1.4536748000000443,,,,,,,,,,,,wm,f,18,2024_Apr_09_1000,mian,2021.2.3,59.90671326608967,
G9,2,2,9.0,a,"[0.2, -0.2]",,,,,,,,,,,,,,,,,,,,0,63,63,63,,,,,,,,,,,,,,,,,a,1,2.0300647000000254,,,,,,,,,,,,wm,f,18,2024_Apr_09_1000,mian,2021.2.3,59.90671326608967,
7g,1,1,g,l,"[0.2, 0.2]",,,,,,,,,,,,,,,,,,,,0,64,64,64,,,,,,,,,,,,,,,,,l,1,1.1475622000000385,,,,,,,,,,,,wm,f,18,2024_Apr_09_1000,mian,2021.2.3,59.90671326608967,
F8,1,2,F,a,"[-0.2, 0.2]",,,,,,,,,,,,,,,,,,,,0,65,65,65,,,,,,,,,,,,,,,,,a,1,0.6118500999999696,,,,,,,,,,,,wm,f,18,2024_Apr_09_1000,mian,2021.2.3,59.90671326608967,
A7,2,1,7.0,a,"[-0.2, -0.2]",,,,,,,,,,,,,,,,,,,,0,66,66,66,,,,,,,,,,,,,,,,,a,1,0.8133082000000513,,,,,,,,,,,,wm,f,18,2024_Apr_09_1000,mian,2021.2.3,59.90671326608967,
4G,2,2,4.0,l,"[0.2, -0.2]",,,,,,,,,,,,,,,,,,,,0,67,67,67,,,,,,,,,,,,,,,,,l,1,0.6316626999999926,,,,,,,,,,,,wm,f,18,2024_Apr_09_1000,mian,2021.2.3,59.90671326608967,
g2,1,1,g,l,"[0.2, 0.2]",,,,,,,,,,,,,,,,,,,,0,68,68,68,,,,,,,,,,,,,,,,,l,1,1.446539400000006,,,,,,,,,,,,wm,f,18,2024_Apr_09_1000,mian,2021.2.3,59.90671326608967,
g4,1,2,g,l,"[-0.2, 0.2]",,,,,,,,,,,,,,,,,,,,0,69,69,69,,,,,,,,,,,,,,,,,l,1,0.6046775999999454,,,,,,,,,,,,wm,f,18,2024_Apr_09_1000,mian,2021.2.3,59.90671326608967,
7a,2,1,7.0,a,"[-0.2, -0.2]",,,,,,,,,,,,,,,,,,,,0,70,70,70,,,,,,,,,,,,,,,,,a,1,0.6770901999999523,,,,,,,,,,,,wm,f,18,2024_Apr_09_1000,mian,2021.2.3,59.90671326608967,
8e,2,2,8.0,l,"[0.2, -0.2]",,,,,,,,,,,,,,,,,,,,0,71,71,71,,,,,,,,,,,,,,,,,l,1,0.8318980000000238,,,,,,,,,,,,wm,f,18,2024_Apr_09_1000,mian,2021.2.3,59.90671326608967,
h4,1,1,h,l,"[0.2, 0.2]",,,,,,,,,,,,,,,,,,,,0,72,72,72,,,,,,,,,,,,,,,,,a,0,1.316572199999996,,,,,,,,,,,,wm,f,18,2024_Apr_09_1000,mian,2021.2.3,59.90671326608967,
G8,1,2,G,a,"[-0.2, 0.2]",,,,,,,,,,,,,,,,,,,,0,73,73,73,,,,,,,,,,,,,,,,,a,1,0.6269118000000162,,,,,,,,,,,,wm,f,18,2024_Apr_09_1000,mian,2021.2.3,59.90671326608967,
6F,2,1,6.0,l,"[-0.2, -0.2]",,,,,,,,,,,,,,,,,,,,0,74,74,74,,,,,,,,,,,,,,,,,l,1,1.950898299999949,,,,,,,,,,,,wm,f,18,2024_Apr_09_1000,mian,2021.2.3,59.90671326608967,
g5,2,2,5.0,a,"[0.2, -0.2]",,,,,,,,,,,,,,,,,,,,0,75,75,75,,,,,,,,,,,,,,,,,a,1,1.5469036999999162,,,,,,,,,,,,wm,f,18,2024_Apr_09_1000,mian,2021.2.3,59.90671326608967,
G5,1,1,G,a,"[0.2, 0.2]",,,,,,,,,,,,,,,,,,,,0,76,76,76,,,,,,,,,,,,,,,,,a,1,1.5673149000000421,,,,,,,,,,,,wm,f,18,2024_Apr_09_1000,mian,2021.2.3,59.90671326608967,
h5,1,2,h,l,"[-0.2, 0.2]",,,,,,,,,,,,,,,,,,,,0,77,77,77,,,,,,,,,,,,,,,,,l,1,0.9771816999999601,,,,,,,,,,,,wm,f,18,2024_Apr_09_1000,mian,2021.2.3,59.90671326608967,
9G,2,1,9.0,a,"[-0.2, -0.2]",,,,,,,,,,,,,,,,,,,,0,78,78,78,,,,,,,,,,,,,,,,,a,1,1.5846364000000221,,,,,,,,,,,,wm,f,18,2024_Apr_09_1000,mian,2021.2.3,59.90671326608967,
F3,2,2,3.0,a,"[0.2, -0.2]",,,,,,,,,,,,,,,,,,,,0,79,79,79,,,,,,,,,,,,,,,,,a,1,1.117055300000061,,,,,,,,,,,,wm,f,18,2024_Apr_09_1000,mian,2021.2.3,59.90671326608967,
,,,,,,0,0,pic/flanker6.png,pic/flanker2.png,a,l,,,,,,,,,,,,,,,,,,0,0,0,0,0,0,0,1,,,,,,,,,,,,426.7016391,None,425.5134546,426.7181284,None,0,孤单,l,1,1.6481095000000323,,wm,f,18,2024_Apr_09_1000,mian,2021.2.3,59.90671326608967,
,,,,,,1,0,pic/flanker5.png,pic/flanker3.png,a,l,,,,,,,,,,,,,,,,,,0,0,0,0,0,1,1,7,,,,,,,,,,,,431.73497419999995,None,430.551448,431.7516886,a,1,鲁莽,l,1,1.5905152999999927,1.2402530999999044,wm,f,18,2024_Apr_09_1000,mian,2021.2.3,59.90671326608967,
,,,,,,1,1,pic/flanker6.png,pic/flanker4.png,s,k,,,,,,,,,,,,,,,,,,0,0,0,0,0,2,2,6,,,,,,,,,,,,436.5349891,None,435.3518079,436.5514603,s,1,典雅,k,1,0.7731089000000111,0.8772722999999587,wm,f,18,2024_Apr_09_1000,mian,2021.2.3,59.90671326608967,
,,,,,,0,0,pic/flanker5.png,pic/flanker1.png,s,l,,,,,,,,,,,,,,,,,,0,0,0,0,0,3,3,3,,,,,,,,,,,,440.1184225,None,438.9349392,440.1352155,s,1,怀疑,l,1,1.0685969999999543,0.9420619999999644,wm,f,18,2024_Apr_09_1000,mian,2021.2.3,59.90671326608967,
,,,,,,0,1,pic/flanker6.png,pic/flanker2.png,a,k,,,,,,,,,,,,,,,,,,0,0,0,0,0,4,4,2,,,,,,,,,,,,444.1176165,None,442.93500620000003,444.1349198,a,1,卓越,k,1,1.1260896999999659,0.6181431999999631,wm,f,18,2024_Apr_09_1000,mian,2021.2.3,59.90671326608967,
,,,,,,0,1,pic/flanker5.png,pic/flanker1.png,s,k,,,,,,,,,,,,,,,,,,0,0,0,0,0,5,5,0,,,,,,,,,,,,447.7350531,None,446.5518441,447.7516354,s,1,富足,k,1,0.813246900000081,0.5201084999999921,wm,f,18,2024_Apr_09_1000,mian,2021.2.3,59.90671326608967,
,,,,,,1,0,pic/flanker6.png,pic/flanker4.png,s,l,,,,,,,,,,,,,,,,,,0,0,0,0,0,6,6,5,,,,,,,,,,,,451.10147839999996,None,449.9183026,451.11834259999995,s,1,沮丧,l,1,0.8369136000000026,1.0301602999999204,wm,f,18,2024_Apr_09_1000,mian,2021.2.3,59.90671326608967,
,,,,,,1,1,pic/flanker5.png,pic/flanker3.png,a,k,,,,,,,,,,,,,,,,,,0,0,0,0,0,7,7,4,,,,,,,,,,,,454.9683727,None,453.78501179999995,454.9850022,a,1,富丽,k,1,0.806284699999992,0.5648328000000902,wm,f,18,2024_Apr_09_1000,mian,2021.2.3,59.90671326608967,
,,,,,,,,,,,,,,,,,,,,,,,,,,,,,0,0,0,0,,,,,,,,,,,,,,,,,,,,,,,,,,,wm,f,18,2024_Apr_09_1000,mian,2021.2.3,59.90671326608967,
,,,,,,0,0,pic/flanker5.png,pic/flanker1.png,s,l,pic/AffRest1.png,,,,,,,,,,,,,,,,,,,,,,,,,0,0,0,0,0,0,0,3,,,,470.03493740000005,None,468.8481073,470.0516243,s,1,鲁莽,l,1,0.945720700000038,0.6508213000000751,wm,f,18,2024_Apr_09_1000,mian,2021.2.3,59.90671326608967,
,,,,,,1,0,pic/flanker5.png,pic/flanker3.png,a,l,pic/AffRest1.png,,,,,,,,,,,,,,,,,,,,,,,,,0,0,0,0,0,1,1,39,,,,473.6683649,None,472.48498249999994,473.68498029999995,a,1,损害,l,1,1.4643296000000419,0.4771114000000125,wm,f,18,2024_Apr_09_1000,mian,2021.2.3,59.90671326608967,
,,,,,,1,0,pic/flanker5.png,pic/flanker3.png,a,l,pic/AffRest1.png,,,,,,,,,,,,,,,,,,,,,,,,,0,0,0,0,0,2,2,55,,,,477.6350475,None,476.45163899999994,477.65165899999994,a,1,失意,l,1,1.0306540999999925,0.8258759999999938,wm,f,18,2024_Apr_09_1000,mian,2021.2.3,59.90671326608967,
,,,,,,1,1,pic/flanker6.png,pic/flanker4.png,s,k,pic/AffRest1.png,,,,,,,,,,,,,,,,,,,,,,,,,0,0,0,0,0,3,3,30,,,,481.50159779999996,None,480.3181977,481.51820189999995,s,1,瑰丽,k,1,0.5603554000000486,0.49413110000000415,wm,f,18,2024_Apr_09_1000,mian,2021.2.3,59.90671326608967,
,,,,,,1,1,pic/flanker5.png,pic/flanker3.png,a,k,pic/AffRest1.png,,,,,,,,,,,,,,,,,,,,,,,,,0,0,0,0,0,4,4,44,,,,484.56827889999994,None,483.38512710000003,484.58504680000004,None,0,雄厚,k,1,1.03858809999997,,wm,f,18,2024_Apr_09_1000,mian,2021.2.3,59.90671326608967,
,,,,,,1,0,pic/flanker6.png,pic/flanker4.png,s,l,pic/AffRest1.png,,,,,,,,,,,,,,,,,,,,,,,,,0,0,0,0,0,5,5,53,,,,488.90188729999994,None,487.7184116,488.9185667,s,1,罚款,l,1,0.77960070000006,0.516335300000037,wm,f,18,2024_Apr_09_1000,mian,2021.2.3,59.90671326608967,
,,,,,,1,0,pic/flanker6.png,pic/flanker4.png,s,l,pic/AffRest1.png,,,,,,,,,,,,,,,,,,,,,,,,,0,0,0,0,0,6,6,13,,,,492.21841950000004,None,491.0348843,492.235024,s,1,烦恼,l,1,0.7324297000000115,0.446722799999975,wm,f,18,2024_Apr_09_1000,mian,2021.2.3,59.90671326608967,
,,,,,,0,1,pic/flanker5.png,pic/flanker1.png,s,k,pic/AffRest1.png,,,,,,,,,,,,,,,,,,,,,,,,,0,0,0,0,0,7,7,64,,,,495.351913,None,494.1683621,495.36853920000004,s,1,精致,k,1,0.5113313999999036,0.421616599999993,wm,f,18,2024_Apr_09_1000,mian,2021.2.3,59.90671326608967,
,,,,,,0,1,pic/flanker5.png,pic/flanker1.png,s,k,pic/AffRest1.png,,,,,,,,,,,,,,,,,,,,,,,,,0,0,0,0,0,8,8,72,,,,498.2350165,None,497.05169589999997,498.25171889999996,s,1,廉洁,k,1,1.0147571999999627,0.42820430000006127,wm,f,18,2024_Apr_09_1000,mian,2021.2.3,59.90671326608967,
,,,,,,0,0,pic/flanker5.png,pic/flanker1.png,s,l,pic/AffRest1.png,,,,,,,,,,,,,,,,,,,,,,,,,0,0,0,0,0,9,9,35,,,,501.65174210000004,None,500.4684117,501.6684214,s,1,郁闷,l,1,0.5403404999999566,0.407780799999955,wm,f,18,2024_Apr_09_1000,mian,2021.2.3,59.90671326608967,
,,,,,,1,0,pic/flanker6.png,pic/flanker4.png,s,l,pic/AffRest1.png,,,,,,,,,,,,,,,,,,,,,,,,,0,0,0,0,0,10,10,29,,,,504.5850886,None,503.4016926,504.60174969999997,s,1,自卑,l,1,0.6399413999999979,0.45302809999998317,wm,f,18,2024_Apr_09_1000,mian,2021.2.3,59.90671326608967,
,,,,,,0,0,pic/flanker5.png,pic/flanker1.png,s,l,pic/AffRest1.png,,,,,,,,,,,,,,,,,,,,,,,,,0,0,0,0,0,11,11,11,,,,507.5350278,None,506.351743,507.55176739999996,s,1,穷苦,l,1,0.6231586999999763,0.38440960000002633,wm,f,18,2024_Apr_09_1000,mian,2021.2.3,59.90671326608967,
,,,,,,1,1,pic/flanker6.png,pic/flanker4.png,s,k,pic/AffRest1.png,,,,,,,,,,,,,,,,,,,,,,,,,0,0,0,0,0,12,12,62,,,,510.60150919999995,None,509.4178129,510.61825530000004,s,1,丰满,k,1,0.6828848000000107,0.4545663000000104,wm,f,18,2024_Apr_09_1000,mian,2021.2.3,59.90671326608967,
,,,,,,0,1,pic/flanker5.png,pic/flanker1.png,s,k,pic/AffRest1.png,,,,,,,,,,,,,,,,,,,,,,,,,0,0,0,0,0,13,13,48,,,,513.6348363,None,512.4514824,513.6514795999999,s,1,有利,k,1,0.7151278000000048,0.41018659999997453,wm,f,18,2024_Apr_09_1000,mian,2021.2.3,59.90671326608967,
,,,,,,0,1,pic/flanker5.png,pic/flanker1.png,s,k,pic/AffRest1.png,,,,,,,,,,,,,,,,,,,,,,,,,0,0,0,0,0,14,14,16,,,,516.7348130999999,None,515.5516528,516.7514615,s,1,富丽,k,1,0.5549852000000328,0.3724493000000848,wm,f,18,2024_Apr_09_1000,mian,2021.2.3,59.90671326608967,
,,,,,,0,1,pic/flanker6.png,pic/flanker2.png,a,k,pic/AffRest1.png,,,,,,,,,,,,,,,,,,,,,,,,,0,0,0,0,0,15,15,10,,,,519.5018155,None,518.3184785000001,519.5185227,a,1,俊秀,k,1,0.5995742000000064,0.5500283999999738,wm,f,18,2024_Apr_09_1000,mian,2021.2.3,59.90671326608967,
,,,,,,0,0,pic/flanker5.png,pic/flanker1.png,s,l,pic/AffRest1.png,,,,,,,,,,,,,,,,,,,,,,,,,0,0,0,0,0,16,16,59,,,,522.6520032999999,None,521.4681708999999,522.6685138,s,1,忧虑,l,1,0.5746445000000904,0.3605255999999599,wm,f,18,2024_Apr_09_1000,mian,2021.2.3,59.90671326608967,
,,,,,,1,1,pic/flanker5.png,pic/flanker3.png,a,k,pic/AffRest1.png,,,,,,,,,,,,,,,,,,,,,,,,,0,0,0,0,0,17,17,12,,,,525.4518863000001,None,524.2681620000001,525.4685704000001,a,1,生动,k,1,0.5429169999999885,0.6316958999999542,wm,f,18,2024_Apr_09_1000,mian,2021.2.3,59.90671326608967,
,,,,,,0,1,pic/flanker5.png,pic/flanker1.png,s,k,pic/AffRest1.png,,,,,,,,,,,,,,,,,,,,,,,,,0,0,0,0,0,18,18,56,,,,528.701701,None,527.5181485,528.7183295,s,1,公平,k,1,0.9248397000000068,0.33591149999995196,wm,f,18,2024_Apr_09_1000,mian,2021.2.3,59.90671326608967,
,,,,,,0,0,pic/flanker6.png,pic/flanker2.png,a,l,pic/AffRest1.png,,,,,,,,,,,,,,,,,,,,,,,,,0,0,0,0,0,19,19,73,,,,531.9518106999999,None,530.7683291000001,531.9684256999999,a,1,怀疑,l,1,0.5320913000000473,0.41850690000001123,wm,f,18,2024_Apr_09_1000,mian,2021.2.3,59.90671326608967,
,,,,,,0,0,pic/flanker5.png,pic/flanker1.png,s,l,pic/AffRest1.png,,,,,,,,,,,,,,,,,,,,,,,,,0,0,0,0,0,20,20,43,,,,534.8184011000001,None,533.6350434999999,534.8350799,s,1,伤心,l,1,0.7209970000000112,0.48989719999997305,wm,f,18,2024_Apr_09_1000,mian,2021.2.3,59.90671326608967,
,,,,,,1,1,pic/flanker5.png,pic/flanker3.png,a,k,pic/AffRest1.png,,,,,,,,,,,,,,,,,,,,,,,,,0,0,0,0,0,21,21,28,,,,537.9351976,None,536.7517834,537.9518323,a,1,豪放,k,1,0.9271754999999757,0.7592157999999927,wm,f,18,2024_Apr_09_1000,mian,2021.2.3,59.90671326608967,
,,,,,,1,1,pic/flanker6.png,pic/flanker4.png,s,k,pic/AffRest1.png,,,,,,,,,,,,,,,,,,,,,,,,,0,0,0,0,0,22,22,70,,,,541.5019098,None,540.3184087,541.518562,s,1,圣洁,k,1,0.5813371000000416,0.4415521000000808,wm,f,18,2024_Apr_09_1000,mian,2021.2.3,59.90671326608967,
,,,,,,1,1,pic/flanker6.png,pic/flanker4.png,s,k,pic/AffRest1.png,,,,,,,,,,,,,,,,,,,,,,,,,0,0,0,0,0,23,23,38,,,,544.4518336000001,None,543.2685689,544.4684930999999,s,1,永恒,k,1,0.6351588999999649,0.4845684000000574,wm,f,18,2024_Apr_09_1000,mian,2021.2.3,59.90671326608967,
,,,,,,1,1,pic/flanker5.png,pic/flanker3.png,a,k,pic/AffRest1.png,,,,,,,,,,,,,,,,,,,,,,,,,0,0,0,0,0,24,24,52,,,,547.5017449,None,546.3183974000001,547.5185033,a,1,清秀,k,1,0.5704027000000451,0.47403220000001056,wm,f,18,2024_Apr_09_1000,mian,2021.2.3,59.90671326608967,
,,,,,,0,0,pic/flanker6.png,pic/flanker2.png,a,l,pic/AffRest1.png,,,,,,,,,,,,,,,,,,,,,,,,,0,0,0,0,0,25,25,25,,,,550.5019202999999,None,549.3183176,550.5186047,a,1,浪费,l,1,0.5049684000000525,0.44855119999999715,wm,f,18,2024_Apr_09_1000,mian,2021.2.3,59.90671326608967,
,,,,,,0,1,pic/flanker6.png,pic/flanker2.png,a,k,pic/AffRest1.png,,,,,,,,,,,,,,,,,,,,,,,,,0,0,0,0,0,26,26,74,,,,553.4184484,None,552.2350199,553.4351491,a,1,爽朗,k,1,0.5521213000000671,0.3423530000000028,wm,f,18,2024_Apr_09_1000,mian,2021.2.3,59.90671326608967,
,,,,,,0,1,pic/flanker5.png,pic/flanker1.png,s,k,pic/AffRest1.png,,,,,,,,,,,,,,,,,,,,,,,,,0,0,0,0,0,27,27,8,,,,556.1518234,None,554.9684373,556.1684906,s,1,享受,l,0,0.8850269000000708,0.3540851999999859,wm,f,18,2024_Apr_09_1000,mian,2021.2.3,59.90671326608967,
,,,,,,0,0,pic/flanker6.png,pic/flanker2.png,a,l,pic/AffRest1.png,,,,,,,,,,,,,,,,,,,,,,,,,0,0,0,0,0,28,28,17,,,,559.3352159000001,None,558.1517087,559.3517807999999,a,1,杂乱,l,1,0.9500875999999607,0.36486360000003515,wm,f,18,2024_Apr_09_1000,mian,2021.2.3,59.90671326608967,
,,,,,,1,1,pic/flanker6.png,pic/flanker4.png,s,k,pic/AffRest1.png,,,,,,,,,,,,,,,,,,,,,,,,,0,0,0,0,0,29,29,46,,,,562.6350806999999,None,561.4517582000001,562.6517381000001,s,1,吉祥,k,1,0.6865273999999317,0.4573113999999805,wm,f,18,2024_Apr_09_1000,mian,2021.2.3,59.90671326608967,
,,,,,,1,0,pic/flanker6.png,pic/flanker4.png,s,l,pic/AffRest1.png,,,,,,,,,,,,,,,,,,,,,,,,,0,0,0,0,0,30,30,37,,,,565.7017529,None,564.5184006,565.7185586999999,s,1,争吵,l,1,0.7630096999999978,0.4046541000000161,wm,f,18,2024_Apr_09_1000,mian,2021.2.3,59.90671326608967,
,,,,,,1,1,pic/flanker5.png,pic/flanker3.png,a,k,pic/AffRest1.png,,,,,,,,,,,,,,,,,,,,,,,,,0,0,0,0,0,31,31,68,,,,568.7185608,None,567.5345514999999,568.7351844,a,1,鲜艳,k,1,0.6098730999999589,0.4381497000000536,wm,f,18,2024_Apr_09_1000,mian,2021.2.3,59.90671326608967,
,,,,,,0,1,pic/flanker5.png,pic/flanker1.png,s,k,pic/AffRest1.png,,,,,,,,,,,,,,,,,,,,,,,,,0,0,0,0,0,32,32,0,,,,571.7016621,None,570.5185670999999,571.7185149,s,1,充裕,k,1,0.6256435999999894,0.4158151999999973,wm,f,18,2024_Apr_09_1000,mian,2021.2.3,59.90671326608967,
,,,,,,1,1,pic/flanker5.png,pic/flanker3.png,a,k,pic/AffRest1.png,,,,,,,,,,,,,,,,,,,,,,,,,0,0,0,0,0,33,33,60,,,,574.5853784999999,None,573.4017134999999,574.6018085000001,a,1,舒畅,k,1,0.5852529000000004,0.4580532999999605,wm,f,18,2024_Apr_09_1000,mian,2021.2.3,59.90671326608967,
,,,,,,0,0,pic/flanker5.png,pic/flanker1.png,s,l,pic/AffRest1.png,,,,,,,,,,,,,,,,,,,,,,,,,0,0,0,0,0,34,34,51,,,,577.5686143999999,None,576.3851921,577.5853043,s,1,轻率,l,1,0.8645246000000952,0.36267820000000484,wm,f,18,2024_Apr_09_1000,mian,2021.2.3,59.90671326608967,
,,,,,,0,0,pic/flanker6.png,pic/flanker2.png,a,l,pic/AffRest1.png,,,,,,,,,,,,,,,,,,,,,,,,,0,0,0,0,0,35,35,49,,,,580.7187148,None,579.5350799,580.7352837999999,a,1,处罚,l,1,0.6388933000000634,0.30088339999997515,wm,f,18,2024_Apr_09_1000,mian,2021.2.3,59.90671326608967,
,,,,,,0,0,pic/flanker5.png,pic/flanker1.png,s,l,pic/AffRest1.png,,,,,,,,,,,,,,,,,,,,,,,,,0,0,0,0,0,36,36,67,,,,583.6351867000001,None,582.4517627,583.6517816999999,s,1,心慌,l,1,0.7357094999999845,0.3360949000000346,wm,f,18,2024_Apr_09_1000,mian,2021.2.3,59.90671326608967,
,,,,,,1,1,pic/flanker6.png,pic/flanker4.png,s,k,pic/AffRest1.png,,,,,,,,,,,,,,,,,,,,,,,,,0,0,0,0,0,37,37,78,,,,586.6519796,None,585.4685236,586.6686592000001,s,1,振作,k,1,0.7225950000000694,0.5618021999999883,wm,f,18,2024_Apr_09_1000,mian,2021.2.3,59.90671326608967,
,,,,,,1,1,pic/flanker5.png,pic/flanker3.png,a,k,pic/AffRest1.png,,,,,,,,,,,,,,,,,,,,,,,,,0,0,0,0,0,38,38,4,,,,590.0179381999999,None,588.8350922,590.0344772999999,a,1,优雅,k,1,0.7525244000000839,0.5002539999999271,wm,f,18,2024_Apr_09_1000,mian,2021.2.3,59.90671326608967,
,,,,,,1,0,pic/flanker6.png,pic/flanker4.png,s,l,pic/AffRest1.png,,,,,,,,,,,,,,,,,,,,,,,,,0,0,0,0,0,39,39,77,,,,593.1350030000001,None,591.9510891,593.1516764,s,1,悲观,l,1,0.49053040000001147,0.4096413999999413,wm,f,18,2024_Apr_09_1000,mian,2021.2.3,59.90671326608967,
,,,,,,0,1,pic/flanker6.png,pic/flanker2.png,a,k,pic/AffRest1.png,,,,,,,,,,,,,,,,,,,,,,,,,0,0,0,0,0,40,40,66,,,,595.9013041000001,None,594.7178071000001,595.9180475000001,a,1,典雅,k,1,0.48872159999996256,0.3608275000000276,wm,f,18,2024_Apr_09_1000,mian,2021.2.3,59.90671326608967,
,,,,,,0,0,pic/flanker5.png,pic/flanker1.png,s,l,pic/AffRest1.png,,,,,,,,,,,,,,,,,,,,,,,,,0,0,0,0,0,41,41,75,,,,598.8019896000001,None,597.6183223999999,598.8186525000001,s,1,厌恶,l,1,0.4653295000000526,0.3029616999999689,wm,f,18,2024_Apr_09_1000,mian,2021.2.3,59.90671326608967,
,,,,,,0,1,pic/flanker5.png,pic/flanker1.png,s,k,pic/AffRest1.png,,,,,,,,,,,,,,,,,,,,,,,,,0,0,0,0,0,42,42,24,,,,601.6519814999999,None,600.4685024,601.6686503999999,s,1,畅销,k,1,0.5836660999999594,0.32409610000001976,wm,f,18,2024_Apr_09_1000,mian,2021.2.3,59.90671326608967,
,,,,,,1,0,pic/flanker6.png,pic/flanker4.png,s,l,pic/AffRest1.png,,,,,,,,,,,,,,,,,,,,,,,,,0,0,0,0,0,43,43,61,,,,604.5846142999999,None,603.4018586,604.6019323,s,1,逃避,l,1,0.4809897999999748,0.39200180000000273,wm,f,18,2024_Apr_09_1000,mian,2021.2.3,59.90671326608967,
,,,,,,1,0,pic/flanker6.png,pic/flanker4.png,s,l,pic/AffRest1.png,,,,,,,,,,,,,,,,,,,,,,,,,0,0,0,0,0,44,44,69,,,,607.4352696999999,None,606.2519768,607.4518361,s,1,胡涂,l,1,0.9930906000000732,0.4438945000000558,wm,f,18,2024_Apr_09_1000,mian,2021.2.3,59.90671326608967,
,,,,,,0,0,pic/flanker6.png,pic/flanker2.png,a,l,pic/AffRest1.png,,,,,,,,,,,,,,,,,,,,,,,,,0,0,0,0,0,45,45,9,,,,610.8850854,None,609.7018836,610.9018209999999,a,1,慌忙,l,1,0.9441084000000046,0.4163391000000729,wm,f,18,2024_Apr_09_1000,mian,2021.2.3,59.90671326608967,
,,,,,,1,1,pic/flanker6.png,pic/flanker4.png,s,k,pic/AffRest1.png,,,,,,,,,,,,,,,,,,,,,,,,,0,0,0,0,0,46,46,22,,,,614.2853660999999,None,613.1017569999999,614.3020317999999,s,1,热切,k,1,0.5685926999999538,0.39468380000005254,wm,f,18,2024_Apr_09_1000,mian,2021.2.3,59.90671326608967,
,,,,,,1,0,pic/flanker5.png,pic/flanker3.png,a,l,pic/AffRest1.png,,,,,,,,,,,,,,,,,,,,,,,,,0,0,0,0,0,47,47,23,,,,617.1353641000001,None,615.9518796,617.1520614000001,a,1,假冒,l,1,1.8038208999998915,0.6781164000000217,wm,f,18,2024_Apr_09_1000,mian,2021.2.3,59.90671326608967,
,,,,,,0,0,pic/flanker6.png,pic/flanker2.png,a,l,pic/AffRest1.png,,,,,,,,,,,,,,,,,,,,,,,,,0,0,0,0,0,48,48,41,,,,621.6852572,None,620.5018363000002,621.7018939,a,1,禁止,l,1,0.7764039999999568,0.5058965000000626,wm,f,18,2024_Apr_09_1000,mian,2021.2.3,59.90671326608967,
,,,,,,0,0,pic/flanker6.png,pic/flanker2.png,a,l,pic/AffRest1.png,,,,,,,,,,,,,,,,,,,,,,,,,0,0,0,0,0,49,49,65,,,,624.8186357,None,623.6351481000002,624.8353111000001,a,1,懒惰,l,1,0.5985717999999451,0.407470099999955,wm,f,18,2024_Apr_09_1000,mian,2021.2.3,59.90671326608967,
,,,,,,0,1,pic/flanker6.png,pic/flanker2.png,a,k,pic/AffRest1.png,,,,,,,,,,,,,,,,,,,,,,,,,0,0,0,0,0,50,50,18,,,,627.7852480000001,None,626.6019887,627.8018982000001,a,1,如愿,k,1,0.6802190000000792,0.36104520000003504,wm,f,18,2024_Apr_09_1000,mian,2021.2.3,59.90671326608967,
,,,,,,1,1,pic/flanker6.png,pic/flanker4.png,s,k,pic/AffRest1.png,,,,,,,,,,,,,,,,,,,,,,,,,0,0,0,0,0,51,51,54,,,,630.6853506,None,629.5017400000002,630.7020453,s,1,奉献,k,1,0.6195617999999286,0.3816549999999097,wm,f,18,2024_Apr_09_1000,mian,2021.2.3,59.90671326608967,
,,,,,,0,0,pic/flanker6.png,pic/flanker2.png,a,l,pic/AffRest1.png,,,,,,,,,,,,,,,,,,,,,,,,,0,0,0,0,0,52,52,57,,,,633.7352167000001,None,632.5519096,633.751857,a,1,嘲笑,l,1,0.5332232000000658,0.34469750000016575,wm,f,18,2024_Apr_09_1000,mian,2021.2.3,59.90671326608967,
,,,,,,1,1,pic/flanker5.png,pic/flanker3.png,a,k,pic/AffRest1.png,,,,,,,,,,,,,,,,,,,,,,,,,0,0,0,0,0,53,53,76,,,,636.6685993000001,None,635.4854596,636.68527,a,1,赞成,k,1,0.6131246999998439,0.47253840000007585,wm,f,18,2024_Apr_09_1000,mian,2021.2.3,59.90671326608967,
,,,,,,1,0,pic/flanker5.png,pic/flanker3.png,a,l,pic/AffRest1.png,,,,,,,,,,,,,,,,,,,,,,,,,0,0,0,0,0,54,54,63,,,,639.6185464,None,638.4350632000001,639.6352572000001,a,1,黑暗,l,1,0.5444514999999228,0.42225759999996626,wm,f,18,2024_Apr_09_1000,mian,2021.2.3,59.90671326608967,
,,,,,,1,0,pic/flanker5.png,pic/flanker3.png,a,l,pic/AffRest1.png,,,,,,,,,,,,,,,,,,,,,,,,,0,0,0,0,0,55,55,47,,,,642.5852923,None,641.4018607,642.6018958,a,1,丢失,l,1,0.6425526999998965,0.40570530000013605,wm,f,18,2024_Apr_09_1000,mian,2021.2.3,59.90671326608967,
,,,,,,0,1,pic/flanker5.png,pic/flanker1.png,s,k,pic/AffRest1.png,,,,,,,,,,,,,,,,,,,,,,,,,0,0,0,0,0,56,56,40,,,,645.5852477000001,None,644.4018694000001,645.6019450000001,s,1,旺盛,k,1,0.7990714000000025,0.42721830000004957,wm,f,18,2024_Apr_09_1000,mian,2021.2.3,59.90671326608967,
,,,,,,1,0,pic/flanker5.png,pic/flanker3.png,a,l,pic/AffRest1.png,,,,,,,,,,,,,,,,,,,,,,,,,0,0,0,0,0,57,57,15,,,,648.7020047999999,None,647.5185524000001,648.7186649,a,1,落后,l,1,0.5671333999998751,0.36454920000005586,wm,f,18,2024_Apr_09_1000,mian,2021.2.3,59.90671326608967,
,,,,,,1,0,pic/flanker6.png,pic/flanker4.png,s,l,pic/AffRest1.png,,,,,,,,,,,,,,,,,,,,,,,,,0,0,0,0,0,58,58,45,,,,651.6519771000001,None,650.468476,651.6685023,s,1,冷笑,l,1,0.5932081000000835,0.3535850999999184,wm,f,18,2024_Apr_09_1000,mian,2021.2.3,59.90671326608967,
,,,,,,1,1,pic/flanker6.png,pic/flanker4.png,s,k,pic/AffRest1.png,,,,,,,,,,,,,,,,,,,,,,,,,0,0,0,0,0,59,59,6,,,,654.5853500000001,None,653.4019022,654.6021435,s,1,前进,k,1,0.5464774999998099,0.39552690000004986,wm,f,18,2024_Apr_09_1000,mian,2021.2.3,59.90671326608967,
,,,,,,1,0,pic/flanker5.png,pic/flanker3.png,a,l,pic/AffRest1.png,,,,,,,,,,,,,,,,,,,,,,,,,0,0,0,0,0,60,60,71,,,,657.4019354,None,656.2185502,657.4186408,a,1,撒谎,l,1,0.4724094000000605,0.5042416999999659,wm,f,18,2024_Apr_09_1000,mian,2021.2.3,59.90671326608967,
,,,,,,1,0,pic/flanker5.png,pic/flanker3.png,a,l,pic/AffRest1.png,,,,,,,,,,,,,,,,,,,,,,,,,0,0,0,0,0,61,61,31,,,,660.4020138000001,None,659.2186135,660.4186357000001,a,1,闷热,l,1,0.9632156000000123,0.39201619999994364,wm,f,18,2024_Apr_09_1000,mian,2021.2.3,59.90671326608967,
,,,,,,0,1,pic/flanker5.png,pic/flanker1.png,s,k,pic/AffRest1.png,,,,,,,,,,,,,,,,,,,,,,,,,0,0,0,0,0,62,62,32,,,,663.6020319000002,None,662.4187872,663.6187295,s,1,珍藏,k,1,0.5064899999999852,0.3535882999999558,wm,f,18,2024_Apr_09_1000,mian,2021.2.3,59.90671326608967,
,,,,,,0,0,pic/flanker5.png,pic/flanker1.png,s,l,pic/AffRest1.png,,,,,,,,,,,,,,,,,,,,,,,,,0,0,0,0,0,63,63,19,,,,666.3020795,None,665.1186213999999,666.3187086,s,1,缺乏,l,1,0.7723051999998916,0.35309910000000855,wm,f,18,2024_Apr_09_1000,mian,2021.2.3,59.90671326608967,
,,,,,,0,1,pic/flanker6.png,pic/flanker2.png,a,k,pic/AffRest1.png,,,,,,,,,,,,,,,,,,,,,,,,,0,0,0,0,0,64,64,34,,,,669.3354128000001,None,668.1518578,669.3520478,a,1,卓越,k,1,0.5092804999999316,0.33975680000003194,wm,f,18,2024_Apr_09_1000,mian,2021.2.3,59.90671326608967,
,,,,,,1,1,pic/flanker6.png,pic/flanker4.png,s,k,pic/AffRest1.png,,,,,,,,,,,,,,,,,,,,,,,,,0,0,0,0,0,65,65,14,,,,672.0686166,None,670.8852713000001,672.0853469000001,s,1,留恋,k,1,2.146853599999986,0.42067760000009,wm,f,18,2024_Apr_09_1000,mian,2021.2.3,59.90671326608967,
,,,,,,0,0,pic/flanker5.png,pic/flanker1.png,s,l,pic/AffRest1.png,,,,,,,,,,,,,,,,,,,,,,,,,0,0,0,0,0,66,66,27,,,,676.6686127,None,675.4856414000001,676.6853438,s,1,排斥,l,1,0.5742076999999881,0.41748710000001665,wm,f,18,2024_Apr_09_1000,mian,2021.2.3,59.90671326608967,
,,,,,,1,1,pic/flanker5.png,pic/flanker3.png,a,k,pic/AffRest1.png,,,,,,,,,,,,,,,,,,,,,,,,,0,0,0,0,0,67,67,36,,,,679.7186688000002,None,678.5352158000001,679.7352758,a,1,诚恳,k,1,0.5804551999999603,0.7634010000001581,wm,f,18,2024_Apr_09_1000,mian,2021.2.3,59.90671326608967,
,,,,,,0,1,pic/flanker6.png,pic/flanker2.png,a,k,pic/AffRest1.png,,,,,,,,,,,,,,,,,,,,,,,,,0,0,0,0,0,68,68,26,,,,682.9187568,None,681.7354214,682.9354226,a,1,羡慕,k,1,0.7286589999998796,0.3706431000000521,wm,f,18,2024_Apr_09_1000,mian,2021.2.3,59.90671326608967,
,,,,,,0,0,pic/flanker6.png,pic/flanker2.png,a,l,pic/AffRest1.png,,,,,,,,,,,,,,,,,,,,,,,,,0,0,0,0,0,69,69,1,,,,686.102077,None,684.9187542,686.1188068000001,a,1,别扭,l,1,0.5513593000000583,0.4073978999999781,wm,f,18,2024_Apr_09_1000,mian,2021.2.3,59.90671326608967,
,,,,,,1,0,pic/flanker6.png,pic/flanker4.png,s,l,pic/AffRest1.png,,,,,,,,,,,,,,,,,,,,,,,,,0,0,0,0,0,70,70,21,,,,688.9852518,None,687.8020535,689.0018634,s,1,沮丧,l,1,0.5853783999998541,0.3650654000000486,wm,f,18,2024_Apr_09_1000,mian,2021.2.3,59.90671326608967,
,,,,,,0,0,pic/flanker6.png,pic/flanker2.png,a,l,pic/AffRest1.png,,,,,,,,,,,,,,,,,,,,,,,,,0,0,0,0,0,71,71,33,,,,691.8853631,None,690.7020603000001,691.9020546000002,a,1,消沉,l,1,0.8161660000000666,0.37814140000000407,wm,f,18,2024_Apr_09_1000,mian,2021.2.3,59.90671326608967,
,,,,,,0,1,pic/flanker6.png,pic/flanker2.png,a,k,pic/AffRest1.png,,,,,,,,,,,,,,,,,,,,,,,,,0,0,0,0,0,72,72,58,,,,695.0519366000001,None,693.8687272,695.0686303,a,1,顽强,k,1,0.7781367000000046,0.3133048999998209,wm,f,18,2024_Apr_09_1000,mian,2021.2.3,59.90671326608967,
,,,,,,1,0,pic/flanker5.png,pic/flanker3.png,a,l,pic/AffRest1.png,,,,,,,,,,,,,,,,,,,,,,,,,0,0,0,0,0,73,73,7,,,,698.0020945000001,None,696.8187488000001,698.0188084000001,a,1,孤单,l,1,0.681856899999957,1.0743870999999672,wm,f,18,2024_Apr_09_1000,mian,2021.2.3,59.90671326608967,
,,,,,,1,0,pic/flanker6.png,pic/flanker4.png,s,l,pic/AffRest1.png,,,,,,,,,,,,,,,,,,,,,,,,,0,0,0,0,0,74,74,5,,,,701.7853360000001,None,700.6020662000001,701.8021312000001,s,1,焦躁,l,1,0.8788241999998263,0.4962173999999777,wm,f,18,2024_Apr_09_1000,mian,2021.2.3,59.90671326608967,
,,,,,,1,0,pic/flanker5.png,pic/flanker3.png,a,l,pic/AffRest1.png,,,,,,,,,,,,,,,,,,,,,,,,,0,0,0,0,0,75,75,79,,,,705.0188105,None,703.8354585,705.0354528,a,1,堵塞,l,1,0.7165013999999701,0.3887523999999303,wm,f,18,2024_Apr_09_1000,mian,2021.2.3,59.90671326608967,
,,,,,,1,1,pic/flanker5.png,pic/flanker3.png,a,k,pic/AffRest1.png,,,,,,,,,,,,,,,,,,,,,,,,,0,0,0,0,0,76,76,20,,,,708.1519683000001,None,706.9687785000001,708.1686606000001,a,1,秀丽,k,1,0.6538567000000057,0.7717430999998669,wm,f,18,2024_Apr_09_1000,mian,2021.2.3,59.90671326608967,
,,,,,,0,1,pic/flanker6.png,pic/flanker2.png,a,k,pic/AffRest1.png,,,,,,,,,,,,,,,,,,,,,,,,,0,0,0,0,0,77,77,50,,,,711.6350649000001,None,710.4519660000001,711.6517611000002,a,1,富足,k,1,0.5894934999998895,0.35735639999984414,wm,f,18,2024_Apr_09_1000,mian,2021.2.3,59.90671326608967,
,,,,,,0,1,pic/flanker6.png,pic/flanker2.png,a,k,pic/AffRest1.png,,,,,,,,,,,,,,,,,,,,,,,,,0,0,0,0,0,78,78,42,,,,714.5854815,None,713.4015639000002,714.6015153000001,a,1,敬佩,k,1,0.6098962999999458,0.353215199999795,wm,f,18,2024_Apr_09_1000,mian,2021.2.3,59.90671326608967,
,,,,,,0,1,pic/flanker6.png,pic/flanker2.png,a,k,pic/AffRest1.png,,,,,,,,,,,,,,,,,,,,,,,,,0,0,0,0,0,79,79,2,,,,717.4354797000001,None,716.2521432000001,717.4516094,a,1,正直,k,1,0.5627781999999115,0.31299939999985327,wm,f,18,2024_Apr_09_1000,mian,2021.2.3,59.90671326608967,
,,,,,,,,,,,,pic/AffRest1.png,,,,,,,,,,,,,,,,,,,,,,,,,0,0,0,0,,,,,,,,,,,,,,,,,,,wm,f,18,2024_Apr_09_1000,mian,2021.2.3,59.90671326608967,
,,,,,,1,1,pic/flanker6.png,pic/flanker4.png,s,k,pic/AffRest2.png,,,,,,,,,,,,,,,,,,,,,,,,,0,1,1,1,0,0,0,78,,,,729.4184447,None,728.2308173000001,729.4351933,s,1,热切,k,1,0.5831281000000672,0.4350615000000744,wm,f,18,2024_Apr_09_1000,mian,2021.2.3,59.90671326608967,
,,,,,,0,1,pic/flanker6.png,pic/flanker2.png,a,k,pic/AffRest2.png,,,,,,,,,,,,,,,,,,,,,,,,,0,1,1,1,0,1,1,2,,,,732.3355211,None,731.1518708000001,732.3521496000001,a,1,舒畅,k,1,0.4619007999999667,0.2944596999998339,wm,f,18,2024_Apr_09_1000,mian,2021.2.3,59.90671326608967,
,,,,,,0,1,pic/flanker6.png,pic/flanker2.png,a,k,pic/AffRest2.png,,,,,,,,,,,,,,,,,,,,,,,,,0,1,1,1,0,2,2,58,,,,735.1188508,None,733.9354401,735.1354703,a,1,公平,k,1,0.4844176999999945,0.3045887999999195,wm,f,18,2024_Apr_09_1000,mian,2021.2.3,59.90671326608967,
,,,,,,1,0,pic/flanker6.png,pic/flanker4.png,s,l,pic/AffRest2.png,,,,,,,,,,,,,,,,,,,,,,,,,0,1,1,1,0,3,3,5,,,,737.9855279000001,None,736.8017836000001,738.0020763,s,1,罚款,l,1,0.5114896000000044,0.3548921999999948,wm,f,18,2024_Apr_09_1000,mian,2021.2.3,59.90671326608967,
,,,,,,1,1,pic/flanker5.png,pic/flanker3.png,a,k,pic/AffRest2.png,,,,,,,,,,,,,,,,,,,,,,,,,0,1,1,1,0,4,4,60,,,,740.8015593,None,739.6187093000001,740.8188001000001,a,1,旺盛,k,1,0.48999559999992925,0.39331960000004074,wm,f,18,2024_Apr_09_1000,mian,2021.2.3,59.90671326608967,
,,,,,,0,1,pic/flanker5.png,pic/flanker1.png,s,k,pic/AffRest2.png,,,,,,,,,,,,,,,,,,,,,,,,,0,1,1,1,0,5,5,16,,,,743.7022207,None,742.5186744,743.7188326,s,1,畅销,k,1,0.5512357000000065,0.3106917000000067,wm,f,18,2024_Apr_09_1000,mian,2021.2.3,59.90671326608967,
,,,,,,1,0,pic/flanker5.png,pic/flanker3.png,a,l,pic/AffRest2.png,,,,,,,,,,,,,,,,,,,,,,,,,0,1,1,1,0,6,6,47,,,,746.518204,None,745.3353136000001,746.5349671000001,a,1,伤心,l,1,0.6005384000000049,0.5376913999998578,wm,f,18,2024_Apr_09_1000,mian,2021.2.3,59.90671326608967,
,,,,,,0,1,pic/flanker6.png,pic/flanker2.png,a,k,pic/AffRest2.png,,,,,,,,,,,,,,,,,,,,,,,,,0,1,1,1,0,7,7,66,,,,749.5854994000001,None,748.4014417000001,749.6021736,a,1,羡慕,k,1,0.9790508000000955,0.3120159000000058,wm,f,18,2024_Apr_09_1000,mian,2021.2.3,59.90671326608967,
,,,,,,1,0,pic/flanker5.png,pic/flanker3.png,a,l,pic/AffRest2.png,,,,,,,,,,,,,,,,,,,,,,,,,0,1,1,1,0,8,8,31,,,,752.8355243999999,None,751.6520254,752.8521694000001,a,1,消沉,l,1,0.44039090000001124,0.6727705000000697,wm,f,18,2024_Apr_09_1000,mian,2021.2.3,59.90671326608967,
,,,,,,1,0,pic/flanker5.png,pic/flanker3.png,a,l,pic/AffRest2.png,,,,,,,,,,,,,,,,,,,,,,,,,0,1,1,1,0,9,9,7,,,,755.9188582000002,None,754.7353678,755.9355067000001,a,1,怀疑,l,1,0.6084180000000288,0.45623969999996916,wm,f,18,2024_Apr_09_1000,mian,2021.2.3,59.90671326608967,
,,,,,,1,1,pic/flanker6.png,pic/flanker4.png,s,k,pic/AffRest2.png,,,,,,,,,,,,,,,,,,,,,,,,,0,1,1,1,0,10,10,22,,,,758.9355175000001,None,757.7520962000001,758.9521718000001,s,1,生动,k,1,0.5440496000001076,0.533890700000029,wm,f,18,2024_Apr_09_1000,mian,2021.2.3,59.90671326608967,
,,,,,,0,1,pic/flanker6.png,pic/flanker2.png,a,k,pic/AffRest2.png,,,,,,,,,,,,,,,,,,,,,,,,,0,1,1,1,0,11,11,50,,,,762.0855432000001,None,760.9020154,762.1021717000001,a,1,振作,k,1,0.4926532999998017,0.3673341999999593,wm,f,18,2024_Apr_09_1000,mian,2021.2.3,59.90671326608967,
,,,,,,0,1,pic/flanker5.png,pic/flanker1.png,s,k,pic/AffRest2.png,,,,,,,,,,,,,,,,,,,,,,,,,0,1,1,1,0,12,12,24,,,,764.8688274000001,None,763.6853224000001,764.8855212000001,s,1,雄厚,k,1,0.5615928000001986,0.5820570000000771,wm,f,18,2024_Apr_09_1000,mian,2021.2.3,59.90671326608967,
,,,,,,1,0,pic/flanker5.png,pic/flanker3.png,a,l,pic/AffRest2.png,,,,,,,,,,,,,,,,,,,,,,,,,0,1,1,1,0,13,13,71,,,,768.0020806,None,766.8181518000001,768.0186784,a,1,胡涂,l,1,0.9890603000001192,0.3651615999999649,wm,f,18,2024_Apr_09_1000,mian,2021.2.3,59.90671326608967,
,,,,,,0,0,pic/flanker6.png,pic/flanker2.png,a,l,pic/AffRest2.png,,,,,,,,,,,,,,,,,,,,,,,,,0,1,1,1,0,14,14,41,,,,771.385511,None,770.2021157000001,771.4022249,a,1,落后,l,1,0.6899729999997817,0.3291839999999411,wm,f,18,2024_Apr_09_1000,mian,2021.2.3,59.90671326608967,
,,,,,,0,0,pic/flanker5.png,pic/flanker1.png,s,l,pic/AffRest2.png,,,,,,,,,,,,,,,,,,,,,,,,,0,1,1,1,0,15,15,43,,,,774.4688826000001,None,773.2855798,774.4854473,s,1,争吵,k,0,0.5274875000000065,0.4556153999999424,wm,f,18,2024_Apr_09_1000,mian,2021.2.3,59.90671326608967,
,,,,,,0,0,pic/flanker5.png,pic/flanker1.png,s,l,pic/AffRest2.png,,,,,,,,,,,,,,,,,,,,,,,,,0,1,1,1,0,16,16,75,,,,777.3182571,None,776.1353608,777.3350371000001,s,1,禁止,l,1,0.8916243999999551,0.4307114000000638,wm,f,18,2024_Apr_09_1000,mian,2021.2.3,59.90671326608967,
,,,,,,1,0,pic/flanker6.png,pic/flanker4.png,s,l,pic/AffRest2.png,,,,,,,,,,,,,,,,,,,,,,,,,0,1,1,1,0,17,17,21,,,,780.7022457,None,779.5187322000002,780.7188993,s,1,沮丧,l,1,0.5310241999998198,0.45851379999999153,wm,f,18,2024_Apr_09_1000,mian,2021.2.3,59.90671326608967,
,,,,,,0,1,pic/flanker5.png,pic/flanker1.png,s,k,pic/AffRest2.png,,,,,,,,,,,,,,,,,,,,,,,,,0,1,1,1,0,18,18,0,,,,783.6188735000001,None,782.4354344000001,783.6354596000001,s,1,珍藏,k,1,0.5698463000001084,0.7502592000000732,wm,f,18,2024_Apr_09_1000,mian,2021.2.3,59.90671326608967,
,,,,,,1,1,pic/flanker6.png,pic/flanker4.png,s,k,pic/AffRest2.png,,,,,,,,,,,,,,,,,,,,,,,,,0,1,1,1,0,19,19,62,,,,786.9188682000001,None,785.7355629000001,786.9355290000001,s,1,俊秀,k,1,0.562546999999995,0.4180417000000034,wm,f,18,2024_Apr_09_1000,mian,2021.2.3,59.90671326608967,
,,,,,,0,0,pic/flanker6.png,pic/flanker2.png,a,l,pic/AffRest2.png,,,,,,,,,,,,,,,,,,,,,,,,,0,1,1,1,0,20,20,1,,,,789.9686947,None,788.7853097,789.9854377000001,a,1,孤单,l,1,0.649711600000046,0.3704305999999633,wm,f,18,2024_Apr_09_1000,mian,2021.2.3,59.90671326608967,
,,,,,,1,0,pic/flanker5.png,pic/flanker3.png,a,l,pic/AffRest2.png,,,,,,,,,,,,,,,,,,,,,,,,,0,1,1,1,0,21,21,55,,,,793.0188937,None,791.8350547,793.0354598000001,a,1,烦恼,l,1,1.1855005999998411,0.8949568000000454,wm,f,18,2024_Apr_09_1000,mian,2021.2.3,59.90671326608967,
,,,,,,0,0,pic/flanker5.png,pic/flanker1.png,s,l,pic/AffRest2.png,,,,,,,,,,,,,,,,,,,,,,,,,0,1,1,1,0,22,22,67,,,,797.0520837000001,None,795.8687312,797.0686013,s,1,冷笑,l,1,1.3756972000001042,0.3362880999998197,wm,f,18,2024_Apr_09_1000,mian,2021.2.3,59.90671326608967,
,,,,,,0,0,pic/flanker5.png,pic/flanker1.png,s,l,pic/AffRest2.png,,,,,,,,,,,,,,,,,,,,,,,,,0,1,1,1,0,23,23,35,,,,800.7520480000001,None,799.5687335,800.7687406,s,1,闷热,l,1,0.9394313000000238,0.4157934000002115,wm,f,18,2024_Apr_09_1000,mian,2021.2.3,59.90671326608967,
,,,,,,0,1,pic/flanker5.png,pic/flanker1.png,s,k,pic/AffRest2.png,,,,,,,,,,,,,,,,,,,,,,,,,0,1,1,1,0,24,24,48,,,,804.1522434999999,None,802.9687375999999,804.1689547000001,s,1,优雅,k,1,0.58393389999992,0.38893080000002556,wm,f,18,2024_Apr_09_1000,mian,2021.2.3,59.90671326608967,
,,,,,,0,1,pic/flanker5.png,pic/flanker1.png,s,k,pic/AffRest2.png,,,,,,,,,,,,,,,,,,,,,,,,,0,1,1,1,0,25,25,64,,,,806.985525,None,805.8019379,807.0023060999999,s,1,圣洁,k,1,0.6422673999998096,0.2678381000000627,wm,f,18,2024_Apr_09_1000,mian,2021.2.3,59.90671326608967,
,,,,,,0,0,pic/flanker5.png,pic/flanker1.png,s,l,pic/AffRest2.png,,,,,,,,,,,,,,,,,,,,,,,,,0,1,1,1,0,26,26,59,,,,809.9183685,None,808.7353938000001,809.9349922000001,s,1,心慌,l,1,1.2102277000001322,0.3736693999999261,wm,f,18,2024_Apr_09_1000,mian,2021.2.3,59.90671326608967,
,,,,,,1,0,pic/flanker6.png,pic/flanker4.png,s,l,pic/AffRest2.png,,,,,,,,,,,,,,,,,,,,,,,,,0,1,1,1,0,27,27,45,,,,813.368784,None,812.1855478,813.3854103000001,s,1,忧虑,l,1,1.334016100000099,0.5132786000001488,wm,f,18,2024_Apr_09_1000,mian,2021.2.3,59.90671326608967,
,,,,,,0,0,pic/flanker5.png,pic/flanker1.png,s,l,pic/AffRest2.png,,,,,,,,,,,,,,,,,,,,,,,,,0,1,1,1,0,28,28,27,,,,817.0522878000002,None,815.8686494000001,817.0689174000001,s,1,焦躁,l,1,0.6033277999999882,0.3486485000000812,wm,f,18,2024_Apr_09_1000,mian,2021.2.3,59.90671326608967,
,,,,,,0,1,pic/flanker6.png,pic/flanker2.png,a,k,pic/AffRest2.png,,,,,,,,,,,,,,,,,,,,,,,,,0,1,1,1,0,29,29,10,,,,819.9686479,None,818.7854202000001,819.9854654000001,a,1,豪放,k,1,0.6224308000000747,0.3686952000000474,wm,f,18,2024_Apr_09_1000,mian,2021.2.3,59.90671326608967,
,,,,,,0,0,pic/flanker6.png,pic/flanker2.png,a,l,pic/AffRest2.png,,,,,,,,,,,,,,,,,,,,,,,,,0,1,1,1,0,30,30,57,,,,823.0021336,None,821.8186677000001,823.0187098000001,a,1,撒谎,l,1,0.5093595000000732,0.3518845000000965,wm,f,18,2024_Apr_09_1000,mian,2021.2.3,59.90671326608967,
,,,,,,1,0,pic/flanker6.png,pic/flanker4.png,s,l,pic/AffRest2.png,,,,,,,,,,,,,,,,,,,,,,,,,0,1,1,1,0,31,31,77,,,,825.7188444000001,None,824.5356223000001,825.7355771,s,1,嘲笑,l,1,0.4709464999998545,0.46238910000010947,wm,f,18,2024_Apr_09_1000,mian,2021.2.3,59.90671326608967,
,,,,,,1,1,pic/flanker5.png,pic/flanker3.png,a,k,pic/AffRest2.png,,,,,,,,,,,,,,,,,,,,,,,,,0,1,1,1,0,32,32,12,,,,828.7187254,None,827.5354328000001,828.7353357,a,1,正直,k,1,0.9123457000000599,0.673673000000008,wm,f,18,2024_Apr_09_1000,mian,2021.2.3,59.90671326608967,
,,,,,,1,0,pic/flanker5.png,pic/flanker3.png,a,l,pic/AffRest2.png,,,,,,,,,,,,,,,,,,,,,,,,,0,1,1,1,0,33,33,39,,,,832.1854206,None,831.0021134000001,832.2021396,a,1,处罚,l,1,0.4943677999999636,0.44207959999994273,wm,f,18,2024_Apr_09_1000,mian,2021.2.3,59.90671326608967,
,,,,,,0,1,pic/flanker5.png,pic/flanker1.png,s,k,pic/AffRest2.png,,,,,,,,,,,,,,,,,,,,,,,,,0,1,1,1,0,34,34,56,,,,835.0022243000001,None,833.8186982,835.0188141000001,s,1,充裕,k,1,0.609168899999986,0.3680488999998488,wm,f,18,2024_Apr_09_1000,mian,2021.2.3,59.90671326608967,
,,,,,,0,1,pic/flanker5.png,pic/flanker1.png,s,k,pic/AffRest2.png,,,,,,,,,,,,,,,,,,,,,,,,,0,1,1,1,0,35,35,32,,,,837.9187499,None,836.7354507,837.9353623,s,1,留恋,l,0,0.9132685000001857,0.4930673999999726,wm,f,18,2024_Apr_09_1000,mian,2021.2.3,59.90671326608967,
,,,,,,1,0,pic/flanker6.png,pic/flanker4.png,s,l,pic/AffRest2.png,,,,,,,,,,,,,,,,,,,,,,,,,0,1,1,1,0,36,36,61,,,,841.2187819000001,None,840.0354261,841.2354207000001,s,1,堵塞,l,1,0.7889102000001458,0.7362749000001259,wm,f,18,2024_Apr_09_1000,mian,2021.2.3,59.90671326608967,
,,,,,,0,1,pic/flanker5.png,pic/flanker1.png,s,k,pic/AffRest2.png,,,,,,,,,,,,,,,,,,,,,,,,,0,1,1,1,0,37,37,8,,,,844.7356178,None,843.5521342,844.7521888000001,s,1,富足,k,1,0.6228083999999399,0.3781576999999743,wm,f,18,2024_Apr_09_1000,mian,2021.2.3,59.90671326608967,
,,,,,,1,1,pic/flanker5.png,pic/flanker3.png,a,k,pic/AffRest2.png,,,,,,,,,,,,,,,,,,,,,,,,,0,1,1,1,0,38,38,68,,,,847.7187551,None,846.5354274000001,847.7353591000001,a,1,富丽,k,1,0.5301366999999573,0.5468263000000206,wm,f,18,2024_Apr_09_1000,mian,2021.2.3,59.90671326608967,
,,,,,,1,1,pic/flanker6.png,pic/flanker4.png,s,k,pic/AffRest2.png,,,,,,,,,,,,,,,,,,,,,,,,,0,1,1,1,0,39,39,54,,,,850.6188083,None,849.4355065,850.6354756000001,s,1,爽朗,k,1,0.5368363000000045,0.42918379999991885,wm,f,18,2024_Apr_09_1000,mian,2021.2.3,59.90671326608967,
,,,,,,1,1,pic/flanker5.png,pic/flanker3.png,a,k,pic/AffRest2.png,,,,,,,,,,,,,,,,,,,,,,,,,0,1,1,1,0,40,40,20,,,,853.5856201000001,None,852.4021672000001,853.6023126,a,1,丰满,k,1,0.5494646000001921,1.0246693999999934,wm,f,18,2024_Apr_09_1000,mian,2021.2.3,59.90671326608967,
,,,,,,0,0,pic/flanker6.png,pic/flanker2.png,a,l,pic/AffRest2.png,,,,,,,,,,,,,,,,,,,,,,,,,0,1,1,1,0,41,41,17,,,,857.1521392,None,855.9688186000001,857.1688505,a,1,郁闷,l,1,0.39934440000001814,0.3506494999999177,wm,f,18,2024_Apr_09_1000,mian,2021.2.3,59.90671326608967,
,,,,,,1,0,pic/flanker5.png,pic/flanker3.png,a,l,pic/AffRest2.png,,,,,,,,,,,,,,,,,,,,,,,,,0,1,1,1,0,42,42,63,,,,859.8022277,None,858.6188603,859.8188258,a,1,别扭,l,1,0.6887491000002228,0.4854449999997996,wm,f,18,2024_Apr_09_1000,mian,2021.2.3,59.90671326608967,
,,,,,,1,1,pic/flanker5.png,pic/flanker3.png,a,k,pic/AffRest2.png,,,,,,,,,,,,,,,,,,,,,,,,,0,1,1,1,0,43,43,4,,,,862.8854839,None,861.7020816000002,862.9020558,a,1,精致,k,1,0.4626326000000063,0.44546889999992345,wm,f,18,2024_Apr_09_1000,mian,2021.2.3,59.90671326608967,
,,,,,,1,0,pic/flanker5.png,pic/flanker3.png,a,l,pic/AffRest2.png,,,,,,,,,,,,,,,,,,,,,,,,,0,1,1,1,0,44,44,15,,,,865.7356681000001,None,864.5520916,865.7521957000001,a,1,鲁莽,l,1,0.787029400000165,1.136025699999891,wm,f,18,2024_Apr_09_1000,mian,2021.2.3,59.90671326608967,
,,,,,,0,1,pic/flanker6.png,pic/flanker2.png,a,k,pic/AffRest2.png,,,,,,,,,,,,,,,,,,,,,,,,,0,1,1,1,0,45,45,42,,,,869.6356554000001,None,868.4521632999999,869.6523347,a,1,典雅,k,1,0.5450567000000319,0.4782058999999208,wm,f,18,2024_Apr_09_1000,mian,2021.2.3,59.90671326608967,
,,,,,,0,1,pic/flanker6.png,pic/flanker2.png,a,k,pic/AffRest2.png,,,,,,,,,,,,,,,,,,,,,,,,,0,1,1,1,0,46,46,74,,,,872.5522254,None,871.3690571,872.5687637000001,a,1,清秀,k,1,0.5506761999999981,0.33693700000003446,wm,f,18,2024_Apr_09_1000,mian,2021.2.3,59.90671326608967,
,,,,,,0,0,pic/flanker6.png,pic/flanker2.png,a,l,pic/AffRest2.png,,,,,,,,,,,,,,,,,,,,,,,,,0,1,1,1,0,47,47,9,,,,875.5019167,None,874.3189029,875.5188348000001,a,1,杂乱,l,1,0.5241257000000132,0.3129463999998734,wm,f,18,2024_Apr_09_1000,mian,2021.2.3,59.90671326608967,
,,,,,,0,0,pic/flanker6.png,pic/flanker2.png,a,l,pic/AffRest2.png,,,,,,,,,,,,,,,,,,,,,,,,,0,1,1,1,0,48,48,25,,,,878.2189079,None,877.0353391000001,878.2355239000001,a,1,浪费,l,1,0.5576670000000377,0.2868418999998994,wm,f,18,2024_Apr_09_1000,mian,2021.2.3,59.90671326608967,
,,,,,,1,0,pic/flanker6.png,pic/flanker4.png,s,l,pic/AffRest2.png,,,,,,,,,,,,,,,,,,,,,,,,,0,1,1,1,0,49,49,37,,,,880.9690445000001,None,879.7855264,880.9857142000001,s,1,排斥,l,1,0.5583102000000508,0.39240270000004784,wm,f,18,2024_Apr_09_1000,mian,2021.2.3,59.90671326608967,
,,,,,,0,1,pic/flanker6.png,pic/flanker2.png,a,k,pic/AffRest2.png,,,,,,,,,,,,,,,,,,,,,,,,,0,1,1,1,0,50,50,26,,,,883.8855621,None,882.7022165000001,883.9021469000002,a,1,诚恳,k,1,0.597153500000104,0.3340112000000772,wm,f,18,2024_Apr_09_1000,mian,2021.2.3,59.90671326608967,
,,,,,,1,1,pic/flanker6.png,pic/flanker4.png,s,k,pic/AffRest2.png,,,,,,,,,,,,,,,,,,,,,,,,,0,1,1,1,0,51,51,70,,,,886.8022506,None,885.6187634,886.8188668,s,1,秀丽,k,1,0.4980111999998371,0.4978254999998626,wm,f,18,2024_Apr_09_1000,mian,2021.2.3,59.90671326608967,
,,,,,,0,1,pic/flanker5.png,pic/flanker1.png,s,k,pic/AffRest2.png,,,,,,,,,,,,,,,,,,,,,,,,,0,1,1,1,0,52,52,40,,,,889.7855311000001,None,888.6021281000001,889.8021940000001,s,1,前进,k,1,0.5629857999999786,0.5529587999999421,wm,f,18,2024_Apr_09_1000,mian,2021.2.3,59.90671326608967,
,,,,,,1,1,pic/flanker5.png,pic/flanker3.png,a,k,pic/AffRest2.png,,,,,,,,,,,,,,,,,,,,,,,,,0,1,1,1,0,53,53,52,,,,892.7354879,None,891.5522053,892.7521675,a,1,鲜艳,k,1,0.4625211999998555,0.45683420000000297,wm,f,18,2024_Apr_09_1000,mian,2021.2.3,59.90671326608967,
,,,,,,0,0,pic/flanker6.png,pic/flanker2.png,a,l,pic/AffRest2.png,,,,,,,,,,,,,,,,,,,,,,,,,0,1,1,1,0,54,54,73,,,,895.5856451,None,894.4021460000001,895.6023276000001,a,1,假冒,l,1,1.1405068999999912,0.3468295999998645,wm,f,18,2024_Apr_09_1000,mian,2021.2.3,59.90671326608967,
,,,,,,0,1,pic/flanker6.png,pic/flanker2.png,a,k,pic/AffRest2.png,,,,,,,,,,,,,,,,,,,,,,,,,0,1,1,1,0,55,55,34,,,,899.0854707000001,None,897.9021687,899.1022494000001,a,1,赞成,k,1,0.8232421000000159,0.40149320000000444,wm,f,18,2024_Apr_09_1000,mian,2021.2.3,59.90671326608967,
,,,,,,1,0,pic/flanker6.png,pic/flanker4.png,s,l,pic/AffRest2.png,,,,,,,,,,,,,,,,,,,,,,,,,0,1,1,1,0,56,56,13,,,,902.3355434,None,901.1521455,902.3520669,s,1,懒惰,l,1,0.4701837999998588,0.5768345999999838,wm,f,18,2024_Apr_09_1000,mian,2021.2.3,59.90671326608967,
,,,,,,0,0,pic/flanker5.png,pic/flanker1.png,s,l,pic/AffRest2.png,,,,,,,,,,,,,,,,,,,,,,,,,0,1,1,1,0,57,57,11,,,,905.2355806,None,904.0524235,905.2522294,s,1,黑暗,l,1,0.4293277000001581,0.4242761000000428,wm,f,18,2024_Apr_09_1000,mian,2021.2.3,59.90671326608967,
,,,,,,0,1,pic/flanker6.png,pic/flanker2.png,a,k,pic/AffRest2.png,,,,,,,,,,,,,,,,,,,,,,,,,0,1,1,1,0,58,58,18,,,,908.1354592,None,906.9522846,908.1522121,a,1,廉洁,k,1,0.6122632999999951,0.3393109999999524,wm,f,18,2024_Apr_09_1000,mian,2021.2.3,59.90671326608967,
,,,,,,0,0,pic/flanker5.png,pic/flanker1.png,s,l,pic/AffRest2.png,,,,,,,,,,,,,,,,,,,,,,,,,0,1,1,1,0,59,59,3,,,,910.9855936000001,None,909.8022175000001,911.002262,s,1,自卑,l,1,0.5451938000001064,0.29617510000002767,wm,f,18,2024_Apr_09_1000,mian,2021.2.3,59.90671326608967,
,,,,,,1,0,pic/flanker6.png,pic/flanker4.png,s,l,pic/AffRest2.png,,,,,,,,,,,,,,,,,,,,,,,,,0,1,1,1,0,60,60,53,,,,913.6521238,None,912.4688873,913.6689391,s,1,丢失,l,1,0.5527609999999186,0.4255580999999893,wm,f,18,2024_Apr_09_1000,mian,2021.2.3,59.90671326608967,
,,,,,,0,0,pic/flanker5.png,pic/flanker1.png,s,l,pic/AffRest2.png,,,,,,,,,,,,,,,,,,,,,,,,,0,1,1,1,0,61,61,51,,,,916.4857153,None,915.3022209000001,916.5024822,s,1,轻率,l,1,0.5310735000000477,0.32612489999996797,wm,f,18,2024_Apr_09_1000,mian,2021.2.3,59.90671326608967,
,,,,,,1,1,pic/flanker5.png,pic/flanker3.png,a,k,pic/AffRest2.png,,,,,,,,,,,,,,,,,,,,,,,,,0,1,1,1,0,62,62,36,,,,919.3850367,None,918.2020665,919.4016983000001,a,1,享受,k,1,0.4524477999998453,0.4810542999998688,wm,f,18,2024_Apr_09_1000,mian,2021.2.3,59.90671326608967,
,,,,,,1,1,pic/flanker6.png,pic/flanker4.png,s,k,pic/AffRest2.png,,,,,,,,,,,,,,,,,,,,,,,,,0,1,1,1,0,63,63,38,,,,922.3183928000001,None,921.1353971999999,922.3351217,s,1,永恒,k,1,0.7150712000000112,0.6893575999999939,wm,f,18,2024_Apr_09_1000,mian,2021.2.3,59.90671326608967,
,,,,,,1,1,pic/flanker6.png,pic/flanker4.png,s,k,pic/AffRest2.png,,,,,,,,,,,,,,,,,,,,,,,,,0,1,1,1,0,64,64,46,,,,925.7522085,None,924.5688775000001,925.7688776,s,1,如愿,k,1,0.6704017000001841,1.0187611999999717,wm,f,18,2024_Apr_09_1000,mian,2021.2.3,59.90671326608967,
,,,,,,0,0,pic/flanker6.png,pic/flanker2.png,a,l,pic/AffRest2.png,,,,,,,,,,,,,,,,,,,,,,,,,0,1,1,1,0,65,65,65,,,,929.3023834,None,928.1188559,929.3184285,a,1,缺乏,l,1,1.0359263999998802,0.4350718999999117,wm,f,18,2024_Apr_09_1000,mian,2021.2.3,59.90671326608967,
,,,,,,1,1,pic/flanker5.png,pic/flanker3.png,a,k,pic/AffRest2.png,,,,,,,,,,,,,,,,,,,,,,,,,0,1,1,1,0,66,66,28,,,,932.7689466000002,None,931.5856299,932.7855515000001,a,1,奉献,k,1,0.6277867000001152,0.5954749999998512,wm,f,18,2024_Apr_09_1000,mian,2021.2.3,59.90671326608967,
,,,,,,0,1,pic/flanker5.png,pic/flanker1.png,s,k,pic/AffRest2.png,,,,,,,,,,,,,,,,,,,,,,,,,0,1,1,1,0,67,67,72,,,,935.8689051000001,None,934.6856117,935.885581,s,1,吉祥,k,1,0.671317899999849,0.42428180000001703,wm,f,18,2024_Apr_09_1000,mian,2021.2.3,59.90671326608967,
,,,,,,1,1,pic/flanker6.png,pic/flanker4.png,s,k,pic/AffRest2.png,,,,,,,,,,,,,,,,,,,,,,,,,0,1,1,1,0,68,68,6,,,,938.8522096000002,None,937.6689273,938.8689105000001,s,1,瑰丽,k,1,0.9452540999998291,0.532246799999939,wm,f,18,2024_Apr_09_1000,mian,2021.2.3,59.90671326608967,
,,,,,,0,0,pic/flanker5.png,pic/flanker1.png,s,l,pic/AffRest2.png,,,,,,,,,,,,,,,,,,,,,,,,,0,1,1,1,0,69,69,19,,,,942.3522388000001,None,941.1683581,942.3692118000001,s,1,悲观,l,1,0.5950217000001885,0.42628229999991163,wm,f,18,2024_Apr_09_1000,mian,2021.2.3,59.90671326608967,
,,,,,,1,0,pic/flanker6.png,pic/flanker4.png,s,l,pic/AffRest2.png,,,,,,,,,,,,,,,,,,,,,,,,,0,1,1,1,0,70,70,29,,,,945.3521555,None,944.1688220999999,945.3687756000002,s,1,逃避,l,1,0.712988500000165,0.5441768000000593,wm,f,18,2024_Apr_09_1000,mian,2021.2.3,59.90671326608967,
,,,,,,1,0,pic/flanker5.png,pic/flanker3.png,a,l,pic/AffRest2.png,,,,,,,,,,,,,,,,,,,,,,,,,0,1,1,1,0,71,71,79,,,,948.4524649,None,947.2689389,948.4686976,a,1,慌忙,l,1,0.7251702999999452,0.39768419999995785,wm,f,18,2024_Apr_09_1000,mian,2021.2.3,59.90671326608967,
,,,,,,1,1,pic/flanker6.png,pic/flanker4.png,s,k,pic/AffRest2.png,,,,,,,,,,,,,,,,,,,,,,,,,0,1,1,1,0,72,72,30,,,,951.6183561,None,950.4356974,951.6355928,s,1,敬佩,k,1,0.6654522999999699,0.9742993999998362,wm,f,18,2024_Apr_09_1000,mian,2021.2.3,59.90671326608967,
,,,,,,1,0,pic/flanker5.png,pic/flanker3.png,a,l,pic/AffRest2.png,,,,,,,,,,,,,,,,,,,,,,,,,0,1,1,1,0,73,73,23,,,,955.2856544000001,None,954.1022660000001,955.3021996,a,1,损害,l,1,0.5380629000001136,0.4163083999999344,wm,f,18,2024_Apr_09_1000,mian,2021.2.3,59.90671326608967,
,,,,,,0,0,pic/flanker6.png,pic/flanker2.png,a,l,pic/AffRest2.png,,,,,,,,,,,,,,,,,,,,,,,,,0,1,1,1,0,74,74,33,,,,958.3022997,None,957.1187576,958.3189468,a,1,失意,l,1,0.6416598000000704,0.539814799999931,wm,f,18,2024_Apr_09_1000,mian,2021.2.3,59.90671326608967,
,,,,,,1,1,pic/flanker5.png,pic/flanker3.png,a,k,pic/AffRest2.png,,,,,,,,,,,,,,,,,,,,,,,,,0,1,1,1,0,75,75,76,,,,961.4856139000001,None,960.3023390000001,961.5022848000001,a,1,有利,k,1,0.571492199999966,0.4868411999998443,wm,f,18,2024_Apr_09_1000,mian,2021.2.3,59.90671326608967,
,,,,,,1,1,pic/flanker6.png,pic/flanker4.png,s,k,pic/AffRest2.png,,,,,,,,,,,,,,,,,,,,,,,,,0,1,1,1,0,76,76,14,,,,964.6190936,None,963.4352727,964.6357803000001,s,1,卓越,k,1,0.5007934000000205,0.36291460000006737,wm,f,18,2024_Apr_09_1000,mian,2021.2.3,59.90671326608967,
,,,,,,0,0,pic/flanker6.png,pic/flanker2.png,a,l,pic/AffRest2.png,,,,,,,,,,,,,,,,,,,,,,,,,0,1,1,1,0,77,77,49,,,,967.5355916000001,None,966.3521618,967.5523219000002,a,1,穷苦,l,1,0.5261505999999372,0.4836956999999984,wm,f,18,2024_Apr_09_1000,mian,2021.2.3,59.90671326608967,
,,,,,,1,0,pic/flanker6.png,pic/flanker4.png,s,l,pic/AffRest2.png,,,,,,,,,,,,,,,,,,,,,,,,,0,1,1,1,0,78,78,69,,,,970.3849418,None,969.2023153,970.4016414,s,1,厌恶,l,1,0.5010913000000983,0.3813692000001083,wm,f,18,2024_Apr_09_1000,mian,2021.2.3,59.90671326608967,
,,,,,,1,1,pic/flanker5.png,pic/flanker3.png,a,k,pic/AffRest2.png,,,,,,,,,,,,,,,,,,,,,,,,,0,1,1,1,0,79,79,44,,,,973.2357664000001,None,972.0521301000001,973.2524864,a,1,顽强,k,1,0.4823307999999997,0.4518163000000186,wm,f,18,2024_Apr_09_1000,mian,2021.2.3,59.90671326608967,
,,,,,,,,,,,,pic/AffRest2.png,,,,,,,,,,,,,,,,,,,,,,,,,0,1,1,1,,,,,,,,,,,,,,,,,,,wm,f,18,2024_Apr_09_1000,mian,2021.2.3,59.90671326608967,
,,,,,,0,1,pic/flanker6.png,pic/flanker2.png,a,k,pic/AffRest3.png,,,,,,,,,,,,,,,,,,,,,,,,,0,2,2,2,0,0,0,66,,,,1013.7858271,None,1012.586873,1013.8025056000001,a,1,畅销,k,1,0.5255813999999646,0.38447130000008656,wm,f,18,2024_Apr_09_1000,mian,2021.2.3,59.90671326608967,
,,,,,,0,1,pic/flanker5.png,pic/flanker1.png,s,k,pic/AffRest3.png,,,,,,,,,,,,,,,,,,,,,,,,,0,2,2,2,0,1,1,8,,,,1016.7191101000001,None,1015.5356404000001,1016.7357108000001,s,1,典雅,k,1,0.46258530000000064,0.27863890000003266,wm,f,18,2024_Apr_09_1000,mian,2021.2.3,59.90671326608967,
,,,,,,1,1,pic/flanker6.png,pic/flanker4.png,s,k,pic/AffRest3.png,,,,,,,,,,,,,,,,,,,,,,,,,0,2,2,2,0,2,2,54,,,,1019.3024492,None,1018.1190594,1019.3190485,s,1,豪放,k,1,0.46801890000006097,0.46906060000014804,wm,f,18,2024_Apr_09_1000,mian,2021.2.3,59.90671326608967,
,,,,,,0,0,pic/flanker6.png,pic/flanker2.png,a,l,pic/AffRest3.png,,,,,,,,,,,,,,,,,,,,,,,,,0,2,2,2,0,3,3,41,,,,1022.1356785,None,1020.9523104,1022.1523429000001,a,1,逃避,l,1,0.424947100000054,0.2958071000000473,wm,f,18,2024_Apr_09_1000,mian,2021.2.3,59.90671326608967,
,,,,,,0,0,pic/flanker5.png,pic/flanker1.png,s,l,pic/AffRest3.png,,,,,,,,,,,,,,,,,,,,,,,,,0,2,2,2,0,4,4,59,,,,1024.7355803,None,1023.5523904000001,1024.7523975000001,s,1,缺乏,l,1,0.4680029999999533,0.30544579999991583,wm,f,18,2024_Apr_09_1000,mian,2021.2.3,59.90671326608967,
,,,,,,1,0,pic/flanker6.png,pic/flanker4.png,s,l,pic/AffRest3.png,,,,,,,,,,,,,,,,,,,,,,,,,0,2,2,2,0,5,5,21,,,,1027.4190265,None,1026.2355567,1027.4356743,s,1,撒谎,l,1,0.5022056999998767,0.4166589000001295,wm,f,18,2024_Apr_09_1000,mian,2021.2.3,59.90671326608967,
,,,,,,1,0,pic/flanker5.png,pic/flanker3.png,a,l,pic/AffRest3.png,,,,,,,,,,,,,,,,,,,,,,,,,0,2,2,2,0,6,6,39,,,,1030.2025095000001,None,1029.0191968000001,1030.219209,a,1,胡涂,l,1,0.42438830000014605,0.4332656000001407,wm,f,18,2024_Apr_09_1000,mian,2021.2.3,59.90671326608967,
,,,,,,1,1,pic/flanker5.png,pic/flanker3.png,a,k,pic/AffRest3.png,,,,,,,,,,,,,,,,,,,,,,,,,0,2,2,2,0,7,7,76,,,,1033.1022923,None,1031.9190342,1033.1190749,a,1,精致,k,1,0.6173859000000448,0.5284538999999313,wm,f,18,2024_Apr_09_1000,mian,2021.2.3,59.90671326608967,
,,,,,,0,1,pic/flanker5.png,pic/flanker1.png,s,k,pic/AffRest3.png,,,,,,,,,,,,,,,,,,,,,,,,,0,2,2,2,0,8,8,64,,,,1036.2858256,None,1035.1024041,1036.3025274000001,s,1,圣洁,k,1,0.5767576999999164,0.3070399999999154,wm,f,18,2024_Apr_09_1000,mian,2021.2.3,59.90671326608967,
,,,,,,1,1,pic/flanker6.png,pic/flanker4.png,s,k,pic/AffRest3.png,,,,,,,,,,,,,,,,,,,,,,,,,0,2,2,2,0,9,9,30,,,,1039.1690183,None,1037.9856276,1039.1857017,s,1,敬佩,k,1,0.5446987999998782,0.47329070000000684,wm,f,18,2024_Apr_09_1000,mian,2021.2.3,59.90671326608967,
,,,,,,1,1,pic/flanker5.png,pic/flanker3.png,a,k,pic/AffRest3.png,,,,,,,,,,,,,,,,,,,,,,,,,0,2,2,2,0,10,10,12,,,,1042.0191993,None,1040.835851,1042.0358589,a,1,奉献,k,1,0.5679175000000214,1.0114544000000478,wm,f,18,2024_Apr_09_1000,mian,2021.2.3,59.90671326608967,
,,,,,,1,0,pic/flanker6.png,pic/flanker4.png,s,l,pic/AffRest3.png,,,,,,,,,,,,,,,,,,,,,,,,,0,2,2,2,0,11,11,29,,,,1045.6191428,None,1044.4357381,1045.6356244,s,1,烦恼,l,1,0.5573595000000751,0.40066189999993185,wm,f,18,2024_Apr_09_1000,mian,2021.2.3,59.90671326608967,
,,,,,,1,1,pic/flanker5.png,pic/flanker3.png,a,k,pic/AffRest3.png,,,,,,,,,,,,,,,,,,,,,,,,,0,2,2,2,0,12,12,52,,,,1048.4358656,None,1047.2523163,1048.4525382000002,a,1,雄厚,k,1,0.5289980000000014,0.6760260999999446,wm,f,18,2024_Apr_09_1000,mian,2021.2.3,59.90671326608967,
,,,,,,0,1,pic/flanker5.png,pic/flanker1.png,s,k,pic/AffRest3.png,,,,,,,,,,,,,,,,,,,,,,,,,0,2,2,2,0,13,13,32,,,,1051.5356844,None,1050.3523715000001,1051.5523314,s,1,爽朗,k,1,0.5494297000000188,0.37460550000014337,wm,f,18,2024_Apr_09_1000,mian,2021.2.3,59.90671326608967,
,,,,,,0,1,pic/flanker6.png,pic/flanker2.png,a,k,pic/AffRest3.png,,,,,,,,,,,,,,,,,,,,,,,,,0,2,2,2,0,14,14,74,,,,1054.3857493,None,1053.2023759,1054.4023399,a,1,鲜艳,k,1,0.5124470000000656,0.43133000000011634,wm,f,18,2024_Apr_09_1000,mian,2021.2.3,59.90671326608967,
,,,,,,1,0,pic/flanker5.png,pic/flanker3.png,a,l,pic/AffRest3.png,,,,,,,,,,,,,,,,,,,,,,,,,0,2,2,2,0,15,15,55,,,,1057.2024611000002,None,1056.0189990000001,1057.2190674,a,1,懒惰,l,1,0.5159986999999546,1.0182930999999371,wm,f,18,2024_Apr_09_1000,mian,2021.2.3,59.90671326608967,
,,,,,,1,1,pic/flanker6.png,pic/flanker4.png,s,k,pic/AffRest3.png,,,,,,,,,,,,,,,,,,,,,,,,,0,2,2,2,0,16,16,46,,,,1060.5692458,None,1059.3857227,1060.5858785,s,1,卓越,k,1,0.5119449999999688,0.3844206999999642,wm,f,18,2024_Apr_09_1000,mian,2021.2.3,59.90671326608967,
,,,,,,1,1,pic/flanker5.png,pic/flanker3.png,a,k,pic/AffRest3.png,,,,,,,,,,,,,,,,,,,,,,,,,0,2,2,2,0,17,17,44,,,,1063.5025663000001,None,1062.3191911000001,1063.5192114000001,a,1,生动,k,1,0.5408125000001291,0.38445339999998396,wm,f,18,2024_Apr_09_1000,mian,2021.2.3,59.90671326608967,
,,,,,,1,1,pic/flanker6.png,pic/flanker4.png,s,k,pic/AffRest3.png,,,,,,,,,,,,,,,,,,,,,,,,,0,2,2,2,0,18,18,62,,,,1066.4857656000001,None,1065.3024102,1066.5024878000002,s,1,正直,k,1,0.46099389999994855,0.41340200000013283,wm,f,18,2024_Apr_09_1000,mian,2021.2.3,59.90671326608967,
,,,,,,1,0,pic/flanker5.png,pic/flanker3.png,a,l,pic/AffRest3.png,,,,,,,,,,,,,,,,,,,,,,,,,0,2,2,2,0,19,19,71,,,,1069.3690966000001,None,1068.1858722,1069.3857452,a,1,堵塞,l,1,0.4946447999998327,0.7545436000000336,wm,f,18,2024_Apr_09_1000,mian,2021.2.3,59.90671326608967,
,,,,,,0,1,pic/flanker6.png,pic/flanker2.png,a,k,pic/AffRest3.png,,,,,,,,,,,,,,,,,,,,,,,,,0,2,2,2,0,20,20,26,,,,1072.4525329,None,1071.2692389000001,1072.469229,a,1,永恒,k,1,0.6203791000000365,0.3596368999999413,wm,f,18,2024_Apr_09_1000,mian,2021.2.3,59.90671326608967,
,,,,,,0,0,pic/flanker6.png,pic/flanker2.png,a,l,pic/AffRest3.png,,,,,,,,,,,,,,,,,,,,,,,,,0,2,2,2,0,21,21,25,,,,1075.4024714,None,1074.2192243,1075.4191046,a,1,处罚,l,1,0.4607723999999962,0.332052099999828,wm,f,18,2024_Apr_09_1000,mian,2021.2.3,59.90671326608967,
,,,,,,1,0,pic/flanker5.png,pic/flanker3.png,a,l,pic/AffRest3.png,,,,,,,,,,,,,,,,,,,,,,,,,0,2,2,2,0,22,22,63,,,,1078.2192032,None,1077.035317,1078.2358940000001,a,1,孤单,l,1,0.8630605999999261,0.44773750000013024,wm,f,18,2024_Apr_09_1000,mian,2021.2.3,59.90671326608967,
,,,,,,1,0,pic/flanker5.png,pic/flanker3.png,a,l,pic/AffRest3.png,,,,,,,,,,,,,,,,,,,,,,,,,0,2,2,2,0,23,23,47,,,,1081.4687041,None,1080.2853657,1081.4853041000001,a,1,罚款,l,1,0.5452673999998296,0.44564439999999195,wm,f,18,2024_Apr_09_1000,mian,2021.2.3,59.90671326608967,
,,,,,,0,1,pic/flanker6.png,pic/flanker2.png,a,k,pic/AffRest3.png,,,,,,,,,,,,,,,,,,,,,,,,,0,2,2,2,0,24,24,34,,,,1084.4692754,None,1083.2857068,1084.4858954000001,a,1,富足,k,1,0.5723321000000396,0.3481515999999374,wm,f,18,2024_Apr_09_1000,mian,2021.2.3,59.90671326608967,
,,,,,,0,1,pic/flanker6.png,pic/flanker2.png,a,k,pic/AffRest3.png,,,,,,,,,,,,,,,,,,,,,,,,,0,2,2,2,0,25,25,2,,,,1087.2853838,None,1086.1025417,1087.3025554,a,1,顽强,k,1,0.48586040000009234,0.3111728999999741,wm,f,18,2024_Apr_09_1000,mian,2021.2.3,59.90671326608967,
,,,,,,0,0,pic/flanker6.png,pic/flanker2.png,a,l,pic/AffRest3.png,,,,,,,,,,,,,,,,,,,,,,,,,0,2,2,2,0,26,26,1,,,,1089.9524149000001,None,1088.7691013,1089.9690789,a,1,杂乱,l,1,0.45654639999997926,0.29578250000008666,wm,f,18,2024_Apr_09_1000,mian,2021.2.3,59.90671326608967,
,,,,,,0,1,pic/flanker5.png,pic/flanker1.png,s,k,pic/AffRest3.png,,,,,,,,,,,,,,,,,,,,,,,,,0,2,2,2,0,27,27,56,,,,1092.7359492,None,1091.5522812000002,1092.7526253,s,1,珍藏,k,1,0.4413971000001311,0.4954354000001331,wm,f,18,2024_Apr_09_1000,mian,2021.2.3,59.90671326608967,
,,,,,,0,0,pic/flanker5.png,pic/flanker1.png,s,l,pic/AffRest3.png,,,,,,,,,,,,,,,,,,,,,,,,,0,2,2,2,0,28,28,11,,,,1095.6024992,None,1094.4189653,1095.6192506,s,1,自卑,l,1,0.6583428000001277,0.5174842000001263,wm,f,18,2024_Apr_09_1000,mian,2021.2.3,59.90671326608967,
,,,,,,1,0,pic/flanker5.png,pic/flanker3.png,a,l,pic/AffRest3.png,,,,,,,,,,,,,,,,,,,,,,,,,0,2,2,2,0,29,29,7,,,,1098.7525909,None,1097.5692359,1098.769264,a,1,轻率,l,1,0.5288006000000678,0.38248040000007677,wm,f,18,2024_Apr_09_1000,mian,2021.2.3,59.90671326608967,
,,,,,,0,1,pic/flanker6.png,pic/flanker2.png,a,k,pic/AffRest3.png,,,,,,,,,,,,,,,,,,,,,,,,,0,2,2,2,0,30,30,10,,,,1101.5692583,None,1100.3858933000001,1101.5859485,a,1,如愿,k,1,0.5691036000000622,0.2706696000000193,wm,f,18,2024_Apr_09_1000,mian,2021.2.3,59.90671326608967,
,,,,,,1,1,pic/flanker5.png,pic/flanker3.png,a,k,pic/AffRest3.png,,,,,,,,,,,,,,,,,,,,,,,,,0,2,2,2,0,31,31,36,,,,1104.3353057000002,None,1103.1519959,1104.3519458,a,1,享受,k,1,1.4431231999999454,0.7428612999999586,wm,f,18,2024_Apr_09_1000,mian,2021.2.3,59.90671326608967,
,,,,,,1,1,pic/flanker6.png,pic/flanker4.png,s,k,pic/AffRest3.png,,,,,,,,,,,,,,,,,,,,,,,,,0,2,2,2,0,32,32,70,,,,1108.4522031000001,None,1107.2692567000001,1108.4687941,s,1,吉祥,k,1,0.5429586999998719,0.5405914999998913,wm,f,18,2024_Apr_09_1000,mian,2021.2.3,59.90671326608967,
,,,,,,0,0,pic/flanker5.png,pic/flanker1.png,s,l,pic/AffRest3.png,,,,,,,,,,,,,,,,,,,,,,,,,0,2,2,2,0,33,33,27,,,,1111.5025962,None,1110.3193118000002,1111.5192715,s,1,落后,l,1,0.5344295999998394,0.45123450000005505,wm,f,18,2024_Apr_09_1000,mian,2021.2.3,59.90671326608967,
,,,,,,1,0,pic/flanker6.png,pic/flanker4.png,s,l,pic/AffRest3.png,,,,,,,,,,,,,,,,,,,,,,,,,0,2,2,2,0,34,34,37,,,,1114.4525458,None,1113.2692432000001,1114.4692068,s,1,闷热,l,1,0.6152419000000009,0.5005985999998757,wm,f,18,2024_Apr_09_1000,mian,2021.2.3,59.90671326608967,
,,,,,,0,0,pic/flanker5.png,pic/flanker1.png,s,l,pic/AffRest3.png,,,,,,,,,,,,,,,,,,,,,,,,,0,2,2,2,0,35,35,19,,,,1117.5852799000002,None,1116.4019903,1117.6023693,s,1,丢失,l,1,0.5353413999998793,0.5036379000000579,wm,f,18,2024_Apr_09_1000,mian,2021.2.3,59.90671326608967,
,,,,,,0,1,pic/flanker6.png,pic/flanker2.png,a,k,pic/AffRest3.png,,,,,,,,,,,,,,,,,,,,,,,,,0,2,2,2,0,36,36,18,,,,1120.619204,None,1119.4359285,1120.6352393,a,1,羡慕,k,1,0.573621699999876,0.37497669999993377,wm,f,18,2024_Apr_09_1000,mian,2021.2.3,59.90671326608967,
,,,,,,0,0,pic/flanker5.png,pic/flanker1.png,s,l,pic/AffRest3.png,,,,,,,,,,,,,,,,,,,,,,,,,0,2,2,2,0,37,37,75,,,,1123.4192924000001,None,1122.2356225,1123.4359745000002,s,1,焦躁,l,1,0.558915099999922,0.3702834000000621,wm,f,18,2024_Apr_09_1000,mian,2021.2.3,59.90671326608967,
,,,,,,1,1,pic/flanker6.png,pic/flanker4.png,s,k,pic/AffRest3.png,,,,,,,,,,,,,,,,,,,,,,,,,0,2,2,2,0,38,38,38,,,,1126.3692828,None,1125.1856539,1126.3859806,s,1,瑰丽,k,1,0.49245169999994687,0.5004950000000008,wm,f,18,2024_Apr_09_1000,mian,2021.2.3,59.90671326608967,
,,,,,,1,0,pic/flanker5.png,pic/flanker3.png,a,l,pic/AffRest3.png,,,,,,,,,,,,,,,,,,,,,,,,,0,2,2,2,0,39,39,23,,,,1129.385245,None,1128.2026619,1129.4018488000002,a,1,心慌,l,1,0.6178519000000051,0.4636273999999503,wm,f,18,2024_Apr_09_1000,mian,2021.2.3,59.90671326608967,
,,,,,,0,1,pic/flanker5.png,pic/flanker1.png,s,k,pic/AffRest3.png,,,,,,,,,,,,,,,,,,,,,,,,,0,2,2,2,0,40,40,0,,,,1132.3855804,None,1131.2022726,1132.4022022000001,s,1,丰满,k,1,0.4959449999998924,0.3177719000000252,wm,f,18,2024_Apr_09_1000,mian,2021.2.3,59.90671326608967,
,,,,,,0,0,pic/flanker6.png,pic/flanker2.png,a,l,pic/AffRest3.png,,,,,,,,,,,,,,,,,,,,,,,,,0,2,2,2,0,41,41,9,,,,1135.1524424000002,None,1133.9691812,1135.1691153000002,a,1,鲁莽,l,1,0.5674976000000242,0.3321994000000359,wm,f,18,2024_Apr_09_1000,mian,2021.2.3,59.90671326608967,
,,,,,,1,1,pic/flanker5.png,pic/flanker3.png,a,k,pic/AffRest3.png,,,,,,,,,,,,,,,,,,,,,,,,,0,2,2,2,0,42,42,60,,,,1138.1193089,None,1136.9359547000001,1138.135986,a,1,有利,k,1,0.5459820999999465,0.588356499999918,wm,f,18,2024_Apr_09_1000,mian,2021.2.3,59.90671326608967,
,,,,,,1,0,pic/flanker6.png,pic/flanker4.png,s,l,pic/AffRest3.png,,,,,,,,,,,,,,,,,,,,,,,,,0,2,2,2,0,43,43,77,,,,1141.335992,None,1140.1527105,1141.3526585,s,1,浪费,l,1,0.5005719000000681,0.49292879999984507,wm,f,18,2024_Apr_09_1000,mian,2021.2.3,59.90671326608967,
,,,,,,1,1,pic/flanker6.png,pic/flanker4.png,s,k,pic/AffRest3.png,,,,,,,,,,,,,,,,,,,,,,,,,0,2,2,2,0,44,44,22,,,,1144.35265,None,1143.169221,1144.3693321,s,1,秀丽,k,1,0.45583560000000034,0.4495824000000539,wm,f,18,2024_Apr_09_1000,mian,2021.2.3,59.90671326608967,
,,,,,,1,0,pic/flanker5.png,pic/flanker3.png,a,l,pic/AffRest3.png,,,,,,,,,,,,,,,,,,,,,,,,,0,2,2,2,0,45,45,31,,,,1147.3026388,None,1146.1190708000001,1147.3193152000001,a,1,伤心,l,1,0.44006739999986166,0.606741300000067,wm,f,18,2024_Apr_09_1000,mian,2021.2.3,59.90671326608967,
,,,,,,1,0,pic/flanker6.png,pic/flanker4.png,s,l,pic/AffRest3.png,,,,,,,,,,,,,,,,,,,,,,,,,0,2,2,2,0,46,46,53,,,,1150.3193394,None,1149.1357599,1150.3359876,s,1,别扭,l,1,0.6878898999998455,0.4724386999998842,wm,f,18,2024_Apr_09_1000,mian,2021.2.3,59.90671326608967,
,,,,,,0,0,pic/flanker6.png,pic/flanker2.png,a,l,pic/AffRest3.png,,,,,,,,,,,,,,,,,,,,,,,,,0,2,2,2,0,47,47,57,,,,1153.5526623,None,1152.3692116,1153.5693736,a,1,郁闷,l,1,0.4614555999999084,0.36973650000004454,wm,f,18,2024_Apr_09_1000,mian,2021.2.3,59.90671326608967,
,,,,,,0,0,pic/flanker6.png,pic/flanker2.png,a,l,pic/AffRest3.png,,,,,,,,,,,,,,,,,,,,,,,,,0,2,2,2,0,48,48,65,,,,1156.3694558,None,1155.1858729,1156.3860094000001,a,1,嘲笑,l,1,0.5907976999999391,0.3331229999998868,wm,f,18,2024_Apr_09_1000,mian,2021.2.3,59.90671326608967,
,,,,,,0,1,pic/flanker6.png,pic/flanker2.png,a,k,pic/AffRest3.png,,,,,,,,,,,,,,,,,,,,,,,,,0,2,2,2,0,49,49,50,,,,1159.2193427,None,1158.0352183,1159.2359259,a,1,前进,k,1,0.5625241999998707,0.3010942000000796,wm,f,18,2024_Apr_09_1000,mian,2021.2.3,59.90671326608967,
,,,,,,1,1,pic/flanker5.png,pic/flanker3.png,a,k,pic/AffRest3.png,,,,,,,,,,,,,,,,,,,,,,,,,0,2,2,2,0,50,50,28,,,,1162.0693182,None,1160.8853135,1162.0860166,a,1,富丽,k,1,0.713686800000005,0.5801516000001357,wm,f,18,2024_Apr_09_1000,mian,2021.2.3,59.90671326608967,
,,,,,,1,0,pic/flanker6.png,pic/flanker4.png,s,l,pic/AffRest3.png,,,,,,,,,,,,,,,,,,,,,,,,,0,2,2,2,0,51,51,13,,,,1165.2859996,None,1164.1025943,1165.3026826,s,1,怀疑,l,1,0.45188039999993634,0.46174680000012813,wm,f,18,2024_Apr_09_1000,mian,2021.2.3,59.90671326608967,
,,,,,,0,1,pic/flanker5.png,pic/flanker1.png,s,k,pic/AffRest3.png,,,,,,,,,,,,,,,,,,,,,,,,,0,2,2,2,0,52,52,48,,,,1168.269378,None,1167.085889,1168.2859921000002,s,1,舒畅,k,1,0.5467186999999285,0.41216819999999643,wm,f,18,2024_Apr_09_1000,mian,2021.2.3,59.90671326608967,
,,,,,,0,1,pic/flanker5.png,pic/flanker1.png,s,k,pic/AffRest3.png,,,,,,,,,,,,,,,,,,,,,,,,,0,2,2,2,0,53,53,24,,,,1171.3027039,None,1170.1191745,1171.3193108,s,1,廉洁,k,1,0.5890297999999348,0.40027919999988626,wm,f,18,2024_Apr_09_1000,mian,2021.2.3,59.90671326608967,
,,,,,,0,0,pic/flanker5.png,pic/flanker1.png,s,l,pic/AffRest3.png,,,,,,,,,,,,,,,,,,,,,,,,,0,2,2,2,0,54,54,35,,,,1174.3193695,None,1173.1359408,1174.3360633,s,1,争吵,l,1,0.46888239999998405,0.2760321999999178,wm,f,18,2024_Apr_09_1000,mian,2021.2.3,59.90671326608967,
,,,,,,0,0,pic/flanker6.png,pic/flanker2.png,a,l,pic/AffRest3.png,,,,,,,,,,,,,,,,,,,,,,,,,0,2,2,2,0,55,55,49,,,,1177.1027410000002,None,1175.9192314,1177.1194505,a,1,沮丧,l,1,0.484273900000062,0.31812959999979284,wm,f,18,2024_Apr_09_1000,mian,2021.2.3,59.90671326608967,
,,,,,,0,0,pic/flanker5.png,pic/flanker1.png,s,l,pic/AffRest3.png,,,,,,,,,,,,,,,,,,,,,,,,,0,2,2,2,0,56,56,51,,,,1179.8193211,None,1178.6359641000001,1179.8358024000001,s,1,排斥,l,1,0.49814450000008037,0.49167510000006587,wm,f,18,2024_Apr_09_1000,mian,2021.2.3,59.90671326608967,
,,,,,,0,1,pic/flanker5.png,pic/flanker1.png,s,k,pic/AffRest3.png,,,,,,,,,,,,,,,,,,,,,,,,,0,2,2,2,0,57,57,72,,,,1182.7691005000001,None,1181.5858633,1182.786131,s,1,诚恳,k,1,0.5539836999998897,0.28985880000004727,wm,f,18,2024_Apr_09_1000,mian,2021.2.3,59.90671326608967,
,,,,,,1,1,pic/flanker6.png,pic/flanker4.png,s,k,pic/AffRest3.png,,,,,,,,,,,,,,,,,,,,,,,,,0,2,2,2,0,58,58,6,,,,1185.5857620000002,None,1184.402417,1185.6025648,s,1,充裕,k,1,0.5098986000000423,0.3984287000000677,wm,f,18,2024_Apr_09_1000,mian,2021.2.3,59.90671326608967,
,,,,,,1,1,pic/flanker6.png,pic/flanker4.png,s,k,pic/AffRest3.png,,,,,,,,,,,,,,,,,,,,,,,,,0,2,2,2,0,59,59,78,,,,1188.4192301,None,1187.2359211,1188.4359858,s,1,振作,l,0,0.46223010000016984,0.41467180000017834,wm,f,18,2024_Apr_09_1000,mian,2021.2.3,59.90671326608967,
,,,,,,1,0,pic/flanker6.png,pic/flanker4.png,s,l,pic/AffRest3.png,,,,,,,,,,,,,,,,,,,,,,,,,0,2,2,2,0,60,60,69,,,,1191.30259,None,1190.1192031,1191.3192530000001,s,1,忧虑,l,1,0.5284182000000328,0.4092444999998861,wm,f,18,2024_Apr_09_1000,mian,2021.2.3,59.90671326608967,
,,,,,,0,0,pic/flanker5.png,pic/flanker1.png,s,l,pic/AffRest3.png,,,,,,,,,,,,,,,,,,,,,,,,,0,2,2,2,0,61,61,67,,,,1194.0860299,None,1192.9026813,1194.1026912,s,1,穷苦,l,1,0.6930452999999943,0.38810309999985293,wm,f,18,2024_Apr_09_1000,mian,2021.2.3,59.90671326608967,
,,,,,,1,1,pic/flanker5.png,pic/flanker3.png,a,k,pic/AffRest3.png,,,,,,,,,,,,,,,,,,,,,,,,,0,2,2,2,0,62,62,4,,,,1197.2357382,None,1196.0523395,1197.2527565,a,1,公平,k,1,0.5083437000000686,0.45138279999991937,wm,f,18,2024_Apr_09_1000,mian,2021.2.3,59.90671326608967,
,,,,,,0,0,pic/flanker5.png,pic/flanker1.png,s,l,pic/AffRest3.png,,,,,,,,,,,,,,,,,,,,,,,,,0,2,2,2,0,63,63,3,,,,1200.0354541000002,None,1198.8524562,1200.0521212,s,1,消沉,l,1,0.49833369999987553,0.3181131999999707,wm,f,18,2024_Apr_09_1000,mian,2021.2.3,59.90671326608967,
,,,,,,0,1,pic/flanker5.png,pic/flanker1.png,s,k,pic/AffRest3.png,,,,,,,,,,,,,,,,,,,,,,,,,0,2,2,2,0,64,64,40,,,,1202.8857551,None,1201.7025919,1202.9024555,s,1,热切,k,1,0.5902714999999716,0.5293291000000409,wm,f,18,2024_Apr_09_1000,mian,2021.2.3,59.90671326608967,
,,,,,,0,0,pic/flanker6.png,pic/flanker2.png,a,l,pic/AffRest3.png,,,,,,,,,,,,,,,,,,,,,,,,,0,2,2,2,0,65,65,17,,,,1205.8359135,None,1204.6528883,1205.8525392000001,a,1,悲观,l,1,0.4571232999999211,0.32135040000002846,wm,f,18,2024_Apr_09_1000,mian,2021.2.3,59.90671326608967,
,,,,,,0,0,pic/flanker6.png,pic/flanker2.png,a,l,pic/AffRest3.png,,,,,,,,,,,,,,,,,,,,,,,,,0,2,2,2,0,66,66,73,,,,1208.45245,None,1207.2692141,1208.4693409000001,a,1,厌恶,l,1,0.5606975000000602,0.3208042999999634,wm,f,18,2024_Apr_09_1000,mian,2021.2.3,59.90671326608967,
,,,,,,0,1,pic/flanker6.png,pic/flanker2.png,a,k,pic/AffRest3.png,,,,,,,,,,,,,,,,,,,,,,,,,0,2,2,2,0,67,67,58,,,,1211.2191759,None,1210.0358272,1211.2358685000002,a,1,赞成,k,1,0.6457467999998698,0.35459880000007615,wm,f,18,2024_Apr_09_1000,mian,2021.2.3,59.90671326608967,
,,,,,,1,0,pic/flanker5.png,pic/flanker3.png,a,l,pic/AffRest3.png,,,,,,,,,,,,,,,,,,,,,,,,,0,2,2,2,0,68,68,79,,,,1214.2026716,None,1213.0191296,1214.2191641,a,1,慌忙,l,1,0.6141934000002038,1.0106183999998848,wm,f,18,2024_Apr_09_1000,mian,2021.2.3,59.90671326608967,
,,,,,,1,0,pic/flanker5.png,pic/flanker3.png,a,l,pic/AffRest3.png,,,,,,,,,,,,,,,,,,,,,,,,,0,2,2,2,0,69,69,15,,,,1217.7524769000001,None,1216.5691468,1217.7693183000001,a,1,失意,l,1,0.6067603000001327,0.46006839999995464,wm,f,18,2024_Apr_09_1000,mian,2021.2.3,59.90671326608967,
,,,,,,1,1,pic/flanker6.png,pic/flanker4.png,s,k,pic/AffRest3.png,,,,,,,,,,,,,,,,,,,,,,,,,0,2,2,2,0,70,70,14,,,,1220.8192297,None,1219.6359589,1220.8359324,s,1,俊秀,k,1,0.5506596000000172,0.7380117000000155,wm,f,18,2024_Apr_09_1000,mian,2021.2.3,59.90671326608967,
,,,,,,0,1,pic/flanker6.png,pic/flanker2.png,a,k,pic/AffRest3.png,,,,,,,,,,,,,,,,,,,,,,,,,0,2,2,2,0,71,71,42,,,,1224.1526276,None,1222.9691783,1224.1693538,a,1,优雅,k,1,0.684494500000028,0.5384216999998443,wm,f,18,2024_Apr_09_1000,mian,2021.2.3,59.90671326608967,
,,,,,,1,1,pic/flanker5.png,pic/flanker3.png,a,k,pic/AffRest3.png,,,,,,,,,,,,,,,,,,,,,,,,,0,2,2,2,0,72,72,20,,,,1227.2694213,None,1226.0860458,1227.2860600000001,a,1,留恋,l,0,0.5732222000001457,0.4126463000000058,wm,f,18,2024_Apr_09_1000,mian,2021.2.3,59.90671326608967,
,,,,,,1,0,pic/flanker6.png,pic/flanker4.png,s,l,pic/AffRest3.png,,,,,,,,,,,,,,,,,,,,,,,,,0,2,2,2,0,73,73,61,,,,1230.2692519,None,1229.0857782,1230.285851,s,1,损害,l,1,1.0082969000000048,0.6616508999998132,wm,f,18,2024_Apr_09_1000,mian,2021.2.3,59.90671326608967,
,,,,,,1,0,pic/flanker6.png,pic/flanker4.png,s,l,pic/AffRest3.png,,,,,,,,,,,,,,,,,,,,,,,,,0,2,2,2,0,74,74,5,,,,1233.7527005,None,1232.5691296,1233.7692212,s,1,禁止,k,0,0.4841611000001649,0.49090000000001055,wm,f,18,2024_Apr_09_1000,mian,2021.2.3,59.90671326608967,
,,,,,,1,1,pic/flanker5.png,pic/flanker3.png,a,k,pic/AffRest3.png,,,,,,,,,,,,,,,,,,,,,,,,,0,2,2,2,0,75,75,68,,,,1236.6196003,None,1235.4359395000001,1236.6358132,None,0,旺盛,k,1,0.6553119000000152,,wm,f,18,2024_Apr_09_1000,mian,2021.2.3,59.90671326608967,
,,,,,,1,0,pic/flanker6.png,pic/flanker4.png,s,l,pic/AffRest3.png,,,,,,,,,,,,,,,,,,,,,,,,,0,2,2,2,0,76,76,45,,,,1240.6025341,None,1239.4192751,1240.6191875,s,1,假冒,l,1,0.7261611999999786,0.8116781000001083,wm,f,18,2024_Apr_09_1000,mian,2021.2.3,59.90671326608967,
,,,,,,0,0,pic/flanker5.png,pic/flanker1.png,s,l,pic/AffRest3.png,,,,,,,,,,,,,,,,,,,,,,,,,0,2,2,2,0,77,77,43,,,,1244.1693372,None,1242.9859377,1244.1859266000001,s,1,冷笑,l,1,0.5495300999998562,0.4521084000000428,wm,f,18,2024_Apr_09_1000,mian,2021.2.3,59.90671326608967,
,,,,,,0,0,pic/flanker6.png,pic/flanker2.png,a,l,pic/AffRest3.png,,,,,,,,,,,,,,,,,,,,,,,,,0,2,2,2,0,78,78,33,,,,1247.1527222,None,1245.9692871,1247.1692929,a,1,黑暗,l,1,0.5093156000000363,0.5359736000000339,wm,f,18,2024_Apr_09_1000,mian,2021.2.3,59.90671326608967,
,,,,,,0,1,pic/flanker5.png,pic/flanker1.png,s,k,pic/AffRest3.png,,,,,,,,,,,,,,,,,,,,,,,,,0,2,2,2,0,79,79,16,,,,1250.1853217,None,1249.0021217,1250.2021067,s,1,清秀,k,1,0.5573383000000831,0.38714699999991353,wm,f,18,2024_Apr_09_1000,mian,2021.2.3,59.90671326608967,
,,,,,,,,,,,,pic/AffRest3.png,,,,,,,,,,,,,,,,,,,,,,,,,0,2,2,2,,,,,,,,,,,,,,,,,,,wm,f,18,2024_Apr_09_1000,mian,2021.2.3,59.90671326608967,
,,,,,,0,0,pic/flanker6.png,pic/flanker2.png,a,l,pic/EndExp.PNG,,,,,,,,,,,,,,,,,,,,,,,,,0,3,3,3,0,0,0,25,,,,1280.6193568,None,1279.4311693,1280.6359826,a,1,争吵,l,1,0.5725577999999132,0.30901029999995444,wm,f,18,2024_Apr_09_1000,mian,2021.2.3,59.90671326608967,
,,,,,,0,0,pic/flanker5.png,pic/flanker1.png,s,l,pic/EndExp.PNG,,,,,,,,,,,,,,,,,,,,,,,,,0,3,3,3,0,1,1,51,,,,1283.5861456,None,1282.4025011,1283.6028213,s,1,别扭,l,1,0.4952832999999828,0.4479709999998249,wm,f,18,2024_Apr_09_1000,mian,2021.2.3,59.90671326608967,
,,,,,,0,1,pic/flanker6.png,pic/flanker2.png,a,k,pic/EndExp.PNG,,,,,,,,,,,,,,,,,,,,,,,,,0,3,3,3,0,2,2,34,,,,1286.3860806,None,1285.2026717,1286.4026724,a,1,赞成,k,1,0.5340759000000617,0.3045887999999195,wm,f,18,2024_Apr_09_1000,mian,2021.2.3,59.90671326608967,
,,,,,,0,0,pic/flanker6.png,pic/flanker2.png,a,l,pic/EndExp.PNG,,,,,,,,,,,,,,,,,,,,,,,,,0,3,3,3,0,3,3,33,,,,1289.1693683,None,1287.9859754000001,1289.1860405,a,1,心慌,l,1,0.49824309999985417,0.29790860000002795,wm,f,18,2024_Apr_09_1000,mian,2021.2.3,59.90671326608967,
,,,,,,1,0,pic/flanker6.png,pic/flanker4.png,s,l,pic/EndExp.PNG,,,,,,,,,,,,,,,,,,,,,,,,,0,3,3,3,0,4,4,37,,,,1291.8860212,None,1290.7026217,1291.9025838,s,1,落后,l,1,0.49380780000001323,0.5081766000000698,wm,f,18,2024_Apr_09_1000,mian,2021.2.3,59.90671326608967,
,,,,,,0,0,pic/flanker5.png,pic/flanker1.png,s,l,pic/EndExp.PNG,,,,,,,,,,,,,,,,,,,,,,,,,0,3,3,3,0,5,5,11,,,,1294.7193426000001,None,1293.536026,1294.7359767,s,1,逃避,l,1,0.7595982000000276,0.3462428000000273,wm,f,18,2024_Apr_09_1000,mian,2021.2.3,59.90671326608967,
,,,,,,0,1,pic/flanker6.png,pic/flanker2.png,a,k,pic/EndExp.PNG,,,,,,,,,,,,,,,,,,,,,,,,,0,3,3,3,0,6,6,18,,,,1297.8528225,None,1296.669231,1297.8695077,a,1,富足,k,1,0.46838049999996656,0.3015898000001016,wm,f,18,2024_Apr_09_1000,mian,2021.2.3,59.90671326608967,
,,,,,,1,0,pic/flanker5.png,pic/flanker3.png,a,l,pic/EndExp.PNG,,,,,,,,,,,,,,,,,,,,,,,,,0,3,3,3,0,7,7,39,,,,1300.7026653,None,1299.5192092,1300.7193378,a,1,消沉,l,1,0.46999060000007375,0.5337637000000086,wm,f,18,2024_Apr_09_1000,mian,2021.2.3,59.90671326608967,
,,,,,,0,0,pic/flanker6.png,pic/flanker2.png,a,l,pic/EndExp.PNG,,,,,,,,,,,,,,,,,,,,,,,,,0,3,3,3,0,8,8,1,,,,1303.5693676,None,1302.3859988000002,1303.5860817,a,1,沮丧,k,0,0.45895530000007057,0.34925859999998465,wm,f,18,2024_Apr_09_1000,mian,2021.2.3,59.90671326608967,
,,,,,,0,1,pic/flanker5.png,pic/flanker1.png,s,k,pic/EndExp.PNG,,,,,,,,,,,,,,,,,,,,,,,,,0,3,3,3,0,9,9,32,,,,1306.4359548,None,1305.2526424,1306.4527327,s,1,优雅,k,1,0.49842069999999694,0.5002159000000574,wm,f,18,2024_Apr_09_1000,mian,2021.2.3,59.90671326608967,
,,,,,,0,0,pic/flanker5.png,pic/flanker1.png,s,l,pic/EndExp.PNG,,,,,,,,,,,,,,,,,,,,,,,,,0,3,3,3,0,10,10,3,,,,1309.4194514,None,1308.2360034,1309.4360353,s,1,懒惰,l,1,0.7297456999999667,0.4120436000000609,wm,f,18,2024_Apr_09_1000,mian,2021.2.3,59.90671326608967,
