target,反应类型,条件,truetarget,CorAns,Position,congruency,AffValue,flankerPic,targetPic,corAnsF,corAnsA,RestPic,returnPractice.thisRepN,returnPractice.thisTrialN,returnPractice.thisN,returnPractice.thisIndex,pracNum.thisRepN,pracNum.thisTrialN,pracNum.thisN,pracNum.thisIndex,NumBlock1.thisRepN,NumBlock1.thisTrialN,NumBlock1.thisN,NumBlock1.thisIndex,NumBlock2.thisRepN,NumBlock2.thisTrialN,NumBlock2.thisN,NumBlock2.thisIndex,returnPrac.thisRepN,returnPrac.thisTrialN,returnPrac.thisN,returnPrac.thisIndex,PracAff.thisRepN,PracAff.thisTrialN,PracAff.thisN,PracAff.thisIndex,AffBlocks.thisRepN,AffBlocks.thisTrialN,AffBlocks.thisN,AffBlocks.thisIndex,AffBlock1.thisRepN,AffBlock1.thisTrialN,AffBlock1.thisN,AffBlock1.thisIndex,respNum2word.keys,respNum2word.corr,respNum2word.rt,text.started,text.stopped,blank.started,blank.stopped,respFlanker.keys,respFlanker.corr,respFlanker.rt,thisWord,respAffWord.keys,respAffWord.corr,respAffWord.rt,姓名,性别,年龄（周岁）,date,expName,psychopyVersion,frameRate,
2A,1,1,A,a,"[0.2, 0.2]",,,,,,,,0,0,0,0,0,0,0,0,,,,,,,,,,,,,,,,,,,,,,,,,l,0,0.6140773000006448,,,,,,,,,,,,wwt,f,23,2024_Apr_11_1125,mian,2021.2.3,59.768290292117356,
A9,1,2,A,a,"[-0.2, 0.2]",,,,,,,,0,0,0,0,0,1,1,1,,,,,,,,,,,,,,,,,,,,,,,,,a,1,1.8006762000004528,,,,,,,,,,,,wwt,f,23,2024_Apr_11_1125,mian,2021.2.3,59.768290292117356,
7e,2,1,7.0,a,"[-0.2, -0.2]",,,,,,,,0,0,0,0,0,2,2,2,,,,,,,,,,,,,,,,,,,,,,,,,l,0,4.231553499999791,,,,,,,,,,,,wwt,f,23,2024_Apr_11_1125,mian,2021.2.3,59.768290292117356,
9H,2,2,9.0,a,"[0.2, -0.2]",,,,,,,,0,0,0,0,0,3,3,3,,,,,,,,,,,,,,,,,,,,,,,,,None,0,,,,,,,,,,,,,wwt,f,23,2024_Apr_11_1125,mian,2021.2.3,59.768290292117356,
h4,1,1,h,l,"[0.2, 0.2]",,,,,,,,0,0,0,0,0,4,4,4,,,,,,,,,,,,,,,,,,,,,,,,,l,1,3.1358651999998983,,,,,,,,,,,,wwt,f,23,2024_Apr_11_1125,mian,2021.2.3,59.768290292117356,
4H,1,2,H,a,"[-0.2, 0.2]",,,,,,,,0,0,0,0,0,5,5,5,,,,,,,,,,,,,,,,,,,,,,,,,a,1,3.318941999999879,,,,,,,,,,,,wwt,f,23,2024_Apr_11_1125,mian,2021.2.3,59.768290292117356,
F8,2,1,8.0,l,"[-0.2, -0.2]",,,,,,,,0,0,0,0,0,6,6,6,,,,,,,,,,,,,,,,,,,,,,,,,l,1,1.6006508000000395,,,,,,,,,,,,wwt,f,23,2024_Apr_11_1125,mian,2021.2.3,59.768290292117356,
h7,2,2,7.0,a,"[0.2, -0.2]",,,,,,,,0,0,0,0,0,7,7,7,,,,,,,,,,,,,,,,,,,,,,,,,a,1,1.7025831999999355,,,,,,,,,,,,wwt,f,23,2024_Apr_11_1125,mian,2021.2.3,59.768290292117356,
5e,1,1,e,l,"[0.2, 0.2]",,,,,,,,0,0,0,0,0,8,8,8,,,,,,,,,,,,,,,,,,,,,,,,,l,1,1.6190968000000794,,,,,,,,,,,,wwt,f,23,2024_Apr_11_1125,mian,2021.2.3,59.768290292117356,
e8,1,2,e,l,"[-0.2, 0.2]",,,,,,,,0,0,0,0,0,9,9,9,,,,,,,,,,,,,,,,,,,,,,,,,l,1,1.9706146999997145,,,,,,,,,,,,wwt,f,23,2024_Apr_11_1125,mian,2021.2.3,59.768290292117356,
4E,2,1,4.0,l,"[-0.2, -0.2]",,,,,,,,0,0,0,0,0,10,10,10,,,,,,,,,,,,,,,,,,,,,,,,,l,1,1.5149074000000837,,,,,,,,,,,,wwt,f,23,2024_Apr_11_1125,mian,2021.2.3,59.768290292117356,
5H,2,2,5.0,a,"[0.2, -0.2]",,,,,,,,0,0,0,0,0,11,11,11,,,,,,,,,,,,,,,,,,,,,,,,,a,1,1.446714499999871,,,,,,,,,,,,wwt,f,23,2024_Apr_11_1125,mian,2021.2.3,59.768290292117356,
9E,1,1,E,a,"[0.2, 0.2]",,,,,,,,0,0,0,0,0,12,12,12,,,,,,,,,,,,,,,,,,,,,,,,,a,1,4.048721600000135,,,,,,,,,,,,wwt,f,23,2024_Apr_11_1125,mian,2021.2.3,59.768290292117356,
h9,1,2,h,l,"[-0.2, 0.2]",,,,,,,,0,0,0,0,0,13,13,13,,,,,,,,,,,,,,,,,,,,,,,,,l,1,1.0627325999994355,,,,,,,,,,,,wwt,f,23,2024_Apr_11_1125,mian,2021.2.3,59.768290292117356,
2a,2,1,2.0,l,"[-0.2, -0.2]",,,,,,,,0,0,0,0,0,14,14,14,,,,,,,,,,,,,,,,,,,,,,,,,l,1,1.3088371999992887,,,,,,,,,,,,wwt,f,23,2024_Apr_11_1125,mian,2021.2.3,59.768290292117356,
e5,2,2,5.0,a,"[0.2, -0.2]",,,,,,,,0,0,0,0,0,15,15,15,,,,,,,,,,,,,,,,,,,,,,,,,a,1,1.3273949000003995,,,,,,,,,,,,wwt,f,23,2024_Apr_11_1125,mian,2021.2.3,59.768290292117356,
A5,1,1,A,a,"[0.2, 0.2]",,,,,,,,0,0,0,0,0,16,16,16,,,,,,,,,,,,,,,,,,,,,,,,,a,1,2.5918655000004946,,,,,,,,,,,,wwt,f,23,2024_Apr_11_1125,mian,2021.2.3,59.768290292117356,
a6,1,2,a,l,"[-0.2, 0.2]",,,,,,,,0,0,0,0,0,17,17,17,,,,,,,,,,,,,,,,,,,,,,,,,l,1,1.0030163999999786,,,,,,,,,,,,wwt,f,23,2024_Apr_11_1125,mian,2021.2.3,59.768290292117356,
2F,2,1,2.0,l,"[-0.2, -0.2]",,,,,,,,0,0,0,0,0,18,18,18,,,,,,,,,,,,,,,,,,,,,,,,,l,1,1.637236099999427,,,,,,,,,,,,wwt,f,23,2024_Apr_11_1125,mian,2021.2.3,59.768290292117356,
e4,2,2,4.0,l,"[0.2, -0.2]",,,,,,,,0,0,0,0,0,19,19,19,,,,,,,,,,,,,,,,,,,,,,,,,l,1,1.491308100000424,,,,,,,,,,,,wwt,f,23,2024_Apr_11_1125,mian,2021.2.3,59.768290292117356,
,,,,,,,,,,,,,0,0,0,0,,,,,,,,,,,,,,,,,,,,,,,,,,,,,,,,,,,,,,,,,,,wwt,f,23,2024_Apr_11_1125,mian,2021.2.3,59.768290292117356,
7h,1,1,h,l,"[0.2, 0.2]",,,,,,,,,,,,,,,,0,0,0,0,,,,,,,,,,,,,,,,,,,,,l,1,2.062179699999433,,,,,,,,,,,,wwt,f,23,2024_Apr_11_1125,mian,2021.2.3,59.768290292117356,
8F,1,2,F,a,"[-0.2, 0.2]",,,,,,,,,,,,,,,,0,1,1,1,,,,,,,,,,,,,,,,,,,,,a,1,1.8035553999998228,,,,,,,,,,,,wwt,f,23,2024_Apr_11_1125,mian,2021.2.3,59.768290292117356,
8h,2,1,8.0,l,"[-0.2, -0.2]",,,,,,,,,,,,,,,,0,2,2,2,,,,,,,,,,,,,,,,,,,,,l,1,1.132756199999676,,,,,,,,,,,,wwt,f,23,2024_Apr_11_1125,mian,2021.2.3,59.768290292117356,
a2,2,2,2.0,l,"[0.2, -0.2]",,,,,,,,,,,,,,,,0,3,3,3,,,,,,,,,,,,,,,,,,,,,l,1,0.837486400000671,,,,,,,,,,,,wwt,f,23,2024_Apr_11_1125,mian,2021.2.3,59.768290292117356,
8f,1,1,f,l,"[0.2, 0.2]",,,,,,,,,,,,,,,,0,4,4,4,,,,,,,,,,,,,,,,,,,,,l,1,1.6136665000003632,,,,,,,,,,,,wwt,f,23,2024_Apr_11_1125,mian,2021.2.3,59.768290292117356,
6a,1,2,a,l,"[-0.2, 0.2]",,,,,,,,,,,,,,,,0,5,5,5,,,,,,,,,,,,,,,,,,,,,l,1,1.1198281999995743,,,,,,,,,,,,wwt,f,23,2024_Apr_11_1125,mian,2021.2.3,59.768290292117356,
h6,2,1,6.0,l,"[-0.2, -0.2]",,,,,,,,,,,,,,,,0,6,6,6,,,,,,,,,,,,,,,,,,,,,l,1,1.1411772000001292,,,,,,,,,,,,wwt,f,23,2024_Apr_11_1125,mian,2021.2.3,59.768290292117356,
f9,2,2,9.0,a,"[0.2, -0.2]",,,,,,,,,,,,,,,,0,7,7,7,,,,,,,,,,,,,,,,,,,,,a,1,0.7422950000000128,,,,,,,,,,,,wwt,f,23,2024_Apr_11_1125,mian,2021.2.3,59.768290292117356,
E4,1,1,E,a,"[0.2, 0.2]",,,,,,,,,,,,,,,,0,8,8,8,,,,,,,,,,,,,,,,,,,,,a,1,1.930056400000467,,,,,,,,,,,,wwt,f,23,2024_Apr_11_1125,mian,2021.2.3,59.768290292117356,
6e,1,2,e,l,"[-0.2, 0.2]",,,,,,,,,,,,,,,,0,9,9,9,,,,,,,,,,,,,,,,,,,,,l,1,0.799852600000122,,,,,,,,,,,,wwt,f,23,2024_Apr_11_1125,mian,2021.2.3,59.768290292117356,
5G,2,1,5.0,a,"[-0.2, -0.2]",,,,,,,,,,,,,,,,0,10,10,10,,,,,,,,,,,,,,,,,,,,,a,1,1.4930175999998028,,,,,,,,,,,,wwt,f,23,2024_Apr_11_1125,mian,2021.2.3,59.768290292117356,
h3,2,2,3.0,a,"[0.2, -0.2]",,,,,,,,,,,,,,,,0,11,11,11,,,,,,,,,,,,,,,,,,,,,a,1,1.1206469999997353,,,,,,,,,,,,wwt,f,23,2024_Apr_11_1125,mian,2021.2.3,59.768290292117356,
9e,1,1,e,l,"[0.2, 0.2]",,,,,,,,,,,,,,,,0,12,12,12,,,,,,,,,,,,,,,,,,,,,l,1,3.996494900000471,,,,,,,,,,,,wwt,f,23,2024_Apr_11_1125,mian,2021.2.3,59.768290292117356,
a8,1,2,a,l,"[-0.2, 0.2]",,,,,,,,,,,,,,,,0,13,13,13,,,,,,,,,,,,,,,,,,,,,l,1,1.028957900000023,,,,,,,,,,,,wwt,f,23,2024_Apr_11_1125,mian,2021.2.3,59.768290292117356,
e8,2,1,8.0,l,"[-0.2, -0.2]",,,,,,,,,,,,,,,,0,14,14,14,,,,,,,,,,,,,,,,,,,,,l,1,2.8311366999996608,,,,,,,,,,,,wwt,f,23,2024_Apr_11_1125,mian,2021.2.3,59.768290292117356,
3f,2,2,3.0,a,"[0.2, -0.2]",,,,,,,,,,,,,,,,0,15,15,15,,,,,,,,,,,,,,,,,,,,,a,1,1.4104207999998835,,,,,,,,,,,,wwt,f,23,2024_Apr_11_1125,mian,2021.2.3,59.768290292117356,
7f,1,1,f,l,"[0.2, 0.2]",,,,,,,,,,,,,,,,0,16,16,16,,,,,,,,,,,,,,,,,,,,,l,1,1.432673899999827,,,,,,,,,,,,wwt,f,23,2024_Apr_11_1125,mian,2021.2.3,59.768290292117356,
a7,1,2,a,l,"[-0.2, 0.2]",,,,,,,,,,,,,,,,0,17,17,17,,,,,,,,,,,,,,,,,,,,,l,1,0.8039631999999983,,,,,,,,,,,,wwt,f,23,2024_Apr_11_1125,mian,2021.2.3,59.768290292117356,
5A,2,1,5.0,a,"[-0.2, -0.2]",,,,,,,,,,,,,,,,0,18,18,18,,,,,,,,,,,,,,,,,,,,,a,1,0.5248210999998264,,,,,,,,,,,,wwt,f,23,2024_Apr_11_1125,mian,2021.2.3,59.768290292117356,
8g,2,2,8.0,l,"[0.2, -0.2]",,,,,,,,,,,,,,,,0,19,19,19,,,,,,,,,,,,,,,,,,,,,l,1,0.6896117999995113,,,,,,,,,,,,wwt,f,23,2024_Apr_11_1125,mian,2021.2.3,59.768290292117356,
9a,1,1,a,l,"[0.2, 0.2]",,,,,,,,,,,,,,,,0,20,20,20,,,,,,,,,,,,,,,,,,,,,l,1,0.7839876999996704,,,,,,,,,,,,wwt,f,23,2024_Apr_11_1125,mian,2021.2.3,59.768290292117356,
f7,1,2,f,l,"[-0.2, 0.2]",,,,,,,,,,,,,,,,0,21,21,21,,,,,,,,,,,,,,,,,,,,,l,1,0.7348558000003322,,,,,,,,,,,,wwt,f,23,2024_Apr_11_1125,mian,2021.2.3,59.768290292117356,
g9,2,1,9.0,a,"[-0.2, -0.2]",,,,,,,,,,,,,,,,0,22,22,22,,,,,,,,,,,,,,,,,,,,,a,1,1.659792500000549,,,,,,,,,,,,wwt,f,23,2024_Apr_11_1125,mian,2021.2.3,59.768290292117356,
3h,2,2,3.0,a,"[0.2, -0.2]",,,,,,,,,,,,,,,,0,23,23,23,,,,,,,,,,,,,,,,,,,,,a,1,0.5858258999996906,,,,,,,,,,,,wwt,f,23,2024_Apr_11_1125,mian,2021.2.3,59.768290292117356,
E6,1,1,E,a,"[0.2, 0.2]",,,,,,,,,,,,,,,,0,24,24,24,,,,,,,,,,,,,,,,,,,,,a,1,1.816016099999615,,,,,,,,,,,,wwt,f,23,2024_Apr_11_1125,mian,2021.2.3,59.768290292117356,
F6,1,2,F,a,"[-0.2, 0.2]",,,,,,,,,,,,,,,,0,25,25,25,,,,,,,,,,,,,,,,,,,,,a,1,0.6828862000002118,,,,,,,,,,,,wwt,f,23,2024_Apr_11_1125,mian,2021.2.3,59.768290292117356,
3A,2,1,3.0,a,"[-0.2, -0.2]",,,,,,,,,,,,,,,,0,26,26,26,,,,,,,,,,,,,,,,,,,,,a,1,1.5373578999997335,,,,,,,,,,,,wwt,f,23,2024_Apr_11_1125,mian,2021.2.3,59.768290292117356,
8H,2,2,8.0,l,"[0.2, -0.2]",,,,,,,,,,,,,,,,0,27,27,27,,,,,,,,,,,,,,,,,,,,,l,1,0.6217322000002241,,,,,,,,,,,,wwt,f,23,2024_Apr_11_1125,mian,2021.2.3,59.768290292117356,
5a,1,1,a,l,"[0.2, 0.2]",,,,,,,,,,,,,,,,0,28,28,28,,,,,,,,,,,,,,,,,,,,,l,1,1.0510429000005388,,,,,,,,,,,,wwt,f,23,2024_Apr_11_1125,mian,2021.2.3,59.768290292117356,
2h,1,2,h,l,"[-0.2, 0.2]",,,,,,,,,,,,,,,,0,29,29,29,,,,,,,,,,,,,,,,,,,,,l,1,0.8900174000000334,,,,,,,,,,,,wwt,f,23,2024_Apr_11_1125,mian,2021.2.3,59.768290292117356,
e5,2,1,5.0,a,"[-0.2, -0.2]",,,,,,,,,,,,,,,,0,30,30,30,,,,,,,,,,,,,,,,,,,,,a,1,1.0814596000000165,,,,,,,,,,,,wwt,f,23,2024_Apr_11_1125,mian,2021.2.3,59.768290292117356,
a3,2,2,3.0,a,"[0.2, -0.2]",,,,,,,,,,,,,,,,0,31,31,31,,,,,,,,,,,,,,,,,,,,,a,1,0.5798336000007112,,,,,,,,,,,,wwt,f,23,2024_Apr_11_1125,mian,2021.2.3,59.768290292117356,
f3,1,1,f,l,"[0.2, 0.2]",,,,,,,,,,,,,,,,0,32,32,32,,,,,,,,,,,,,,,,,,,,,l,1,0.8463031999999657,,,,,,,,,,,,wwt,f,23,2024_Apr_11_1125,mian,2021.2.3,59.768290292117356,
2E,1,2,E,a,"[-0.2, 0.2]",,,,,,,,,,,,,,,,0,33,33,33,,,,,,,,,,,,,,,,,,,,,a,1,0.6841045000001031,,,,,,,,,,,,wwt,f,23,2024_Apr_11_1125,mian,2021.2.3,59.768290292117356,
2H,2,1,2.0,l,"[-0.2, -0.2]",,,,,,,,,,,,,,,,0,34,34,34,,,,,,,,,,,,,,,,,,,,,l,1,1.3862927000000127,,,,,,,,,,,,wwt,f,23,2024_Apr_11_1125,mian,2021.2.3,59.768290292117356,
H8,2,2,8.0,l,"[0.2, -0.2]",,,,,,,,,,,,,,,,0,35,35,35,,,,,,,,,,,,,,,,,,,,,l,1,0.7329341000004206,,,,,,,,,,,,wwt,f,23,2024_Apr_11_1125,mian,2021.2.3,59.768290292117356,
9g,1,1,g,l,"[0.2, 0.2]",,,,,,,,,,,,,,,,0,36,36,36,,,,,,,,,,,,,,,,,,,,,l,1,3.1584783999996944,,,,,,,,,,,,wwt,f,23,2024_Apr_11_1125,mian,2021.2.3,59.768290292117356,
5h,1,2,h,l,"[-0.2, 0.2]",,,,,,,,,,,,,,,,0,37,37,37,,,,,,,,,,,,,,,,,,,,,l,1,0.6483918000003541,,,,,,,,,,,,wwt,f,23,2024_Apr_11_1125,mian,2021.2.3,59.768290292117356,
e4,2,1,4.0,l,"[-0.2, -0.2]",,,,,,,,,,,,,,,,0,38,38,38,,,,,,,,,,,,,,,,,,,,,l,1,1.6558242999999493,,,,,,,,,,,,wwt,f,23,2024_Apr_11_1125,mian,2021.2.3,59.768290292117356,
9h,2,2,9.0,a,"[0.2, -0.2]",,,,,,,,,,,,,,,,0,39,39,39,,,,,,,,,,,,,,,,,,,,,a,1,0.5790184000006775,,,,,,,,,,,,wwt,f,23,2024_Apr_11_1125,mian,2021.2.3,59.768290292117356,
G3,1,1,G,a,"[0.2, 0.2]",,,,,,,,,,,,,,,,0,40,40,40,,,,,,,,,,,,,,,,,,,,,a,1,1.1052500999994663,,,,,,,,,,,,wwt,f,23,2024_Apr_11_1125,mian,2021.2.3,59.768290292117356,
9A,1,2,A,a,"[-0.2, 0.2]",,,,,,,,,,,,,,,,0,41,41,41,,,,,,,,,,,,,,,,,,,,,a,1,0.759308300000157,,,,,,,,,,,,wwt,f,23,2024_Apr_11_1125,mian,2021.2.3,59.768290292117356,
H5,2,1,5.0,a,"[-0.2, -0.2]",,,,,,,,,,,,,,,,0,42,42,42,,,,,,,,,,,,,,,,,,,,,a,1,1.0150176000006468,,,,,,,,,,,,wwt,f,23,2024_Apr_11_1125,mian,2021.2.3,59.768290292117356,
4e,2,2,4.0,l,"[0.2, -0.2]",,,,,,,,,,,,,,,,0,43,43,43,,,,,,,,,,,,,,,,,,,,,l,1,1.1957173999999213,,,,,,,,,,,,wwt,f,23,2024_Apr_11_1125,mian,2021.2.3,59.768290292117356,
E2,1,1,E,a,"[0.2, 0.2]",,,,,,,,,,,,,,,,0,44,44,44,,,,,,,,,,,,,,,,,,,,,a,1,1.0179121999999552,,,,,,,,,,,,wwt,f,23,2024_Apr_11_1125,mian,2021.2.3,59.768290292117356,
A5,1,2,A,a,"[-0.2, 0.2]",,,,,,,,,,,,,,,,0,45,45,45,,,,,,,,,,,,,,,,,,,,,a,1,0.5565081000004284,,,,,,,,,,,,wwt,f,23,2024_Apr_11_1125,mian,2021.2.3,59.768290292117356,
2A,2,1,2.0,l,"[-0.2, -0.2]",,,,,,,,,,,,,,,,0,46,46,46,,,,,,,,,,,,,,,,,,,,,l,1,1.5178073000006407,,,,,,,,,,,,wwt,f,23,2024_Apr_11_1125,mian,2021.2.3,59.768290292117356,
6G,2,2,6.0,l,"[0.2, -0.2]",,,,,,,,,,,,,,,,0,47,47,47,,,,,,,,,,,,,,,,,,,,,l,1,0.8980828000003385,,,,,,,,,,,,wwt,f,23,2024_Apr_11_1125,mian,2021.2.3,59.768290292117356,
H3,1,1,H,a,"[0.2, 0.2]",,,,,,,,,,,,,,,,0,48,48,48,,,,,,,,,,,,,,,,,,,,,a,1,2.2527767999999924,,,,,,,,,,,,wwt,f,23,2024_Apr_11_1125,mian,2021.2.3,59.768290292117356,
H2,1,2,H,a,"[-0.2, 0.2]",,,,,,,,,,,,,,,,0,49,49,49,,,,,,,,,,,,,,,,,,,,,a,1,0.4021800999998959,,,,,,,,,,,,wwt,f,23,2024_Apr_11_1125,mian,2021.2.3,59.768290292117356,
e9,2,1,9.0,a,"[-0.2, -0.2]",,,,,,,,,,,,,,,,0,50,50,50,,,,,,,,,,,,,,,,,,,,,a,1,0.769885499999873,,,,,,,,,,,,wwt,f,23,2024_Apr_11_1125,mian,2021.2.3,59.768290292117356,
2G,2,2,2.0,l,"[0.2, -0.2]",,,,,,,,,,,,,,,,0,51,51,51,,,,,,,,,,,,,,,,,,,,,l,1,0.6457704000004014,,,,,,,,,,,,wwt,f,23,2024_Apr_11_1125,mian,2021.2.3,59.768290292117356,
4f,1,1,f,l,"[0.2, 0.2]",,,,,,,,,,,,,,,,0,52,52,52,,,,,,,,,,,,,,,,,,,,,l,1,0.9355116999995516,,,,,,,,,,,,wwt,f,23,2024_Apr_11_1125,mian,2021.2.3,59.768290292117356,
H6,1,2,H,a,"[-0.2, 0.2]",,,,,,,,,,,,,,,,0,53,53,53,,,,,,,,,,,,,,,,,,,,,a,1,1.6318320000000313,,,,,,,,,,,,wwt,f,23,2024_Apr_11_1125,mian,2021.2.3,59.768290292117356,
A4,2,1,4.0,l,"[-0.2, -0.2]",,,,,,,,,,,,,,,,0,54,54,54,,,,,,,,,,,,,,,,,,,,,l,1,1.2655138999998599,,,,,,,,,,,,wwt,f,23,2024_Apr_11_1125,mian,2021.2.3,59.768290292117356,
3F,2,2,3.0,a,"[0.2, -0.2]",,,,,,,,,,,,,,,,0,55,55,55,,,,,,,,,,,,,,,,,,,,,a,1,0.6723860000001878,,,,,,,,,,,,wwt,f,23,2024_Apr_11_1125,mian,2021.2.3,59.768290292117356,
7e,1,1,e,l,"[0.2, 0.2]",,,,,,,,,,,,,,,,0,56,56,56,,,,,,,,,,,,,,,,,,,,,l,1,1.4739552000000913,,,,,,,,,,,,wwt,f,23,2024_Apr_11_1125,mian,2021.2.3,59.768290292117356,
F9,1,2,F,a,"[-0.2, 0.2]",,,,,,,,,,,,,,,,0,57,57,57,,,,,,,,,,,,,,,,,,,,,a,1,1.1228008999996746,,,,,,,,,,,,wwt,f,23,2024_Apr_11_1125,mian,2021.2.3,59.768290292117356,
e2,2,1,2.0,l,"[-0.2, -0.2]",,,,,,,,,,,,,,,,0,58,58,58,,,,,,,,,,,,,,,,,,,,,l,1,1.185996499999419,,,,,,,,,,,,wwt,f,23,2024_Apr_11_1125,mian,2021.2.3,59.768290292117356,
5F,2,2,5.0,a,"[0.2, -0.2]",,,,,,,,,,,,,,,,0,59,59,59,,,,,,,,,,,,,,,,,,,,,a,1,0.6355789999997796,,,,,,,,,,,,wwt,f,23,2024_Apr_11_1125,mian,2021.2.3,59.768290292117356,
f6,1,1,f,l,"[0.2, 0.2]",,,,,,,,,,,,,,,,0,60,60,60,,,,,,,,,,,,,,,,,,,,,l,1,0.940310099999806,,,,,,,,,,,,wwt,f,23,2024_Apr_11_1125,mian,2021.2.3,59.768290292117356,
7G,1,2,G,a,"[-0.2, 0.2]",,,,,,,,,,,,,,,,0,61,61,61,,,,,,,,,,,,,,,,,,,,,a,1,0.530431199999839,,,,,,,,,,,,wwt,f,23,2024_Apr_11_1125,mian,2021.2.3,59.768290292117356,
e6,2,1,6.0,l,"[-0.2, -0.2]",,,,,,,,,,,,,,,,0,62,62,62,,,,,,,,,,,,,,,,,,,,,l,1,1.3111080999997284,,,,,,,,,,,,wwt,f,23,2024_Apr_11_1125,mian,2021.2.3,59.768290292117356,
3G,2,2,3.0,a,"[0.2, -0.2]",,,,,,,,,,,,,,,,0,63,63,63,,,,,,,,,,,,,,,,,,,,,a,1,0.581745100000262,,,,,,,,,,,,wwt,f,23,2024_Apr_11_1125,mian,2021.2.3,59.768290292117356,
5E,1,1,E,a,"[0.2, 0.2]",,,,,,,,,,,,,,,,0,64,64,64,,,,,,,,,,,,,,,,,,,,,a,1,1.2877820999992764,,,,,,,,,,,,wwt,f,23,2024_Apr_11_1125,mian,2021.2.3,59.768290292117356,
A6,1,2,A,a,"[-0.2, 0.2]",,,,,,,,,,,,,,,,0,65,65,65,,,,,,,,,,,,,,,,,,,,,a,1,0.7675368000000162,,,,,,,,,,,,wwt,f,23,2024_Apr_11_1125,mian,2021.2.3,59.768290292117356,
E3,2,1,3.0,a,"[-0.2, -0.2]",,,,,,,,,,,,,,,,0,66,66,66,,,,,,,,,,,,,,,,,,,,,a,1,2.0153557000003275,,,,,,,,,,,,wwt,f,23,2024_Apr_11_1125,mian,2021.2.3,59.768290292117356,
2f,2,2,2.0,l,"[0.2, -0.2]",,,,,,,,,,,,,,,,0,67,67,67,,,,,,,,,,,,,,,,,,,,,l,1,0.5693753999994442,,,,,,,,,,,,wwt,f,23,2024_Apr_11_1125,mian,2021.2.3,59.768290292117356,
g3,1,1,g,l,"[0.2, 0.2]",,,,,,,,,,,,,,,,0,68,68,68,,,,,,,,,,,,,,,,,,,,,l,1,1.5284956999994392,,,,,,,,,,,,wwt,f,23,2024_Apr_11_1125,mian,2021.2.3,59.768290292117356,
E8,1,2,E,a,"[-0.2, 0.2]",,,,,,,,,,,,,,,,0,69,69,69,,,,,,,,,,,,,,,,,,,,,a,1,0.5030405999996219,,,,,,,,,,,,wwt,f,23,2024_Apr_11_1125,mian,2021.2.3,59.768290292117356,
6g,2,1,6.0,l,"[-0.2, -0.2]",,,,,,,,,,,,,,,,0,70,70,70,,,,,,,,,,,,,,,,,,,,,l,1,0.9424228000007133,,,,,,,,,,,,wwt,f,23,2024_Apr_11_1125,mian,2021.2.3,59.768290292117356,
5H,2,2,5.0,a,"[0.2, -0.2]",,,,,,,,,,,,,,,,0,71,71,71,,,,,,,,,,,,,,,,,,,,,a,1,0.4574649000005593,,,,,,,,,,,,wwt,f,23,2024_Apr_11_1125,mian,2021.2.3,59.768290292117356,
4A,1,1,A,a,"[0.2, 0.2]",,,,,,,,,,,,,,,,0,72,72,72,,,,,,,,,,,,,,,,,,,,,a,1,0.9268228999999337,,,,,,,,,,,,wwt,f,23,2024_Apr_11_1125,mian,2021.2.3,59.768290292117356,
7F,1,2,F,a,"[-0.2, 0.2]",,,,,,,,,,,,,,,,0,73,73,73,,,,,,,,,,,,,,,,,,,,,a,1,0.5525146999998469,,,,,,,,,,,,wwt,f,23,2024_Apr_11_1125,mian,2021.2.3,59.768290292117356,
6H,2,1,6.0,l,"[-0.2, -0.2]",,,,,,,,,,,,,,,,0,74,74,74,,,,,,,,,,,,,,,,,,,,,l,1,1.0527853000003233,,,,,,,,,,,,wwt,f,23,2024_Apr_11_1125,mian,2021.2.3,59.768290292117356,
3a,2,2,3.0,a,"[0.2, -0.2]",,,,,,,,,,,,,,,,0,75,75,75,,,,,,,,,,,,,,,,,,,,,a,1,0.536189800000102,,,,,,,,,,,,wwt,f,23,2024_Apr_11_1125,mian,2021.2.3,59.768290292117356,
9F,1,1,F,a,"[0.2, 0.2]",,,,,,,,,,,,,,,,0,76,76,76,,,,,,,,,,,,,,,,,,,,,a,1,2.9022238000006837,,,,,,,,,,,,wwt,f,23,2024_Apr_11_1125,mian,2021.2.3,59.768290292117356,
G7,1,2,G,a,"[-0.2, 0.2]",,,,,,,,,,,,,,,,0,77,77,77,,,,,,,,,,,,,,,,,,,,,a,1,0.5358791999997266,,,,,,,,,,,,wwt,f,23,2024_Apr_11_1125,mian,2021.2.3,59.768290292117356,
a6,2,1,6.0,l,"[-0.2, -0.2]",,,,,,,,,,,,,,,,0,78,78,78,,,,,,,,,,,,,,,,,,,,,l,1,0.976352699999552,,,,,,,,,,,,wwt,f,23,2024_Apr_11_1125,mian,2021.2.3,59.768290292117356,
4h,2,2,4.0,l,"[0.2, -0.2]",,,,,,,,,,,,,,,,0,79,79,79,,,,,,,,,,,,,,,,,,,,,l,1,0.6453645999999935,,,,,,,,,,,,wwt,f,23,2024_Apr_11_1125,mian,2021.2.3,59.768290292117356,
6A,1,1,A,a,"[0.2, 0.2]",,,,,,,,,,,,,,,,,,,,0,0,0,0,,,,,,,,,,,,,,,,,a,1,1.1316059000000678,,,,,,,,,,,,wwt,f,23,2024_Apr_11_1125,mian,2021.2.3,59.768290292117356,
4H,1,2,H,a,"[-0.2, 0.2]",,,,,,,,,,,,,,,,,,,,0,1,1,1,,,,,,,,,,,,,,,,,a,1,0.7075360999997429,,,,,,,,,,,,wwt,f,23,2024_Apr_11_1125,mian,2021.2.3,59.768290292117356,
3H,2,1,3.0,a,"[-0.2, -0.2]",,,,,,,,,,,,,,,,,,,,0,2,2,2,,,,,,,,,,,,,,,,,a,1,0.6119393999997556,,,,,,,,,,,,wwt,f,23,2024_Apr_11_1125,mian,2021.2.3,59.768290292117356,
a9,2,2,9.0,a,"[0.2, -0.2]",,,,,,,,,,,,,,,,,,,,0,3,3,3,,,,,,,,,,,,,,,,,a,1,0.8284918999997899,,,,,,,,,,,,wwt,f,23,2024_Apr_11_1125,mian,2021.2.3,59.768290292117356,
E7,1,1,E,a,"[0.2, 0.2]",,,,,,,,,,,,,,,,,,,,0,4,4,4,,,,,,,,,,,,,,,,,a,1,1.094736500000181,,,,,,,,,,,,wwt,f,23,2024_Apr_11_1125,mian,2021.2.3,59.768290292117356,
6h,1,2,h,l,"[-0.2, 0.2]",,,,,,,,,,,,,,,,,,,,0,5,5,5,,,,,,,,,,,,,,,,,l,1,0.5971391000002768,,,,,,,,,,,,wwt,f,23,2024_Apr_11_1125,mian,2021.2.3,59.768290292117356,
8A,2,1,8.0,l,"[-0.2, -0.2]",,,,,,,,,,,,,,,,,,,,0,6,6,6,,,,,,,,,,,,,,,,,l,1,1.1451474999994389,,,,,,,,,,,,wwt,f,23,2024_Apr_11_1125,mian,2021.2.3,59.768290292117356,
f5,2,2,5.0,a,"[0.2, -0.2]",,,,,,,,,,,,,,,,,,,,0,7,7,7,,,,,,,,,,,,,,,,,a,1,0.5722750000004453,,,,,,,,,,,,wwt,f,23,2024_Apr_11_1125,mian,2021.2.3,59.768290292117356,
2a,1,1,a,l,"[0.2, 0.2]",,,,,,,,,,,,,,,,,,,,0,8,8,8,,,,,,,,,,,,,,,,,l,1,2.2336800000002768,,,,,,,,,,,,wwt,f,23,2024_Apr_11_1125,mian,2021.2.3,59.768290292117356,
F7,1,2,F,a,"[-0.2, 0.2]",,,,,,,,,,,,,,,,,,,,0,9,9,9,,,,,,,,,,,,,,,,,a,1,0.4732598999999027,,,,,,,,,,,,wwt,f,23,2024_Apr_11_1125,mian,2021.2.3,59.768290292117356,
h2,2,1,2.0,l,"[-0.2, -0.2]",,,,,,,,,,,,,,,,,,,,0,10,10,10,,,,,,,,,,,,,,,,,l,1,0.7152358000003005,,,,,,,,,,,,wwt,f,23,2024_Apr_11_1125,mian,2021.2.3,59.768290292117356,
F5,2,2,5.0,a,"[0.2, -0.2]",,,,,,,,,,,,,,,,,,,,0,11,11,11,,,,,,,,,,,,,,,,,a,1,0.824412800000573,,,,,,,,,,,,wwt,f,23,2024_Apr_11_1125,mian,2021.2.3,59.768290292117356,
A9,1,1,A,a,"[0.2, 0.2]",,,,,,,,,,,,,,,,,,,,0,12,12,12,,,,,,,,,,,,,,,,,a,1,0.69694569999956,,,,,,,,,,,,wwt,f,23,2024_Apr_11_1125,mian,2021.2.3,59.768290292117356,
3e,1,2,e,l,"[-0.2, 0.2]",,,,,,,,,,,,,,,,,,,,0,13,13,13,,,,,,,,,,,,,,,,,l,1,1.03203190000022,,,,,,,,,,,,wwt,f,23,2024_Apr_11_1125,mian,2021.2.3,59.768290292117356,
f8,2,1,8.0,l,"[-0.2, -0.2]",,,,,,,,,,,,,,,,,,,,0,14,14,14,,,,,,,,,,,,,,,,,l,1,2.4746823999994376,,,,,,,,,,,,wwt,f,23,2024_Apr_11_1125,mian,2021.2.3,59.768290292117356,
G2,2,2,2.0,l,"[0.2, -0.2]",,,,,,,,,,,,,,,,,,,,0,15,15,15,,,,,,,,,,,,,,,,,l,1,0.5475583000006736,,,,,,,,,,,,wwt,f,23,2024_Apr_11_1125,mian,2021.2.3,59.768290292117356,
F2,1,1,F,a,"[0.2, 0.2]",,,,,,,,,,,,,,,,,,,,0,16,16,16,,,,,,,,,,,,,,,,,a,1,0.6497236000004705,,,,,,,,,,,,wwt,f,23,2024_Apr_11_1125,mian,2021.2.3,59.768290292117356,
5e,1,2,e,l,"[-0.2, 0.2]",,,,,,,,,,,,,,,,,,,,0,17,17,17,,,,,,,,,,,,,,,,,l,1,1.0746925000003102,,,,,,,,,,,,wwt,f,23,2024_Apr_11_1125,mian,2021.2.3,59.768290292117356,
A3,2,1,3.0,a,"[-0.2, -0.2]",,,,,,,,,,,,,,,,,,,,0,18,18,18,,,,,,,,,,,,,,,,,a,1,1.043804099999761,,,,,,,,,,,,wwt,f,23,2024_Apr_11_1125,mian,2021.2.3,59.768290292117356,
4g,2,2,4.0,l,"[0.2, -0.2]",,,,,,,,,,,,,,,,,,,,0,19,19,19,,,,,,,,,,,,,,,,,l,1,0.8032107999997606,,,,,,,,,,,,wwt,f,23,2024_Apr_11_1125,mian,2021.2.3,59.768290292117356,
h7,1,1,h,l,"[0.2, 0.2]",,,,,,,,,,,,,,,,,,,,0,20,20,20,,,,,,,,,,,,,,,,,l,1,1.2358193999998548,,,,,,,,,,,,wwt,f,23,2024_Apr_11_1125,mian,2021.2.3,59.768290292117356,
3g,1,2,g,l,"[-0.2, 0.2]",,,,,,,,,,,,,,,,,,,,0,21,21,21,,,,,,,,,,,,,,,,,l,1,0.48266009999952075,,,,,,,,,,,,wwt,f,23,2024_Apr_11_1125,mian,2021.2.3,59.768290292117356,
8a,2,1,8.0,l,"[-0.2, -0.2]",,,,,,,,,,,,,,,,,,,,0,22,22,22,,,,,,,,,,,,,,,,,l,1,1.1078224000002592,,,,,,,,,,,,wwt,f,23,2024_Apr_11_1125,mian,2021.2.3,59.768290292117356,
4E,2,2,4.0,l,"[0.2, -0.2]",,,,,,,,,,,,,,,,,,,,0,23,23,23,,,,,,,,,,,,,,,,,l,1,1.4598620000006122,,,,,,,,,,,,wwt,f,23,2024_Apr_11_1125,mian,2021.2.3,59.768290292117356,
E5,1,1,E,a,"[0.2, 0.2]",,,,,,,,,,,,,,,,,,,,0,24,24,24,,,,,,,,,,,,,,,,,a,1,2.653406100000211,,,,,,,,,,,,wwt,f,23,2024_Apr_11_1125,mian,2021.2.3,59.768290292117356,
g6,1,2,g,l,"[-0.2, 0.2]",,,,,,,,,,,,,,,,,,,,0,25,25,25,,,,,,,,,,,,,,,,,l,1,0.9545564999998533,,,,,,,,,,,,wwt,f,23,2024_Apr_11_1125,mian,2021.2.3,59.768290292117356,
2e,2,1,2.0,l,"[-0.2, -0.2]",,,,,,,,,,,,,,,,,,,,0,26,26,26,,,,,,,,,,,,,,,,,l,1,1.584929400000874,,,,,,,,,,,,wwt,f,23,2024_Apr_11_1125,mian,2021.2.3,59.768290292117356,
h8,2,2,8.0,l,"[0.2, -0.2]",,,,,,,,,,,,,,,,,,,,0,27,27,27,,,,,,,,,,,,,,,,,l,1,0.6459424000004219,,,,,,,,,,,,wwt,f,23,2024_Apr_11_1125,mian,2021.2.3,59.768290292117356,
G6,1,1,G,a,"[0.2, 0.2]",,,,,,,,,,,,,,,,,,,,0,28,28,28,,,,,,,,,,,,,,,,,a,1,1.0797362999992401,,,,,,,,,,,,wwt,f,23,2024_Apr_11_1125,mian,2021.2.3,59.768290292117356,
a4,1,2,a,l,"[-0.2, 0.2]",,,,,,,,,,,,,,,,,,,,0,29,29,29,,,,,,,,,,,,,,,,,l,1,1.1867529999999533,,,,,,,,,,,,wwt,f,23,2024_Apr_11_1125,mian,2021.2.3,59.768290292117356,
9H,2,1,9.0,a,"[-0.2, -0.2]",,,,,,,,,,,,,,,,,,,,0,30,30,30,,,,,,,,,,,,,,,,,a,1,1.452502000000095,,,,,,,,,,,,wwt,f,23,2024_Apr_11_1125,mian,2021.2.3,59.768290292117356,
7H,2,2,7.0,a,"[0.2, -0.2]",,,,,,,,,,,,,,,,,,,,0,31,31,31,,,,,,,,,,,,,,,,,a,1,0.5061899000002086,,,,,,,,,,,,wwt,f,23,2024_Apr_11_1125,mian,2021.2.3,59.768290292117356,
9f,1,1,f,l,"[0.2, 0.2]",,,,,,,,,,,,,,,,,,,,0,32,32,32,,,,,,,,,,,,,,,,,l,1,0.7103974999999991,,,,,,,,,,,,wwt,f,23,2024_Apr_11_1125,mian,2021.2.3,59.768290292117356,
8E,1,2,E,a,"[-0.2, 0.2]",,,,,,,,,,,,,,,,,,,,0,33,33,33,,,,,,,,,,,,,,,,,a,1,0.5758112000003166,,,,,,,,,,,,wwt,f,23,2024_Apr_11_1125,mian,2021.2.3,59.768290292117356,
A2,2,1,2.0,l,"[-0.2, -0.2]",,,,,,,,,,,,,,,,,,,,0,34,34,34,,,,,,,,,,,,,,,,,l,1,0.8274862999996913,,,,,,,,,,,,wwt,f,23,2024_Apr_11_1125,mian,2021.2.3,59.768290292117356,
H7,2,2,7.0,a,"[0.2, -0.2]",,,,,,,,,,,,,,,,,,,,0,35,35,35,,,,,,,,,,,,,,,,,a,1,0.5547777000001588,,,,,,,,,,,,wwt,f,23,2024_Apr_11_1125,mian,2021.2.3,59.768290292117356,
h9,1,1,h,l,"[0.2, 0.2]",,,,,,,,,,,,,,,,,,,,0,36,36,36,,,,,,,,,,,,,,,,,l,1,0.8861216000004788,,,,,,,,,,,,wwt,f,23,2024_Apr_11_1125,mian,2021.2.3,59.768290292117356,
8G,1,2,G,a,"[-0.2, 0.2]",,,,,,,,,,,,,,,,,,,,0,37,37,37,,,,,,,,,,,,,,,,,a,1,0.656261999999515,,,,,,,,,,,,wwt,f,23,2024_Apr_11_1125,mian,2021.2.3,59.768290292117356,
H4,2,1,4.0,l,"[-0.2, -0.2]",,,,,,,,,,,,,,,,,,,,0,38,38,38,,,,,,,,,,,,,,,,,l,1,0.7663825999998153,,,,,,,,,,,,wwt,f,23,2024_Apr_11_1125,mian,2021.2.3,59.768290292117356,
A8,2,2,8.0,l,"[0.2, -0.2]",,,,,,,,,,,,,,,,,,,,0,39,39,39,,,,,,,,,,,,,,,,,l,1,0.5863000999997894,,,,,,,,,,,,wwt,f,23,2024_Apr_11_1125,mian,2021.2.3,59.768290292117356,
g7,1,1,g,l,"[0.2, 0.2]",,,,,,,,,,,,,,,,,,,,0,40,40,40,,,,,,,,,,,,,,,,,a,0,1.4235291000004509,,,,,,,,,,,,wwt,f,23,2024_Apr_11_1125,mian,2021.2.3,59.768290292117356,
H9,1,2,H,a,"[-0.2, 0.2]",,,,,,,,,,,,,,,,,,,,0,41,41,41,,,,,,,,,,,,,,,,,a,1,1.6514257999997426,,,,,,,,,,,,wwt,f,23,2024_Apr_11_1125,mian,2021.2.3,59.768290292117356,
9E,2,1,9.0,a,"[-0.2, -0.2]",,,,,,,,,,,,,,,,,,,,0,42,42,42,,,,,,,,,,,,,,,,,a,1,1.641353099999833,,,,,,,,,,,,wwt,f,23,2024_Apr_11_1125,mian,2021.2.3,59.768290292117356,
a5,2,2,5.0,a,"[0.2, -0.2]",,,,,,,,,,,,,,,,,,,,0,43,43,43,,,,,,,,,,,,,,,,,a,1,0.9909324000000197,,,,,,,,,,,,wwt,f,23,2024_Apr_11_1125,mian,2021.2.3,59.768290292117356,
3E,1,1,E,a,"[0.2, 0.2]",,,,,,,,,,,,,,,,,,,,0,44,44,44,,,,,,,,,,,,,,,,,a,1,0.7761418999998568,,,,,,,,,,,,wwt,f,23,2024_Apr_11_1125,mian,2021.2.3,59.768290292117356,
6f,1,2,f,l,"[-0.2, 0.2]",,,,,,,,,,,,,,,,,,,,0,45,45,45,,,,,,,,,,,,,,,,,l,1,0.5075434000000314,,,,,,,,,,,,wwt,f,23,2024_Apr_11_1125,mian,2021.2.3,59.768290292117356,
g8,2,1,8.0,l,"[-0.2, -0.2]",,,,,,,,,,,,,,,,,,,,0,46,46,46,,,,,,,,,,,,,,,,,l,1,0.5852198000002318,,,,,,,,,,,,wwt,f,23,2024_Apr_11_1125,mian,2021.2.3,59.768290292117356,
4F,2,2,4.0,l,"[0.2, -0.2]",,,,,,,,,,,,,,,,,,,,0,47,47,47,,,,,,,,,,,,,,,,,l,1,0.6175219999995534,,,,,,,,,,,,wwt,f,23,2024_Apr_11_1125,mian,2021.2.3,59.768290292117356,
4a,1,1,a,l,"[0.2, 0.2]",,,,,,,,,,,,,,,,,,,,0,48,48,48,,,,,,,,,,,,,,,,,l,1,0.9335635999996157,,,,,,,,,,,,wwt,f,23,2024_Apr_11_1125,mian,2021.2.3,59.768290292117356,
e3,1,2,e,l,"[-0.2, 0.2]",,,,,,,,,,,,,,,,,,,,0,49,49,49,,,,,,,,,,,,,,,,,l,1,0.48634839999976975,,,,,,,,,,,,wwt,f,23,2024_Apr_11_1125,mian,2021.2.3,59.768290292117356,
5g,2,1,5.0,a,"[-0.2, -0.2]",,,,,,,,,,,,,,,,,,,,0,50,50,50,,,,,,,,,,,,,,,,,a,1,0.5069620000003852,,,,,,,,,,,,wwt,f,23,2024_Apr_11_1125,mian,2021.2.3,59.768290292117356,
f4,2,2,4.0,l,"[0.2, -0.2]",,,,,,,,,,,,,,,,,,,,0,51,51,51,,,,,,,,,,,,,,,,,l,1,0.4859460999996372,,,,,,,,,,,,wwt,f,23,2024_Apr_11_1125,mian,2021.2.3,59.768290292117356,
6E,1,1,E,a,"[0.2, 0.2]",,,,,,,,,,,,,,,,,,,,0,52,52,52,,,,,,,,,,,,,,,,,a,1,0.96471769999971,,,,,,,,,,,,wwt,f,23,2024_Apr_11_1125,mian,2021.2.3,59.768290292117356,
7A,1,2,A,a,"[-0.2, 0.2]",,,,,,,,,,,,,,,,,,,,0,53,53,53,,,,,,,,,,,,,,,,,a,1,0.5488100000002305,,,,,,,,,,,,wwt,f,23,2024_Apr_11_1125,mian,2021.2.3,59.768290292117356,
F4,2,1,4.0,l,"[-0.2, -0.2]",,,,,,,,,,,,,,,,,,,,0,54,54,54,,,,,,,,,,,,,,,,,l,1,0.978454299999612,,,,,,,,,,,,wwt,f,23,2024_Apr_11_1125,mian,2021.2.3,59.768290292117356,
2g,2,2,2.0,l,"[0.2, -0.2]",,,,,,,,,,,,,,,,,,,,0,55,55,55,,,,,,,,,,,,,,,,,l,1,1.9667321999995693,,,,,,,,,,,,wwt,f,23,2024_Apr_11_1125,mian,2021.2.3,59.768290292117356,
7E,1,1,E,a,"[0.2, 0.2]",,,,,,,,,,,,,,,,,,,,0,56,56,56,,,,,,,,,,,,,,,,,a,1,0.6783341000000291,,,,,,,,,,,,wwt,f,23,2024_Apr_11_1125,mian,2021.2.3,59.768290292117356,
G4,1,2,G,a,"[-0.2, 0.2]",,,,,,,,,,,,,,,,,,,,0,57,57,57,,,,,,,,,,,,,,,,,a,1,0.4657231999999567,,,,,,,,,,,,wwt,f,23,2024_Apr_11_1125,mian,2021.2.3,59.768290292117356,
2F,2,1,2.0,l,"[-0.2, -0.2]",,,,,,,,,,,,,,,,,,,,0,58,58,58,,,,,,,,,,,,,,,,,l,1,0.7056229999998322,,,,,,,,,,,,wwt,f,23,2024_Apr_11_1125,mian,2021.2.3,59.768290292117356,
E9,2,2,9.0,a,"[0.2, -0.2]",,,,,,,,,,,,,,,,,,,,0,59,59,59,,,,,,,,,,,,,,,,,a,1,0.6211516999992455,,,,,,,,,,,,wwt,f,23,2024_Apr_11_1125,mian,2021.2.3,59.768290292117356,
5f,1,1,f,l,"[0.2, 0.2]",,,,,,,,,,,,,,,,,,,,0,60,60,60,,,,,,,,,,,,,,,,,l,1,0.8366172999994888,,,,,,,,,,,,wwt,f,23,2024_Apr_11_1125,mian,2021.2.3,59.768290292117356,
e7,1,2,e,l,"[-0.2, 0.2]",,,,,,,,,,,,,,,,,,,,0,61,61,61,,,,,,,,,,,,,,,,,l,1,0.46952870000041,,,,,,,,,,,,wwt,f,23,2024_Apr_11_1125,mian,2021.2.3,59.768290292117356,
f2,2,1,2.0,l,"[-0.2, -0.2]",,,,,,,,,,,,,,,,,,,,0,62,62,62,,,,,,,,,,,,,,,,,l,1,1.0688137999995888,,,,,,,,,,,,wwt,f,23,2024_Apr_11_1125,mian,2021.2.3,59.768290292117356,
G9,2,2,9.0,a,"[0.2, -0.2]",,,,,,,,,,,,,,,,,,,,0,63,63,63,,,,,,,,,,,,,,,,,a,1,0.392680100000689,,,,,,,,,,,,wwt,f,23,2024_Apr_11_1125,mian,2021.2.3,59.768290292117356,
7g,1,1,g,l,"[0.2, 0.2]",,,,,,,,,,,,,,,,,,,,0,64,64,64,,,,,,,,,,,,,,,,,l,1,1.3864889999995285,,,,,,,,,,,,wwt,f,23,2024_Apr_11_1125,mian,2021.2.3,59.768290292117356,
F8,1,2,F,a,"[-0.2, 0.2]",,,,,,,,,,,,,,,,,,,,0,65,65,65,,,,,,,,,,,,,,,,,a,1,0.7411769000000277,,,,,,,,,,,,wwt,f,23,2024_Apr_11_1125,mian,2021.2.3,59.768290292117356,
A7,2,1,7.0,a,"[-0.2, -0.2]",,,,,,,,,,,,,,,,,,,,0,66,66,66,,,,,,,,,,,,,,,,,a,1,1.2540447000001222,,,,,,,,,,,,wwt,f,23,2024_Apr_11_1125,mian,2021.2.3,59.768290292117356,
4G,2,2,4.0,l,"[0.2, -0.2]",,,,,,,,,,,,,,,,,,,,0,67,67,67,,,,,,,,,,,,,,,,,l,1,0.47338089999993826,,,,,,,,,,,,wwt,f,23,2024_Apr_11_1125,mian,2021.2.3,59.768290292117356,
g2,1,1,g,l,"[0.2, 0.2]",,,,,,,,,,,,,,,,,,,,0,68,68,68,,,,,,,,,,,,,,,,,l,1,1.1318579999997382,,,,,,,,,,,,wwt,f,23,2024_Apr_11_1125,mian,2021.2.3,59.768290292117356,
g4,1,2,g,l,"[-0.2, 0.2]",,,,,,,,,,,,,,,,,,,,0,69,69,69,,,,,,,,,,,,,,,,,l,1,0.40009939999981725,,,,,,,,,,,,wwt,f,23,2024_Apr_11_1125,mian,2021.2.3,59.768290292117356,
7a,2,1,7.0,a,"[-0.2, -0.2]",,,,,,,,,,,,,,,,,,,,0,70,70,70,,,,,,,,,,,,,,,,,a,1,1.2216955999992933,,,,,,,,,,,,wwt,f,23,2024_Apr_11_1125,mian,2021.2.3,59.768290292117356,
8e,2,2,8.0,l,"[0.2, -0.2]",,,,,,,,,,,,,,,,,,,,0,71,71,71,,,,,,,,,,,,,,,,,l,1,0.4686523999998826,,,,,,,,,,,,wwt,f,23,2024_Apr_11_1125,mian,2021.2.3,59.768290292117356,
h4,1,1,h,l,"[0.2, 0.2]",,,,,,,,,,,,,,,,,,,,0,72,72,72,,,,,,,,,,,,,,,,,l,1,3.689110199999959,,,,,,,,,,,,wwt,f,23,2024_Apr_11_1125,mian,2021.2.3,59.768290292117356,
G8,1,2,G,a,"[-0.2, 0.2]",,,,,,,,,,,,,,,,,,,,0,73,73,73,,,,,,,,,,,,,,,,,a,1,0.6510270999997374,,,,,,,,,,,,wwt,f,23,2024_Apr_11_1125,mian,2021.2.3,59.768290292117356,
6F,2,1,6.0,l,"[-0.2, -0.2]",,,,,,,,,,,,,,,,,,,,0,74,74,74,,,,,,,,,,,,,,,,,l,1,1.3823794999998427,,,,,,,,,,,,wwt,f,23,2024_Apr_11_1125,mian,2021.2.3,59.768290292117356,
g5,2,2,5.0,a,"[0.2, -0.2]",,,,,,,,,,,,,,,,,,,,0,75,75,75,,,,,,,,,,,,,,,,,a,1,0.49379229999976815,,,,,,,,,,,,wwt,f,23,2024_Apr_11_1125,mian,2021.2.3,59.768290292117356,
G5,1,1,G,a,"[0.2, 0.2]",,,,,,,,,,,,,,,,,,,,0,76,76,76,,,,,,,,,,,,,,,,,a,1,0.902013399999305,,,,,,,,,,,,wwt,f,23,2024_Apr_11_1125,mian,2021.2.3,59.768290292117356,
h5,1,2,h,l,"[-0.2, 0.2]",,,,,,,,,,,,,,,,,,,,0,77,77,77,,,,,,,,,,,,,,,,,l,1,0.9026005000005171,,,,,,,,,,,,wwt,f,23,2024_Apr_11_1125,mian,2021.2.3,59.768290292117356,
9G,2,1,9.0,a,"[-0.2, -0.2]",,,,,,,,,,,,,,,,,,,,0,78,78,78,,,,,,,,,,,,,,,,,a,1,1.494794400000501,,,,,,,,,,,,wwt,f,23,2024_Apr_11_1125,mian,2021.2.3,59.768290292117356,
F3,2,2,3.0,a,"[0.2, -0.2]",,,,,,,,,,,,,,,,,,,,0,79,79,79,,,,,,,,,,,,,,,,,a,1,0.5053910000005999,,,,,,,,,,,,wwt,f,23,2024_Apr_11_1125,mian,2021.2.3,59.768290292117356,
,,,,,,0,1,pic/flanker5.png,pic/flanker1.png,s,k,,,,,,,,,,,,,,,,,,0,0,0,0,0,0,0,0,,,,,,,,,,,,602.5503403000002,None,601.3581063000001,602.5670055999999,s,1,0.6876271000000997,精致,k,1,1.3654745000003459,wwt,f,23,2024_Apr_11_1125,mian,2021.2.3,59.768290292117356,
,,,,,,1,0,pic/flanker6.png,pic/flanker4.png,s,l,,,,,,,,,,,,,,,,,,0,0,0,0,0,1,1,5,,,,,,,,,,,,606.7170755999996,None,605.5330908999995,606.7337842999996,s,1,0.9366129000000001,冷笑,l,1,0.732419399999344,wwt,f,23,2024_Apr_11_1125,mian,2021.2.3,59.768290292117356,
,,,,,,1,1,pic/flanker5.png,pic/flanker3.png,a,k,,,,,,,,,,,,,,,,,,0,0,0,0,0,2,2,4,,,,,,,,,,,,610.2670141999997,None,609.0835134999998,610.2837726999996,a,1,0.5386112000005596,卓越,k,1,0.6894308999999339,wwt,f,23,2024_Apr_11_1125,mian,2021.2.3,59.768290292117356,
,,,,,,0,0,pic/flanker6.png,pic/flanker2.png,a,l,,,,,,,,,,,,,,,,,,0,0,0,0,0,3,3,1,,,,,,,,,,,,613.3502318000001,None,612.1671071000001,613.3668308999995,a,1,0.4910045999995418,郁闷,l,1,0.7245986000007179,wwt,f,23,2024_Apr_11_1125,mian,2021.2.3,59.768290292117356,
,,,,,,0,1,pic/flanker6.png,pic/flanker2.png,a,k,,,,,,,,,,,,,,,,,,0,0,0,0,0,4,4,2,,,,,,,,,,,,616.5999806999998,None,615.4170084999996,616.6170651000002,a,1,0.5242036999998163,敬佩,k,1,0.633230100000219,wwt,f,23,2024_Apr_11_1125,mian,2021.2.3,59.768290292117356,
,,,,,,0,0,pic/flanker5.png,pic/flanker1.png,s,l,,,,,,,,,,,,,,,,,,0,0,0,0,0,5,5,3,,,,,,,,,,,,619.6669677,None,618.4831619999995,619.6838011,s,1,0.46780870000020514,罚款,l,1,0.6134199999996781,wwt,f,23,2024_Apr_11_1125,mian,2021.2.3,59.768290292117356,
,,,,,,1,0,pic/flanker5.png,pic/flanker3.png,a,l,,,,,,,,,,,,,,,,,,0,0,0,0,0,6,6,7,,,,,,,,,,,,622.7676363999999,None,621.5834182999997,622.7842928,a,1,0.4797800999995161,损害,l,1,0.6644459999997707,wwt,f,23,2024_Apr_11_1125,mian,2021.2.3,59.768290292117356,
,,,,,,1,1,pic/flanker6.png,pic/flanker4.png,s,k,,,,,,,,,,,,,,,,,,0,0,0,0,0,7,7,6,,,,,,,,,,,,625.8503285999996,None,624.6669161999998,625.8667979000002,s,1,0.4555441000002247,顽强,k,1,0.7197825000002922,wwt,f,23,2024_Apr_11_1125,mian,2021.2.3,59.768290292117356,
,,,,,,,,,,,,,,,,,,,,,,,,,,,,,0,0,0,0,,,,,,,,,,,,,,,,,,,,,,,,,,,wwt,f,23,2024_Apr_11_1125,mian,2021.2.3,59.768290292117356,
,,,,,,1,1,pic/flanker6.png,pic/flanker4.png,s,k,pic/AffRest1.png,,,,,,,,,,,,,,,,,,,,,,,,,0,0,0,0,0,0,0,6,,,,637.8836984,None,636.6952504000001,637.9003726999999,s,1,0.4647655999997369,舒畅,k,1,0.6637685000005149,wwt,f,23,2024_Apr_11_1125,mian,2021.2.3,59.768290292117356,
,,,,,,0,0,pic/flanker6.png,pic/flanker2.png,a,l,pic/AffRest1.png,,,,,,,,,,,,,,,,,,,,,,,,,0,0,0,0,0,1,1,1,,,,641.0168917000001,None,639.8335034000002,641.0336597999994,a,1,0.3772254999994402,堵塞,l,1,0.5456499000001713,wwt,f,23,2024_Apr_11_1125,mian,2021.2.3,59.768290292117356,
,,,,,,1,0,pic/flanker5.png,pic/flanker3.png,a,l,pic/AffRest1.png,,,,,,,,,,,,,,,,,,,,,,,,,0,0,0,0,0,2,2,63,,,,643.9000055999995,None,642.7169760999996,643.9170109999995,a,1,0.593698000000586,丢失,l,1,0.7061270999993212,wwt,f,23,2024_Apr_11_1125,mian,2021.2.3,59.768290292117356,
,,,,,,1,0,pic/flanker6.png,pic/flanker4.png,s,l,pic/AffRest1.png,,,,,,,,,,,,,,,,,,,,,,,,,0,0,0,0,0,3,3,45,,,,647.1494550999996,None,645.9672789999995,647.1830874999996,s,1,0.48331529999995837,忧虑,l,1,0.5657551999993302,wwt,f,23,2024_Apr_11_1125,mian,2021.2.3,59.768290292117356,
,,,,,,0,0,pic/flanker5.png,pic/flanker1.png,s,l,pic/AffRest1.png,,,,,,,,,,,,,,,,,,,,,,,,,0,0,0,0,0,4,4,19,,,,650.2168507999995,None,649.0336626999997,650.2338545999992,s,1,0.39572039999984554,争吵,l,1,0.6911920000002283,wwt,f,23,2024_Apr_11_1125,mian,2021.2.3,59.768290292117356,
,,,,,,1,1,pic/flanker6.png,pic/flanker4.png,s,k,pic/AffRest1.png,,,,,,,,,,,,,,,,,,,,,,,,,0,0,0,0,0,5,5,78,,,,653.383688599999,None,652.2033446000005,653.4174531999997,s,1,0.48334869999962393,顽强,k,1,0.6693566000012652,wwt,f,23,2024_Apr_11_1125,mian,2021.2.3,59.768290292117356,
,,,,,,1,0,pic/flanker5.png,pic/flanker3.png,a,l,pic/AffRest1.png,,,,,,,,,,,,,,,,,,,,,,,,,0,0,0,0,0,6,6,71,,,,656.5672711999996,None,655.3845352999997,656.5837659999997,a,1,0.5651134999989154,穷苦,l,1,0.8941120999988925,wwt,f,23,2024_Apr_11_1125,mian,2021.2.3,59.768290292117356,
,,,,,,0,0,pic/flanker6.png,pic/flanker2.png,a,l,pic/AffRest1.png,,,,,,,,,,,,,,,,,,,,,,,,,0,0,0,0,0,7,7,17,,,,660.0668533999997,None,658.8837010000007,660.0835879000006,a,1,0.3258399999995163,慌忙,l,1,0.6736813000006805,wwt,f,23,2024_Apr_11_1125,mian,2021.2.3,59.768290292117356,
,,,,,,0,1,pic/flanker5.png,pic/flanker1.png,s,k,pic/AffRest1.png,,,,,,,,,,,,,,,,,,,,,,,,,0,0,0,0,0,8,8,24,,,,663.0169747999989,None,661.8340174000004,663.0332201000001,s,1,0.37403679999988526,前进,k,1,0.5966451999993296,wwt,f,23,2024_Apr_11_1125,mian,2021.2.3,59.768290292117356,
,,,,,,0,1,pic/flanker5.png,pic/flanker1.png,s,k,pic/AffRest1.png,,,,,,,,,,,,,,,,,,,,,,,,,0,0,0,0,0,9,9,32,,,,665.867227499999,None,664.683605799999,665.8837939000005,s,1,0.37446059999820136,如愿,k,1,0.565737300001274,wwt,f,23,2024_Apr_11_1125,mian,2021.2.3,59.768290292117356,
,,,,,,0,0,pic/flanker6.png,pic/flanker2.png,a,l,pic/AffRest1.png,,,,,,,,,,,,,,,,,,,,,,,,,0,0,0,0,0,10,10,9,,,,668.6349422000003,None,667.4501132000005,668.6517323999997,a,1,0.4765095000002475,嘲笑,l,1,0.47139079999942624,wwt,f,23,2024_Apr_11_1125,mian,2021.2.3,59.768290292117356,
,,,,,,0,1,pic/flanker6.png,pic/flanker2.png,a,k,pic/AffRest1.png,,,,,,,,,,,,,,,,,,,,,,,,,0,0,0,0,0,11,11,26,,,,671.6171183000006,None,670.4340881999997,671.6337280999996,a,1,0.3709633999988,畅销,k,1,0.6606049000001804,wwt,f,23,2024_Apr_11_1125,mian,2021.2.3,59.768290292117356,
,,,,,,0,1,pic/flanker6.png,pic/flanker2.png,a,k,pic/AffRest1.png,,,,,,,,,,,,,,,,,,,,,,,,,0,0,0,0,0,12,12,42,,,,674.6670099000003,None,673.4836744000004,674.683653099999,a,1,0.33539550000023155,敬佩,k,1,0.5509108000005654,wwt,f,23,2024_Apr_11_1125,mian,2021.2.3,59.768290292117356,
,,,,,,0,0,pic/flanker5.png,pic/flanker1.png,s,l,pic/AffRest1.png,,,,,,,,,,,,,,,,,,,,,,,,,0,0,0,0,0,13,13,11,,,,677.4345078999995,None,676.2502733999991,677.4511089999996,s,1,0.2307621999989351,心慌,l,1,0.6878778999998758,wwt,f,23,2024_Apr_11_1125,mian,2021.2.3,59.768290292117356,
,,,,,,1,1,pic/flanker5.png,pic/flanker3.png,a,k,pic/AffRest1.png,,,,,,,,,,,,,,,,,,,,,,,,,0,0,0,0,0,14,14,12,,,,680.2504229000006,None,679.0708546999995,680.2837731999989,a,1,0.4955826999994315,羡慕,k,1,0.8426037999997789,wwt,f,23,2024_Apr_11_1125,mian,2021.2.3,59.768290292117356,
,,,,,,1,1,pic/flanker6.png,pic/flanker4.png,s,k,pic/AffRest1.png,,,,,,,,,,,,,,,,,,,,,,,,,0,0,0,0,0,15,15,54,,,,683.5835148000006,None,682.3998749000002,683.6003492,s,1,0.412909500000751,爽朗,k,1,0.5721682999992481,wwt,f,23,2024_Apr_11_1125,mian,2021.2.3,59.768290292117356,
,,,,,,1,1,pic/flanker6.png,pic/flanker4.png,s,k,pic/AffRest1.png,,,,,,,,,,,,,,,,,,,,,,,,,0,0,0,0,0,16,16,22,,,,686.4018118000004,None,685.2195716000006,686.4351483999999,s,1,0.4538654999996652,廉洁,k,1,0.6098100999988674,wwt,f,23,2024_Apr_11_1125,mian,2021.2.3,59.768290292117356,
,,,,,,1,0,pic/flanker5.png,pic/flanker3.png,a,l,pic/AffRest1.png,,,,,,,,,,,,,,,,,,,,,,,,,0,0,0,0,0,17,17,15,,,,689.3842225999997,None,688.2015654999996,689.4008379000006,a,1,0.43771359999846027,沮丧,l,1,0.4381069999999454,wwt,f,23,2024_Apr_11_1125,mian,2021.2.3,59.768290292117356,
,,,,,,1,0,pic/flanker5.png,pic/flanker3.png,a,l,pic/AffRest1.png,,,,,,,,,,,,,,,,,,,,,,,,,0,0,0,0,0,18,18,23,,,,692.2999426000006,None,691.1168424999996,692.3170948000006,a,1,0.49424420000104874,悲观,l,1,0.6485718999992969,wwt,f,23,2024_Apr_11_1125,mian,2021.2.3,59.768290292117356,
,,,,,,0,0,pic/flanker6.png,pic/flanker2.png,a,l,pic/AffRest1.png,,,,,,,,,,,,,,,,,,,,,,,,,0,0,0,0,0,19,19,33,,,,695.467079099999,None,694.2835527999996,695.4837532999991,a,1,0.49873509999997623,轻率,l,1,0.6962369999982911,wwt,f,23,2024_Apr_11_1125,mian,2021.2.3,59.768290292117356,
,,,,,,1,1,pic/flanker5.png,pic/flanker3.png,a,k,pic/AffRest1.png,,,,,,,,,,,,,,,,,,,,,,,,,0,0,0,0,0,20,20,76,,,,698.6336938000004,None,697.450202,698.6503116000004,a,1,0.4587666999996145,充裕,k,1,0.7247547999995732,wwt,f,23,2024_Apr_11_1125,mian,2021.2.3,59.768290292117356,
,,,,,,1,0,pic/flanker6.png,pic/flanker4.png,s,l,pic/AffRest1.png,,,,,,,,,,,,,,,,,,,,,,,,,0,0,0,0,0,21,21,69,,,,701.7505719000001,None,700.567635899999,701.7672230999997,s,1,0.5001661999995122,孤单,l,1,0.6423426999990625,wwt,f,23,2024_Apr_11_1125,mian,2021.2.3,59.768290292117356,
,,,,,,0,0,pic/flanker6.png,pic/flanker2.png,a,l,pic/AffRest1.png,,,,,,,,,,,,,,,,,,,,,,,,,0,0,0,0,0,22,22,25,,,,704.9170665999991,None,703.7337275999998,704.9338069999994,a,1,0.41587210000034247,伤心,l,1,0.7426789000001008,wwt,f,23,2024_Apr_11_1125,mian,2021.2.3,59.768290292117356,
,,,,,,0,1,pic/flanker6.png,pic/flanker2.png,a,k,pic/AffRest1.png,,,,,,,,,,,,,,,,,,,,,,,,,0,0,0,0,0,23,23,50,,,,708.0504512000007,None,706.8672781000005,708.0670742000002,a,1,0.32417390000046,卓越,k,1,0.5733180000006541,wwt,f,23,2024_Apr_11_1125,mian,2021.2.3,59.768290292117356,
,,,,,,1,1,pic/flanker5.png,pic/flanker3.png,a,k,pic/AffRest1.png,,,,,,,,,,,,,,,,,,,,,,,,,0,0,0,0,0,24,24,4,,,,710.9338244999999,None,709.7503670000006,710.9503148999993,a,1,0.47128169999996317,丰满,k,1,0.6187491000000591,wwt,f,23,2024_Apr_11_1125,mian,2021.2.3,59.768290292117356,
,,,,,,0,1,pic/flanker5.png,pic/flanker1.png,s,k,pic/AffRest1.png,,,,,,,,,,,,,,,,,,,,,,,,,0,0,0,0,0,25,25,64,,,,713.8685502999997,None,712.6839115000002,713.8851298999998,s,1,0.3155148999994708,奉献,k,1,0.520752899999934,wwt,f,23,2024_Apr_11_1125,mian,2021.2.3,59.768290292117356,
,,,,,,0,1,pic/flanker5.png,pic/flanker1.png,s,k,pic/AffRest1.png,,,,,,,,,,,,,,,,,,,,,,,,,0,0,0,0,0,26,26,8,,,,716.5850176999993,None,715.4032752000003,716.6178387999989,s,1,0.3196157000002131,瑰丽,k,1,0.5110736999995424,wwt,f,23,2024_Apr_11_1125,mian,2021.2.3,59.768290292117356,
,,,,,,1,0,pic/flanker5.png,pic/flanker3.png,a,l,pic/AffRest1.png,,,,,,,,,,,,,,,,,,,,,,,,,0,0,0,0,0,27,27,39,,,,719.4512964000005,None,718.2677107,719.4678705999995,a,1,0.45550379999986035,怀疑,l,1,0.5984487999994599,wwt,f,23,2024_Apr_11_1125,mian,2021.2.3,59.768290292117356,
,,,,,,1,1,pic/flanker5.png,pic/flanker3.png,a,k,pic/AffRest1.png,,,,,,,,,,,,,,,,,,,,,,,,,0,0,0,0,0,28,28,36,,,,722.4673652000001,None,721.2838290999989,722.484123799999,a,1,0.44313809999948717,圣洁,k,1,0.48450880000018515,wwt,f,23,2024_Apr_11_1125,mian,2021.2.3,59.768290292117356,
,,,,,,1,0,pic/flanker5.png,pic/flanker3.png,a,l,pic/AffRest1.png,,,,,,,,,,,,,,,,,,,,,,,,,0,0,0,0,0,29,29,55,,,,725.4005780000007,None,724.2169821000007,725.4171896999997,a,1,0.3836672000015824,黑暗,l,1,0.743100300000151,wwt,f,23,2024_Apr_11_1125,mian,2021.2.3,59.768290292117356,
,,,,,,0,1,pic/flanker6.png,pic/flanker2.png,a,k,pic/AffRest1.png,,,,,,,,,,,,,,,,,,,,,,,,,0,0,0,0,0,30,30,2,,,,728.467467299999,None,727.2837180999995,728.4840881,a,1,0.30256569999983185,赞成,k,1,0.5327995999996347,wwt,f,23,2024_Apr_11_1125,mian,2021.2.3,59.768290292117356,
,,,,,,0,0,pic/flanker6.png,pic/flanker2.png,a,l,pic/AffRest1.png,,,,,,,,,,,,,,,,,,,,,,,,,0,0,0,0,0,31,31,41,,,,731.3010224999998,None,730.116949199999,731.3177369000005,a,1,0.30200329999934183,懒惰,l,1,0.651089700000739,wwt,f,23,2024_Apr_11_1125,mian,2021.2.3,59.768290292117356,
,,,,,,1,1,pic/flanker6.png,pic/flanker4.png,s,k,pic/AffRest1.png,,,,,,,,,,,,,,,,,,,,,,,,,0,0,0,0,0,32,32,62,,,,734.3003081999996,None,733.1172124999994,734.3168568000001,s,1,0.5016204000003199,正直,k,1,0.4904537000002165,wwt,f,23,2024_Apr_11_1125,mian,2021.2.3,59.768290292117356,
,,,,,,1,1,pic/flanker6.png,pic/flanker4.png,s,k,pic/AffRest1.png,,,,,,,,,,,,,,,,,,,,,,,,,0,0,0,0,0,33,33,14,,,,737.1503178999992,None,735.9670616000003,737.1669724000003,s,1,0.48534859999926994,享受,k,1,0.5872784000002866,wwt,f,23,2024_Apr_11_1125,mian,2021.2.3,59.768290292117356,
,,,,,,0,1,pic/flanker5.png,pic/flanker1.png,s,k,pic/AffRest1.png,,,,,,,,,,,,,,,,,,,,,,,,,0,0,0,0,0,34,34,56,,,,740.2837856999995,None,739.1001947999994,740.3003597000006,s,1,0.44389589999991586,诚恳,k,1,0.5343490000013844,wwt,f,23,2024_Apr_11_1125,mian,2021.2.3,59.768290292117356,
,,,,,,0,1,pic/flanker5.png,pic/flanker1.png,s,k,pic/AffRest1.png,,,,,,,,,,,,,,,,,,,,,,,,,0,0,0,0,0,35,35,16,,,,743.0836682999998,None,741.9004112000002,743.1005870999998,s,1,0.33998719999908644,旺盛,k,1,0.4941361000001052,wwt,f,23,2024_Apr_11_1125,mian,2021.2.3,59.768290292117356,
,,,,,,0,1,pic/flanker5.png,pic/flanker1.png,s,k,pic/AffRest1.png,,,,,,,,,,,,,,,,,,,,,,,,,0,0,0,0,0,36,36,72,,,,745.8669558999991,None,744.6834829,745.883584199999,s,1,0.33038350000060746,永恒,k,1,0.5028727000008075,wwt,f,23,2024_Apr_11_1125,mian,2021.2.3,59.768290292117356,
,,,,,,1,0,pic/flanker5.png,pic/flanker3.png,a,l,pic/AffRest1.png,,,,,,,,,,,,,,,,,,,,,,,,,0,0,0,0,0,37,37,47,,,,748.6836528000003,None,747.5002958999994,748.7004483000001,a,1,0.5812215999994805,假冒,l,1,0.4182571999990614,wwt,f,23,2024_Apr_11_1125,mian,2021.2.3,59.768290292117356,
,,,,,,0,0,pic/flanker5.png,pic/flanker1.png,s,l,pic/AffRest1.png,,,,,,,,,,,,,,,,,,,,,,,,,0,0,0,0,0,38,38,75,,,,751.5842864000006,None,750.4005390000002,751.6010602999995,s,1,0.5174541999986104,自卑,l,1,0.49487740000040503,wwt,f,23,2024_Apr_11_1125,mian,2021.2.3,59.768290292117356,
,,,,,,0,1,pic/flanker5.png,pic/flanker1.png,s,k,pic/AffRest1.png,,,,,,,,,,,,,,,,,,,,,,,,,0,0,0,0,0,39,39,48,,,,754.5338462,None,753.3503751999997,754.5503764000005,s,1,0.3464278999999806,公平,k,1,0.5568308999991132,wwt,f,23,2024_Apr_11_1125,mian,2021.2.3,59.768290292117356,
,,,,,,1,0,pic/flanker6.png,pic/flanker4.png,s,l,pic/AffRest1.png,,,,,,,,,,,,,,,,,,,,,,,,,0,0,0,0,0,40,40,37,,,,757.3178348999991,None,756.1336279999996,757.3344192999994,s,1,0.42543889999979,罚款,l,1,0.7949330999999802,wwt,f,23,2024_Apr_11_1125,mian,2021.2.3,59.768290292117356,
,,,,,,0,0,pic/flanker5.png,pic/flanker1.png,s,l,pic/AffRest1.png,,,,,,,,,,,,,,,,,,,,,,,,,0,0,0,0,0,41,41,35,,,,760.6015385999999,None,759.4171611000002,760.6177198000005,s,1,0.3145002999990538,闷热,l,1,0.6577171999997518,wwt,f,23,2024_Apr_11_1125,mian,2021.2.3,59.768290292117356,
,,,,,,1,0,pic/flanker6.png,pic/flanker4.png,s,l,pic/AffRest1.png,,,,,,,,,,,,,,,,,,,,,,,,,0,0,0,0,0,42,42,29,,,,763.5834556999998,None,762.4009571000006,763.6005160000004,s,1,0.40032910000081756,排斥,l,1,0.5245649999997113,wwt,f,23,2024_Apr_11_1125,mian,2021.2.3,59.768290292117356,
,,,,,,0,1,pic/flanker6.png,pic/flanker2.png,a,k,pic/AffRest1.png,,,,,,,,,,,,,,,,,,,,,,,,,0,0,0,0,0,43,43,34,,,,766.4512316,None,765.2673180999991,766.4677885000001,a,1,0.38465700000051584,雄厚,k,1,0.4765923999984807,wwt,f,23,2024_Apr_11_1125,mian,2021.2.3,59.768290292117356,
,,,,,,0,0,pic/flanker6.png,pic/flanker2.png,a,l,pic/AffRest1.png,,,,,,,,,,,,,,,,,,,,,,,,,0,0,0,0,0,44,44,57,,,,769.2838138999996,None,768.100339999999,769.3003374999989,a,1,0.3382748999993055,落后,l,1,0.503457899998466,wwt,f,23,2024_Apr_11_1125,mian,2021.2.3,59.768290292117356,
,,,,,,1,0,pic/flanker6.png,pic/flanker4.png,s,l,pic/AffRest1.png,,,,,,,,,,,,,,,,,,,,,,,,,0,0,0,0,0,45,45,61,,,,772.1337392000005,None,770.9506418000001,772.1503455000002,s,1,0.4456950000003417,失意,l,1,0.5957226000009541,wwt,f,23,2024_Apr_11_1125,mian,2021.2.3,59.768290292117356,
,,,,,,0,0,pic/flanker5.png,pic/flanker1.png,s,l,pic/AffRest1.png,,,,,,,,,,,,,,,,,,,,,,,,,0,0,0,0,0,46,46,67,,,,775.0002215999993,None,773.8169288999998,775.0171597999997,s,1,0.3176282000003994,处罚,l,1,0.4460503999998764,wwt,f,23,2024_Apr_11_1125,mian,2021.2.3,59.768290292117356,
,,,,,,1,1,pic/flanker6.png,pic/flanker4.png,s,k,pic/AffRest1.png,,,,,,,,,,,,,,,,,,,,,,,,,0,0,0,0,0,47,47,30,,,,777.7504358000006,None,776.5669663999997,777.7670600000001,s,1,0.47986370000035095,典雅,k,1,0.49416159999964293,wwt,f,23,2024_Apr_11_1125,mian,2021.2.3,59.768290292117356,
,,,,,,1,0,pic/flanker5.png,pic/flanker3.png,a,l,pic/AffRest1.png,,,,,,,,,,,,,,,,,,,,,,,,,0,0,0,0,0,48,48,79,,,,780.7500027000006,None,779.5670527000002,780.7667246000001,a,1,0.6663822999998956,杂乱,l,1,0.48883939999905124,wwt,f,23,2024_Apr_11_1125,mian,2021.2.3,59.768290292117356,
,,,,,,0,0,pic/flanker5.png,pic/flanker1.png,s,l,pic/AffRest1.png,,,,,,,,,,,,,,,,,,,,,,,,,0,0,0,0,0,49,49,27,,,,783.7338330999992,None,782.5502345000004,783.7503001999994,s,1,0.3298849999991944,撒谎,l,1,0.5487434999995457,wwt,f,23,2024_Apr_11_1125,mian,2021.2.3,59.768290292117356,
,,,,,,1,0,pic/flanker6.png,pic/flanker4.png,s,l,pic/AffRest1.png,,,,,,,,,,,,,,,,,,,,,,,,,0,0,0,0,0,50,50,77,,,,786.5004281000001,None,785.3173177999997,786.5171171000002,s,1,0.40074119999917457,厌恶,l,1,0.5889583000007406,wwt,f,23,2024_Apr_11_1125,mian,2021.2.3,59.768290292117356,
,,,,,,1,1,pic/flanker6.png,pic/flanker4.png,s,k,pic/AffRest1.png,,,,,,,,,,,,,,,,,,,,,,,,,0,0,0,0,0,51,51,38,,,,789.3851981000007,None,788.2026781000004,789.4016486,s,1,0.4248795000003156,富丽,k,1,0.5163754999994126,wwt,f,23,2024_Apr_11_1125,mian,2021.2.3,59.768290292117356,
,,,,,,1,1,pic/flanker5.png,pic/flanker3.png,a,k,pic/AffRest1.png,,,,,,,,,,,,,,,,,,,,,,,,,0,0,0,0,0,52,52,52,,,,792.2671343999991,None,791.0837931999995,792.2837060999991,a,1,0.5180252999998629,珍藏,k,1,0.6367685000004712,wwt,f,23,2024_Apr_11_1125,mian,2021.2.3,59.768290292117356,
,,,,,,0,1,pic/flanker5.png,pic/flanker1.png,s,k,pic/AffRest1.png,,,,,,,,,,,,,,,,,,,,,,,,,0,0,0,0,0,53,53,0,,,,795.3006234999993,None,794.1169114999993,795.3173542999994,s,1,0.3252522999991925,富足,k,1,0.588699900001302,wwt,f,23,2024_Apr_11_1125,mian,2021.2.3,59.768290292117356,
,,,,,,0,0,pic/flanker6.png,pic/flanker2.png,a,l,pic/AffRest1.png,,,,,,,,,,,,,,,,,,,,,,,,,0,0,0,0,0,54,54,49,,,,798.2349482999998,None,797.0498998000003,798.2514819999997,a,1,0.3706483999994816,焦躁,l,1,0.5432009999985894,wwt,f,23,2024_Apr_11_1125,mian,2021.2.3,59.768290292117356,
,,,,,,0,0,pic/flanker5.png,pic/flanker1.png,s,l,pic/AffRest1.png,,,,,,,,,,,,,,,,,,,,,,,,,0,0,0,0,0,55,55,59,,,,801.217110399999,None,800.0335144000001,801.2337688999996,s,1,0.4275013000005856,鲁莽,l,1,0.6079281000002084,wwt,f,23,2024_Apr_11_1125,mian,2021.2.3,59.768290292117356,
,,,,,,0,0,pic/flanker6.png,pic/flanker2.png,a,l,pic/AffRest1.png,,,,,,,,,,,,,,,,,,,,,,,,,0,0,0,0,0,56,56,73,,,,804.2005609999997,None,803.0172401,804.2170492999994,a,1,0.36590569999862055,浪费,l,1,0.7022541000005731,wwt,f,23,2024_Apr_11_1125,mian,2021.2.3,59.768290292117356,
,,,,,,1,0,pic/flanker5.png,pic/flanker3.png,a,l,pic/AffRest1.png,,,,,,,,,,,,,,,,,,,,,,,,,0,0,0,0,0,57,57,7,,,,807.2174176999997,None,806.0338264999991,807.2341505000004,a,1,0.48798540000098,禁止,l,1,0.6160249000004114,wwt,f,23,2024_Apr_11_1125,mian,2021.2.3,59.768290292117356,
,,,,,,1,1,pic/flanker6.png,pic/flanker4.png,s,k,pic/AffRest1.png,,,,,,,,,,,,,,,,,,,,,,,,,0,0,0,0,0,58,58,70,,,,810.1844830999999,None,809.0008120000002,810.2010081999997,s,1,0.4868231000000378,留恋,k,1,0.5505138000007719,wwt,f,23,2024_Apr_11_1125,mian,2021.2.3,59.768290292117356,
,,,,,,0,1,pic/flanker6.png,pic/flanker2.png,a,k,pic/AffRest1.png,,,,,,,,,,,,,,,,,,,,,,,,,0,0,0,0,0,59,59,74,,,,813.1338632000006,None,811.9503096999997,813.1503768000002,a,1,0.31554549999964365,秀丽,k,1,0.646808699999383,wwt,f,23,2024_Apr_11_1125,mian,2021.2.3,59.768290292117356,
,,,,,,0,0,pic/flanker5.png,pic/flanker1.png,s,l,pic/AffRest1.png,,,,,,,,,,,,,,,,,,,,,,,,,0,0,0,0,0,60,60,3,,,,815.9170202999994,None,814.7337011,815.9337761000006,s,1,0.36723170000004757,烦恼,l,1,0.4371075999988534,wwt,f,23,2024_Apr_11_1125,mian,2021.2.3,59.768290292117356,
,,,,,,1,0,pic/flanker5.png,pic/flanker3.png,a,l,pic/AffRest1.png,,,,,,,,,,,,,,,,,,,,,,,,,0,0,0,0,0,61,61,31,,,,818.5671053000005,None,817.3833293999996,818.5837049999991,a,1,0.4866137000008166,损害,l,1,0.6464940000005299,wwt,f,23,2024_Apr_11_1125,mian,2021.2.3,59.768290292117356,
,,,,,,1,1,pic/flanker5.png,pic/flanker3.png,a,k,pic/AffRest1.png,,,,,,,,,,,,,,,,,,,,,,,,,0,0,0,0,0,62,62,68,,,,821.633711299999,None,820.4503411999995,821.6504502999996,a,1,0.5360538999993878,生动,k,1,0.8297438999998121,wwt,f,23,2024_Apr_11_1125,mian,2021.2.3,59.768290292117356,
,,,,,,1,1,pic/flanker5.png,pic/flanker3.png,a,k,pic/AffRest1.png,,,,,,,,,,,,,,,,,,,,,,,,,0,0,0,0,0,63,63,44,,,,824.9504980999991,None,823.7669800999993,824.9671772999991,a,1,0.6281606999982614,鲜艳,k,1,0.5354287000009208,wwt,f,23,2024_Apr_11_1125,mian,2021.2.3,59.768290292117356,
,,,,,,0,1,pic/flanker6.png,pic/flanker2.png,a,k,pic/AffRest1.png,,,,,,,,,,,,,,,,,,,,,,,,,0,0,0,0,0,64,64,66,,,,828.0670141999999,None,826.883482199999,828.0837291999997,a,1,0.30788659999961965,俊秀,k,1,0.4233496000015293,wwt,f,23,2024_Apr_11_1125,mian,2021.2.3,59.768290292117356,
,,,,,,0,0,pic/flanker6.png,pic/flanker2.png,a,l,pic/AffRest1.png,,,,,,,,,,,,,,,,,,,,,,,,,0,0,0,0,0,65,65,65,,,,830.7838140999993,None,829.600357199999,830.8002770999992,a,1,0.339691800001674,缺乏,l,1,0.4874104999998963,wwt,f,23,2024_Apr_11_1125,mian,2021.2.3,59.768290292117356,
,,,,,,1,0,pic/flanker6.png,pic/flanker4.png,s,l,pic/AffRest1.png,,,,,,,,,,,,,,,,,,,,,,,,,0,0,0,0,0,66,66,5,,,,833.6504626000005,None,832.4669236999998,833.6669777999996,s,1,0.4490232999996806,郁闷,l,1,0.5124107000010554,wwt,f,23,2024_Apr_11_1125,mian,2021.2.3,59.768290292117356,
,,,,,,0,1,pic/flanker6.png,pic/flanker2.png,a,k,pic/AffRest1.png,,,,,,,,,,,,,,,,,,,,,,,,,0,0,0,0,0,67,67,18,,,,836.4337147999995,None,835.2501919000006,836.4504333000004,a,1,0.44400390000009793,精致,k,1,0.6112838000008196,wwt,f,23,2024_Apr_11_1125,mian,2021.2.3,59.768290292117356,
,,,,,,1,1,pic/flanker6.png,pic/flanker4.png,s,k,pic/AffRest1.png,,,,,,,,,,,,,,,,,,,,,,,,,0,0,0,0,0,68,68,46,,,,839.5336869999992,None,838.3501539999997,839.5504877000003,s,1,0.47283340000103635,豪放,k,1,0.7629918000002363,wwt,f,23,2024_Apr_11_1125,mian,2021.2.3,59.768290292117356,
,,,,,,1,1,pic/flanker5.png,pic/flanker3.png,a,k,pic/AffRest1.png,,,,,,,,,,,,,,,,,,,,,,,,,0,0,0,0,0,69,69,28,,,,842.6505684000003,None,841.4669460000005,842.6671752999991,a,1,0.4381499999999505,振作,k,1,0.6318893999996362,wwt,f,23,2024_Apr_11_1125,mian,2021.2.3,59.768290292117356,
,,,,,,1,0,pic/flanker6.png,pic/flanker4.png,s,l,pic/AffRest1.png,,,,,,,,,,,,,,,,,,,,,,,,,0,0,0,0,0,70,70,13,,,,845.5680057999998,None,844.3834399000007,845.5843996000003,s,1,0.5037107000007381,逃避,l,1,0.4118652999986807,wwt,f,23,2024_Apr_11_1125,mian,2021.2.3,59.768290292117356,
,,,,,,0,0,pic/flanker5.png,pic/flanker1.png,s,l,pic/AffRest1.png,,,,,,,,,,,,,,,,,,,,,,,,,0,0,0,0,0,71,71,43,,,,848.3503180000007,None,847.1669688999991,848.3671904000003,s,1,0.36571769999864046,别扭,l,1,0.4775614999998652,wwt,f,23,2024_Apr_11_1125,mian,2021.2.3,59.768290292117356,
,,,,,,0,0,pic/flanker5.png,pic/flanker1.png,s,l,pic/AffRest1.png,,,,,,,,,,,,,,,,,,,,,,,,,0,0,0,0,0,72,72,51,,,,851.1844175000006,None,850.0009829999999,851.2010730000002,s,1,0.5564961999989464,冷笑,l,1,0.473623799998677,wwt,f,23,2024_Apr_11_1125,mian,2021.2.3,59.768290292117356,
,,,,,,1,0,pic/flanker6.png,pic/flanker4.png,s,l,pic/AffRest1.png,,,,,,,,,,,,,,,,,,,,,,,,,0,0,0,0,0,73,73,53,,,,854.2505727999996,None,853.066907299999,854.2670579000005,s,1,0.49867300000005343,消沉,l,1,0.5574162000011711,wwt,f,23,2024_Apr_11_1125,mian,2021.2.3,59.768290292117356,
,,,,,,0,1,pic/flanker5.png,pic/flanker1.png,s,k,pic/AffRest1.png,,,,,,,,,,,,,,,,,,,,,,,,,0,0,0,0,0,74,74,40,,,,857.2836989000007,None,856.1018519999998,857.3167272999999,s,1,0.39459590000114986,热切,k,1,0.4986862999994628,wwt,f,23,2024_Apr_11_1125,mian,2021.2.3,59.768290292117356,
,,,,,,1,1,pic/flanker5.png,pic/flanker3.png,a,k,pic/AffRest1.png,,,,,,,,,,,,,,,,,,,,,,,,,0,0,0,0,0,75,75,20,,,,860.051877599999,None,858.8671379999996,860.0686413999993,a,1,0.7284694999998464,有利,k,1,0.5596651999985625,wwt,f,23,2024_Apr_11_1125,mian,2021.2.3,59.768290292117356,
,,,,,,0,1,pic/flanker6.png,pic/flanker2.png,a,k,pic/AffRest1.png,,,,,,,,,,,,,,,,,,,,,,,,,0,0,0,0,0,76,76,10,,,,863.3504811000003,None,862.1669012999992,863.3672012000006,a,1,0.43091520000052697,吉祥,k,1,0.4938904000009643,wwt,f,23,2024_Apr_11_1125,mian,2021.2.3,59.768290292117356,
,,,,,,0,1,pic/flanker6.png,pic/flanker2.png,a,k,pic/AffRest1.png,,,,,,,,,,,,,,,,,,,,,,,,,0,0,0,0,0,77,77,58,,,,866.2669602999995,None,865.0865140000005,866.3018372999995,a,1,0.33995470000081696,清秀,k,1,0.45616489999883925,wwt,f,23,2024_Apr_11_1125,mian,2021.2.3,59.768290292117356,
,,,,,,1,1,pic/flanker5.png,pic/flanker3.png,a,k,pic/AffRest1.png,,,,,,,,,,,,,,,,,,,,,,,,,0,0,0,0,0,78,78,60,,,,869.1006868000004,None,867.9171497999996,869.1175712999993,a,1,0.7155184999992343,优雅,k,1,0.541962400000557,wwt,f,23,2024_Apr_11_1125,mian,2021.2.3,59.768290292117356,
,,,,,,1,0,pic/flanker6.png,pic/flanker4.png,s,l,pic/AffRest1.png,,,,,,,,,,,,,,,,,,,,,,,,,0,0,0,0,0,79,79,21,,,,872.3005176999995,None,871.1171684000001,872.3166554,s,1,0.57928770000035,胡涂,l,1,0.6163532000009582,wwt,f,23,2024_Apr_11_1125,mian,2021.2.3,59.768290292117356,
,,,,,,,,,,,,pic/AffRest1.png,,,,,,,,,,,,,,,,,,,,,,,,,0,0,0,0,,,,,,,,,,,,,,,,,,,wwt,f,23,2024_Apr_11_1125,mian,2021.2.3,59.768290292117356,
,,,,,,0,0,pic/flanker6.png,pic/flanker2.png,a,l,pic/AffRest2.png,,,,,,,,,,,,,,,,,,,,,,,,,0,1,1,1,0,0,0,9,,,,888.2671542999997,None,887.0752073000003,888.2839211999999,a,1,0.4277323999995133,郁闷,l,1,0.5509588000004442,wwt,f,23,2024_Apr_11_1125,mian,2021.2.3,59.768290292117356,
,,,,,,1,1,pic/flanker5.png,pic/flanker3.png,a,k,pic/AffRest2.png,,,,,,,,,,,,,,,,,,,,,,,,,0,1,1,1,0,1,1,76,,,,891.2003984000003,None,890.0170913999991,891.217068599999,a,1,0.5268224999999802,丰满,k,1,0.5924553999993805,wwt,f,23,2024_Apr_11_1125,mian,2021.2.3,59.768290292117356,
,,,,,,1,0,pic/flanker5.png,pic/flanker3.png,a,l,pic/AffRest2.png,,,,,,,,,,,,,,,,,,,,,,,,,0,1,1,1,0,2,2,31,,,,894.3505559999994,None,893.1670880000001,894.3672138000002,a,1,0.5027221000000281,自卑,l,1,0.6265659000000596,wwt,f,23,2024_Apr_11_1125,mian,2021.2.3,59.768290292117356,
,,,,,,1,1,pic/flanker6.png,pic/flanker4.png,s,k,pic/AffRest2.png,,,,,,,,,,,,,,,,,,,,,,,,,0,1,1,1,0,3,3,22,,,,897.4672234999998,None,896.2835627000004,897.4837927999997,s,1,0.42722760000106064,生动,k,1,0.47474940000029164,wwt,f,23,2024_Apr_11_1125,mian,2021.2.3,59.768290292117356,
,,,,,,1,0,pic/flanker6.png,pic/flanker4.png,s,l,pic/AffRest2.png,,,,,,,,,,,,,,,,,,,,,,,,,0,1,1,1,0,4,4,21,,,,900.3004010999994,None,899.1171085999995,900.3172716999998,s,1,0.4191622999987885,别扭,l,1,0.48554949999925157,wwt,f,23,2024_Apr_11_1125,mian,2021.2.3,59.768290292117356,
,,,,,,1,1,pic/flanker5.png,pic/flanker3.png,a,k,pic/AffRest2.png,,,,,,,,,,,,,,,,,,,,,,,,,0,1,1,1,0,5,5,68,,,,903.1010387999995,None,901.9177624000004,903.1180344999993,a,1,0.45914970000012545,珍藏,k,1,0.4838251000001037,wwt,f,23,2024_Apr_11_1125,mian,2021.2.3,59.768290292117356,
,,,,,,1,0,pic/flanker5.png,pic/flanker3.png,a,l,pic/AffRest2.png,,,,,,,,,,,,,,,,,,,,,,,,,0,1,1,1,0,6,6,79,,,,906.0357953000002,None,904.8500683000002,906.0532258000003,a,1,0.5072896999990917,冷笑,l,1,0.5938435999996727,wwt,f,23,2024_Apr_11_1125,mian,2021.2.3,59.768290292117356,
,,,,,,0,1,pic/flanker6.png,pic/flanker2.png,a,k,pic/AffRest2.png,,,,,,,,,,,,,,,,,,,,,,,,,0,1,1,1,0,7,7,58,,,,909.2004579000004,None,908.0170440000002,909.217127599999,a,1,0.3233265000017127,富丽,k,1,0.4915940999999293,wwt,f,23,2024_Apr_11_1125,mian,2021.2.3,59.768290292117356,
,,,,,,1,1,pic/flanker5.png,pic/flanker3.png,a,k,pic/AffRest2.png,,,,,,,,,,,,,,,,,,,,,,,,,0,1,1,1,0,8,8,28,,,,911.9507503999994,None,910.7675531999994,911.9674672000001,a,1,0.49498599999969883,赞成,k,1,0.4795713999992586,wwt,f,23,2024_Apr_11_1125,mian,2021.2.3,59.768290292117356,
,,,,,,0,0,pic/flanker5.png,pic/flanker1.png,s,l,pic/AffRest2.png,,,,,,,,,,,,,,,,,,,,,,,,,0,1,1,1,0,9,9,43,,,,914.9666373,None,913.7835899000002,914.983737999999,s,1,0.39025709999987157,杂乱,l,1,0.5105389999989711,wwt,f,23,2024_Apr_11_1125,mian,2021.2.3,59.768290292117356,
,,,,,,0,1,pic/flanker5.png,pic/flanker1.png,s,k,pic/AffRest2.png,,,,,,,,,,,,,,,,,,,,,,,,,0,1,1,1,0,10,10,24,,,,917.8504599999997,None,916.6689970000007,917.8836747999994,s,1,0.3510041999998066,公平,k,1,0.4929816000003484,wwt,f,23,2024_Apr_11_1125,mian,2021.2.3,59.768290292117356,
,,,,,,1,1,pic/flanker5.png,pic/flanker3.png,a,k,pic/AffRest2.png,,,,,,,,,,,,,,,,,,,,,,,,,0,1,1,1,0,11,11,44,,,,920.5677531999991,None,919.3846245000004,920.5843377000001,a,1,0.7072038999995129,爽朗,l,0,0.3344802999999956,wwt,f,23,2024_Apr_11_1125,mian,2021.2.3,59.768290292117356,
,,,,,,1,1,pic/flanker5.png,pic/flanker3.png,a,k,pic/AffRest2.png,,,,,,,,,,,,,,,,,,,,,,,,,0,1,1,1,0,12,12,12,,,,923.4838340999995,None,922.3026031999998,923.5171203999998,a,1,0.49120000000039,充裕,k,1,0.5286223000002792,wwt,f,23,2024_Apr_11_1125,mian,2021.2.3,59.768290292117356,
,,,,,,0,1,pic/flanker5.png,pic/flanker1.png,s,k,pic/AffRest2.png,,,,,,,,,,,,,,,,,,,,,,,,,0,1,1,1,0,13,13,48,,,,926.4504022000001,None,925.2668025999992,926.4670807000002,s,1,0.4401293999999325,振作,k,1,0.5228160999995453,wwt,f,23,2024_Apr_11_1125,mian,2021.2.3,59.768290292117356,
,,,,,,0,1,pic/flanker5.png,pic/flanker1.png,s,k,pic/AffRest2.png,,,,,,,,,,,,,,,,,,,,,,,,,0,1,1,1,0,14,14,8,,,,929.3505549000001,None,928.1702292999998,929.3837476999997,s,1,0.8245610000012675,圣洁,k,1,0.5830843999992794,wwt,f,23,2024_Apr_11_1125,mian,2021.2.3,59.768290292117356,
,,,,,,0,0,pic/flanker5.png,pic/flanker1.png,s,l,pic/AffRest2.png,,,,,,,,,,,,,,,,,,,,,,,,,0,1,1,1,0,15,15,51,,,,932.5837221999991,None,931.4003560000001,932.6004756999992,s,1,0.34466430000065884,消沉,l,1,0.4507597000010719,wwt,f,23,2024_Apr_11_1125,mian,2021.2.3,59.768290292117356,
,,,,,,0,1,pic/flanker5.png,pic/flanker1.png,s,k,pic/AffRest2.png,,,,,,,,,,,,,,,,,,,,,,,,,0,1,1,1,0,16,16,72,,,,935.2018499999995,None,934.0171482000005,935.2186736000003,s,1,0.30111919999944803,典雅,k,1,0.5085632999998779,wwt,f,23,2024_Apr_11_1125,mian,2021.2.3,59.768290292117356,
,,,,,,1,1,pic/flanker6.png,pic/flanker4.png,s,k,pic/AffRest2.png,,,,,,,,,,,,,,,,,,,,,,,,,0,1,1,1,0,17,17,6,,,,937.8510944999998,None,936.6669913999995,937.8670748999994,s,1,0.49463250000007974,如愿,k,1,0.5055245000003197,wwt,f,23,2024_Apr_11_1125,mian,2021.2.3,59.768290292117356,
,,,,,,0,0,pic/flanker6.png,pic/flanker2.png,a,l,pic/AffRest2.png,,,,,,,,,,,,,,,,,,,,,,,,,0,1,1,1,0,18,18,41,,,,940.7338385999992,None,939.5502887000002,940.7505337000002,a,1,0.33367100000032224,罚款,l,1,0.38870179999867105,wwt,f,23,2024_Apr_11_1125,mian,2021.2.3,59.768290292117356,
,,,,,,0,0,pic/flanker6.png,pic/flanker2.png,a,l,pic/AffRest2.png,,,,,,,,,,,,,,,,,,,,,,,,,0,1,1,1,0,19,19,49,,,,943.3504737999992,None,942.1689850999992,943.3837125999999,a,1,0.3446170000006532,禁止,k,0,0.5710047999982635,wwt,f,23,2024_Apr_11_1125,mian,2021.2.3,59.768290292117356,
,,,,,,0,0,pic/flanker5.png,pic/flanker1.png,s,l,pic/AffRest2.png,,,,,,,,,,,,,,,,,,,,,,,,,0,1,1,1,0,20,20,19,,,,946.1002993999991,None,944.9171867000005,946.1172387000006,s,1,0.3765522999983659,逃避,l,1,0.6346443999991607,wwt,f,23,2024_Apr_11_1125,mian,2021.2.3,59.768290292117356,
,,,,,,1,0,pic/flanker5.png,pic/flanker3.png,a,l,pic/AffRest2.png,,,,,,,,,,,,,,,,,,,,,,,,,0,1,1,1,0,21,21,39,,,,948.9506308999989,None,947.7672433000007,948.9671856999994,a,1,0.5157440999992104,心慌,l,1,0.5535142000007909,wwt,f,23,2024_Apr_11_1125,mian,2021.2.3,59.768290292117356,
,,,,,,0,0,pic/flanker5.png,pic/flanker1.png,s,l,pic/AffRest2.png,,,,,,,,,,,,,,,,,,,,,,,,,0,1,1,1,0,22,22,11,,,,951.9004153999995,None,950.7170963999997,951.9171086000006,s,1,0.43261189999975613,忧虑,l,1,0.4638111000003846,wwt,f,23,2024_Apr_11_1125,mian,2021.2.3,59.768290292117356,
,,,,,,1,0,pic/flanker6.png,pic/flanker4.png,s,l,pic/AffRest2.png,,,,,,,,,,,,,,,,,,,,,,,,,0,1,1,1,0,23,23,37,,,,954.717047099999,None,953.5338310999996,954.7338760000002,s,1,0.5720588000003772,胡涂,l,1,0.47094839999954274,wwt,f,23,2024_Apr_11_1125,mian,2021.2.3,59.768290292117356,
,,,,,,1,0,pic/flanker5.png,pic/flanker3.png,a,l,pic/AffRest2.png,,,,,,,,,,,,,,,,,,,,,,,,,0,1,1,1,0,24,24,55,,,,957.7505595000002,None,956.5669194999991,957.7672406999991,a,1,0.5272580000000744,落后,l,1,0.5484995000006165,wwt,f,23,2024_Apr_11_1125,mian,2021.2.3,59.768290292117356,
,,,,,,1,1,pic/flanker5.png,pic/flanker3.png,a,k,pic/AffRest2.png,,,,,,,,,,,,,,,,,,,,,,,,,0,1,1,1,0,25,25,4,,,,960.7173026,None,959.5342084999993,960.7338471000003,a,1,0.5144397999993089,旺盛,k,1,0.7900497999999061,wwt,f,23,2024_Apr_11_1125,mian,2021.2.3,59.768290292117356,
,,,,,,0,1,pic/flanker6.png,pic/flanker2.png,a,k,pic/AffRest2.png,,,,,,,,,,,,,,,,,,,,,,,,,0,1,1,1,0,26,26,74,,,,964.0338250000004,None,962.8504477999995,964.0506432999991,a,1,0.42868600000110746,雄厚,k,1,0.42062760000044364,wwt,f,23,2024_Apr_11_1125,mian,2021.2.3,59.768290292117356,
,,,,,,1,0,pic/flanker5.png,pic/flanker3.png,a,l,pic/AffRest2.png,,,,,,,,,,,,,,,,,,,,,,,,,0,1,1,1,0,27,27,23,,,,966.7683409000001,None,965.5851242999997,966.7849031000005,a,1,0.53939790000004,沮丧,l,1,0.4315098000006401,wwt,f,23,2024_Apr_11_1125,mian,2021.2.3,59.768290292117356,
,,,,,,1,1,pic/flanker5.png,pic/flanker3.png,a,k,pic/AffRest2.png,,,,,,,,,,,,,,,,,,,,,,,,,0,1,1,1,0,28,28,52,,,,969.7675068999997,None,968.5844794000004,969.7833513999994,a,1,0.5097503999986657,正直,k,1,0.5339222000002337,wwt,f,23,2024_Apr_11_1125,mian,2021.2.3,59.768290292117356,
,,,,,,1,0,pic/flanker6.png,pic/flanker4.png,s,l,pic/AffRest2.png,,,,,,,,,,,,,,,,,,,,,,,,,0,1,1,1,0,29,29,69,,,,972.7005606999992,None,971.5170713999996,972.7172319999991,None,0,,怀疑,l,1,1.3051644999995915,wwt,f,23,2024_Apr_11_1125,mian,2021.2.3,59.768290292117356,
,,,,,,0,1,pic/flanker6.png,pic/flanker2.png,a,k,pic/AffRest2.png,,,,,,,,,,,,,,,,,,,,,,,,,0,1,1,1,0,30,30,42,,,,977.3838608999995,None,976.2004517999994,977.4005877999989,a,1,0.4372731000003114,舒畅,k,1,0.5364826000004541,wwt,f,23,2024_Apr_11_1125,mian,2021.2.3,59.768290292117356,
,,,,,,1,1,pic/flanker6.png,pic/flanker4.png,s,k,pic/AffRest2.png,,,,,,,,,,,,,,,,,,,,,,,,,0,1,1,1,0,31,31,46,,,,980.3507141999999,None,979.1671745000003,980.3670910000001,s,1,0.7410028000012971,富足,k,1,0.54283199999918,wwt,f,23,2024_Apr_11_1125,mian,2021.2.3,59.768290292117356,
,,,,,,1,1,pic/flanker5.png,pic/flanker3.png,a,k,pic/AffRest2.png,,,,,,,,,,,,,,,,,,,,,,,,,0,1,1,1,0,32,32,60,,,,983.6845794000001,None,982.5011388000003,983.7011636999996,a,1,0.6137146000000939,诚恳,k,1,0.5777312999998685,wwt,f,23,2024_Apr_11_1125,mian,2021.2.3,59.768290292117356,
,,,,,,0,0,pic/flanker5.png,pic/flanker1.png,s,l,pic/AffRest2.png,,,,,,,,,,,,,,,,,,,,,,,,,0,1,1,1,0,33,33,27,,,,986.883571299999,None,985.7004739000004,986.9005127,s,1,0.40691250000054424,缺乏,l,1,0.5661231000012776,wwt,f,23,2024_Apr_11_1125,mian,2021.2.3,59.768290292117356,
,,,,,,1,0,pic/flanker6.png,pic/flanker4.png,s,l,pic/AffRest2.png,,,,,,,,,,,,,,,,,,,,,,,,,0,1,1,1,0,34,34,29,,,,989.9005211000003,None,988.7178060000006,989.9172914999999,s,1,0.6399839000005159,假冒,l,1,0.640012800000477,wwt,f,23,2024_Apr_11_1125,mian,2021.2.3,59.768290292117356,
,,,,,,1,1,pic/flanker6.png,pic/flanker4.png,s,k,pic/AffRest2.png,,,,,,,,,,,,,,,,,,,,,,,,,0,1,1,1,0,35,35,30,,,,993.1838062999996,None,992.0003713000006,993.2004424999996,s,1,0.5887191000001621,豪放,k,1,0.8599826999998186,wwt,f,23,2024_Apr_11_1125,mian,2021.2.3,59.768290292117356,
,,,,,,1,0,pic/flanker5.png,pic/flanker3.png,a,l,pic/AffRest2.png,,,,,,,,,,,,,,,,,,,,,,,,,0,1,1,1,0,36,36,71,,,,996.567145699999,None,995.3834901999999,996.5836244000002,a,1,0.47289769999952114,嘲笑,l,1,0.6278603999999177,wwt,f,23,2024_Apr_11_1125,mian,2021.2.3,59.768290292117356,
,,,,,,0,0,pic/flanker6.png,pic/flanker2.png,a,l,pic/AffRest2.png,,,,,,,,,,,,,,,,,,,,,,,,,0,1,1,1,0,37,37,25,,,,999.6005299999997,None,998.4170723000007,999.6172143999993,a,1,0.38954159999957483,闷热,l,1,0.7015946999999869,wwt,f,23,2024_Apr_11_1125,mian,2021.2.3,59.768290292117356,
,,,,,,1,0,pic/flanker6.png,pic/flanker4.png,s,l,pic/AffRest2.png,,,,,,,,,,,,,,,,,,,,,,,,,0,1,1,1,0,38,38,5,,,,1002.7169486999992,None,1001.5338978999989,1002.7338089999994,s,1,0.8253770999999688,处罚,l,1,0.5683048000009876,wwt,f,23,2024_Apr_11_1125,mian,2021.2.3,59.768290292117356,
,,,,,,0,1,pic/flanker5.png,pic/flanker1.png,s,k,pic/AffRest2.png,,,,,,,,,,,,,,,,,,,,,,,,,0,1,1,1,0,39,39,16,,,,1006.0339313999993,None,1004.8504126000007,1006.0505198999999,s,1,0.44204439999884926,前进,k,1,0.5288822000002256,wwt,f,23,2024_Apr_11_1125,mian,2021.2.3,59.768290292117356,
,,,,,,1,0,pic/flanker5.png,pic/flanker3.png,a,l,pic/AffRest2.png,,,,,,,,,,,,,,,,,,,,,,,,,0,1,1,1,0,40,40,7,,,,1008.8349801999993,None,1007.6503955999997,1008.8516632999999,a,1,0.49996979999923497,排斥,l,1,0.609358699999575,wwt,f,23,2024_Apr_11_1125,mian,2021.2.3,59.768290292117356,
,,,,,,0,0,pic/flanker5.png,pic/flanker1.png,s,l,pic/AffRest2.png,,,,,,,,,,,,,,,,,,,,,,,,,0,1,1,1,0,41,41,59,,,,1011.8005297999989,None,1010.6170691000007,1011.8170738999997,s,1,0.32860929999878863,厌恶,l,1,0.4827220999995916,wwt,f,23,2024_Apr_11_1125,mian,2021.2.3,59.768290292117356,
,,,,,,1,0,pic/flanker6.png,pic/flanker4.png,s,l,pic/AffRest2.png,,,,,,,,,,,,,,,,,,,,,,,,,0,1,1,1,0,42,42,45,,,,1014.633912199999,None,1013.4505069999996,1014.6505395000004,s,1,0.4304480999999214,黑暗,l,1,0.7381138999990071,wwt,f,23,2024_Apr_11_1125,mian,2021.2.3,59.768290292117356,
,,,,,,0,1,pic/flanker6.png,pic/flanker2.png,a,k,pic/AffRest2.png,,,,,,,,,,,,,,,,,,,,,,,,,0,1,1,1,0,43,43,18,,,,1017.6839297999995,None,1016.5005022000005,1017.7005291999994,a,1,0.6544051999990188,有利,k,1,0.5433923000000505,wwt,f,23,2024_Apr_11_1125,mian,2021.2.3,59.768290292117356,
,,,,,,0,1,pic/flanker5.png,pic/flanker1.png,s,k,pic/AffRest2.png,,,,,,,,,,,,,,,,,,,,,,,,,0,1,1,1,0,44,44,64,,,,1020.7171717000001,None,1019.5336984999994,1020.7338156999995,s,1,0.33797260000028473,热切,k,1,0.5804862999993929,wwt,f,23,2024_Apr_11_1125,mian,2021.2.3,59.768290292117356,
,,,,,,0,0,pic/flanker6.png,pic/flanker2.png,a,l,pic/AffRest2.png,,,,,,,,,,,,,,,,,,,,,,,,,0,1,1,1,0,45,45,33,,,,1023.5171964000001,None,1022.3336927,1023.5338515000003,a,1,0.3892613000007259,焦躁,l,1,0.5786620999988372,wwt,f,23,2024_Apr_11_1125,mian,2021.2.3,59.768290292117356,
,,,,,,0,0,pic/flanker5.png,pic/flanker1.png,s,l,pic/AffRest2.png,,,,,,,,,,,,,,,,,,,,,,,,,0,1,1,1,0,46,46,75,,,,1026.3171462999999,None,1025.1339747000002,1026.3339620000006,s,1,0.5711231999994197,争吵,l,1,0.7431487999983801,wwt,f,23,2024_Apr_11_1125,mian,2021.2.3,59.768290292117356,
,,,,,,1,0,pic/flanker5.png,pic/flanker3.png,a,l,pic/AffRest2.png,,,,,,,,,,,,,,,,,,,,,,,,,0,1,1,1,0,47,47,47,,,,1029.567255,None,1028.3837029000006,1029.5839149000003,a,1,0.4788557000010769,慌忙,l,1,0.582259000000704,wwt,f,23,2024_Apr_11_1125,mian,2021.2.3,59.768290292117356,
,,,,,,0,1,pic/flanker6.png,pic/flanker2.png,a,k,pic/AffRest2.png,,,,,,,,,,,,,,,,,,,,,,,,,0,1,1,1,0,48,48,34,,,,1032.5005330000004,None,1031.3172503999995,1032.5172289999991,a,1,0.4775219000002835,廉洁,k,1,0.5736627000005683,wwt,f,23,2024_Apr_11_1125,mian,2021.2.3,59.768290292117356,
,,,,,,0,1,pic/flanker5.png,pic/flanker1.png,s,k,pic/AffRest2.png,,,,,,,,,,,,,,,,,,,,,,,,,0,1,1,1,0,49,49,56,,,,1035.433874299999,None,1034.2505636000005,1035.4505508000002,s,1,0.3062651000000187,留恋,k,1,0.5537500999998883,wwt,f,23,2024_Apr_11_1125,mian,2021.2.3,59.768290292117356,
,,,,,,0,1,pic/flanker6.png,pic/flanker2.png,a,k,pic/AffRest2.png,,,,,,,,,,,,,,,,,,,,,,,,,0,1,1,1,0,50,50,66,,,,1038.1339530999994,None,1036.950531999999,1038.1506917999995,a,1,0.3907567000005656,精致,k,1,0.5115503999986686,wwt,f,23,2024_Apr_11_1125,mian,2021.2.3,59.768290292117356,
,,,,,,1,1,pic/flanker6.png,pic/flanker4.png,s,k,pic/AffRest2.png,,,,,,,,,,,,,,,,,,,,,,,,,0,1,1,1,0,51,51,54,,,,1041.0335053,None,1039.8504443000002,1041.0507259999995,s,1,0.5583777000010741,俊秀,k,1,0.5578657999994903,wwt,f,23,2024_Apr_11_1125,mian,2021.2.3,59.768290292117356,
,,,,,,0,1,pic/flanker6.png,pic/flanker2.png,a,k,pic/AffRest2.png,,,,,,,,,,,,,,,,,,,,,,,,,0,1,1,1,0,52,52,50,,,,1044.0850487999996,None,1042.9025026,1044.1017405999992,a,1,0.36649299999953655,永恒,k,1,0.5565988999987894,wwt,f,23,2024_Apr_11_1125,mian,2021.2.3,59.768290292117356,
,,,,,,1,0,pic/flanker5.png,pic/flanker3.png,a,l,pic/AffRest2.png,,,,,,,,,,,,,,,,,,,,,,,,,0,1,1,1,0,53,53,15,,,,1046.9181508000001,None,1045.734998,1046.934611499999,a,1,0.5495288000001892,撒谎,l,1,0.5284542000008514,wwt,f,23,2024_Apr_11_1125,mian,2021.2.3,59.768290292117356,
,,,,,,0,1,pic/flanker6.png,pic/flanker2.png,a,k,pic/AffRest2.png,,,,,,,,,,,,,,,,,,,,,,,,,0,1,1,1,0,54,54,10,,,,1050.0334650999994,None,1048.8501914999997,1050.0500343000003,a,1,0.46512110000003304,羡慕,k,1,0.5745858999998745,wwt,f,23,2024_Apr_11_1125,mian,2021.2.3,59.768290292117356,
,,,,,,1,1,pic/flanker6.png,pic/flanker4.png,s,k,pic/AffRest2.png,,,,,,,,,,,,,,,,,,,,,,,,,0,1,1,1,0,55,55,14,,,,1053.0505071000007,None,1051.8664864000002,1053.0671318999994,s,1,0.5614333999983501,卓越,k,1,0.48023009999997157,wwt,f,23,2024_Apr_11_1125,mian,2021.2.3,59.768290292117356,
,,,,,,0,0,pic/flanker6.png,pic/flanker2.png,a,l,pic/AffRest2.png,,,,,,,,,,,,,,,,,,,,,,,,,0,1,1,1,0,56,56,73,,,,1056.1172413000004,None,1054.9338886000005,1056.1339965000006,a,1,0.37295820000144886,堵塞,l,1,0.5619265999994241,wwt,f,23,2024_Apr_11_1125,mian,2021.2.3,59.768290292117356,
,,,,,,1,1,pic/flanker5.png,pic/flanker3.png,a,k,pic/AffRest2.png,,,,,,,,,,,,,,,,,,,,,,,,,0,1,1,1,0,57,57,36,,,,1059.0338871999993,None,1057.8503858999993,1059.0504652,a,1,0.5361229999998613,顽强,k,1,0.6305725000001985,wwt,f,23,2024_Apr_11_1125,mian,2021.2.3,59.768290292117356,
,,,,,,1,1,pic/flanker6.png,pic/flanker4.png,s,k,pic/AffRest2.png,,,,,,,,,,,,,,,,,,,,,,,,,0,1,1,1,0,58,58,62,,,,1062.2338519999994,None,1061.0504421000005,1062.2505313000001,s,1,0.46805830000084825,畅销,k,1,0.4919807000005676,wwt,f,23,2024_Apr_11_1125,mian,2021.2.3,59.768290292117356,
,,,,,,0,0,pic/flanker5.png,pic/flanker1.png,s,l,pic/AffRest2.png,,,,,,,,,,,,,,,,,,,,,,,,,0,1,1,1,0,59,59,67,,,,1065.2338479999999,None,1064.0504039000007,1065.2504869000004,s,1,0.5530794000005699,悲观,l,1,0.5157864000011614,wwt,f,23,2024_Apr_11_1125,mian,2021.2.3,59.768290292117356,
,,,,,,0,0,pic/flanker5.png,pic/flanker1.png,s,l,pic/AffRest2.png,,,,,,,,,,,,,,,,,,,,,,,,,0,1,1,1,0,60,60,35,,,,1068.1839254999995,None,1067.0006635999998,1068.2004703000002,s,1,0.3571792999991885,浪费,l,1,0.6624828000003617,wwt,f,23,2024_Apr_11_1125,mian,2021.2.3,59.768290292117356,
,,,,,,1,1,pic/flanker6.png,pic/flanker4.png,s,k,pic/AffRest2.png,,,,,,,,,,,,,,,,,,,,,,,,,0,1,1,1,0,61,61,78,,,,1071.1340235000007,None,1069.9501937999994,1071.150577299999,s,1,0.4218753999994078,清秀,k,1,0.5126204999996844,wwt,f,23,2024_Apr_11_1125,mian,2021.2.3,59.768290292117356,
,,,,,,0,1,pic/flanker5.png,pic/flanker1.png,s,k,pic/AffRest2.png,,,,,,,,,,,,,,,,,,,,,,,,,0,1,1,1,0,62,62,0,,,,1074.0005822000003,None,1072.8172661999997,1074.017194,s,1,0.33158389999880455,秀丽,k,1,0.467870699998457,wwt,f,23,2024_Apr_11_1125,mian,2021.2.3,59.768290292117356,
,,,,,,1,1,pic/flanker6.png,pic/flanker4.png,s,k,pic/AffRest2.png,,,,,,,,,,,,,,,,,,,,,,,,,0,1,1,1,0,63,63,38,,,,1076.6339274000002,None,1075.4503590999993,1076.6506470999993,s,1,0.47750810000070487,敬佩,k,1,0.5053162999993219,wwt,f,23,2024_Apr_11_1125,mian,2021.2.3,59.768290292117356,
,,,,,,1,0,pic/flanker5.png,pic/flanker3.png,a,l,pic/AffRest2.png,,,,,,,,,,,,,,,,,,,,,,,,,0,1,1,1,0,64,64,63,,,,1079.4511863000007,None,1078.2705495999999,1079.484644799999,a,1,0.5442302000010386,损害,l,1,0.7154379000003246,wwt,f,23,2024_Apr_11_1125,mian,2021.2.3,59.768290292117356,
,,,,,,1,1,pic/flanker6.png,pic/flanker4.png,s,k,pic/AffRest2.png,,,,,,,,,,,,,,,,,,,,,,,,,0,1,1,1,0,65,65,70,,,,1082.5516081000005,None,1081.3692778999994,1082.5850498,s,1,0.4551155999997718,享受,k,1,0.5547772999998415,wwt,f,23,2024_Apr_11_1125,mian,2021.2.3,59.768290292117356,
,,,,,,0,1,pic/flanker6.png,pic/flanker2.png,a,k,pic/AffRest2.png,,,,,,,,,,,,,,,,,,,,,,,,,0,1,1,1,0,66,66,2,,,,1085.6173051999995,None,1084.4340472999993,1085.6339265000006,a,1,0.38525579999986803,奉献,k,1,0.7049590000005992,wwt,f,23,2024_Apr_11_1125,mian,2021.2.3,59.768290292117356,
,,,,,,0,1,pic/flanker5.png,pic/flanker1.png,s,k,pic/AffRest2.png,,,,,,,,,,,,,,,,,,,,,,,,,0,1,1,1,0,67,67,32,,,,1088.751317799999,None,1087.5677914999997,1088.7679733000004,s,1,0.3594231999995827,优雅,k,1,0.4595905000005587,wwt,f,23,2024_Apr_11_1125,mian,2021.2.3,59.768290292117356,
,,,,,,1,0,pic/flanker6.png,pic/flanker4.png,s,l,pic/AffRest2.png,,,,,,,,,,,,,,,,,,,,,,,,,0,1,1,1,0,68,68,53,,,,1091.6001622999993,None,1090.4169294999992,1091.6166947000002,s,1,0.5925666999992245,鲁莽,l,1,0.6297592999999324,wwt,f,23,2024_Apr_11_1125,mian,2021.2.3,59.768290292117356,
,,,,,,0,0,pic/flanker6.png,pic/flanker2.png,a,l,pic/AffRest2.png,,,,,,,,,,,,,,,,,,,,,,,,,0,1,1,1,0,69,69,57,,,,1094.8505475000002,None,1093.6672330000001,1094.8673395999995,a,1,0.2952261999998882,孤单,l,1,0.6088098000000173,wwt,f,23,2024_Apr_11_1125,mian,2021.2.3,59.768290292117356,
,,,,,,0,0,pic/flanker6.png,pic/flanker2.png,a,l,pic/AffRest2.png,,,,,,,,,,,,,,,,,,,,,,,,,0,1,1,1,0,70,70,17,,,,1097.5835958999996,None,1096.4001604999994,1097.6003001999998,a,1,0.5381563999999344,懒惰,l,1,0.6232901999992464,wwt,f,23,2024_Apr_11_1125,mian,2021.2.3,59.768290292117356,
,,,,,,0,0,pic/flanker6.png,pic/flanker2.png,a,l,pic/AffRest2.png,,,,,,,,,,,,,,,,,,,,,,,,,0,1,1,1,0,71,71,65,,,,1100.6839359999994,None,1099.5004914,1100.7006318999993,a,1,0.32025380000050063,烦恼,l,1,0.423112400001628,wwt,f,23,2024_Apr_11_1125,mian,2021.2.3,59.768290292117356,
,,,,,,1,0,pic/flanker6.png,pic/flanker4.png,s,l,pic/AffRest2.png,,,,,,,,,,,,,,,,,,,,,,,,,0,1,1,1,0,72,72,13,,,,1103.4169992000006,None,1102.2339790999995,1103.4339980999994,s,1,0.490716499998598,穷苦,l,1,0.5931846000003134,wwt,f,23,2024_Apr_11_1125,mian,2021.2.3,59.768290292117356,
,,,,,,0,0,pic/flanker6.png,pic/flanker2.png,a,l,pic/AffRest2.png,,,,,,,,,,,,,,,,,,,,,,,,,0,1,1,1,0,73,73,1,,,,1106.4839267999996,None,1105.3004063999997,1106.5005698000004,a,1,0.37042900000051304,伤心,l,1,0.6096847000007983,wwt,f,23,2024_Apr_11_1125,mian,2021.2.3,59.768290292117356,
,,,,,,1,0,pic/flanker6.png,pic/flanker4.png,s,l,pic/AffRest2.png,,,,,,,,,,,,,,,,,,,,,,,,,0,1,1,1,0,74,74,77,,,,1109.4506932999993,None,1108.2669838000002,1109.4673051999998,s,1,0.6742457000000286,轻率,l,1,0.6103681000004144,wwt,f,23,2024_Apr_11_1125,mian,2021.2.3,59.768290292117356,
,,,,,,0,0,pic/flanker5.png,pic/flanker1.png,s,l,pic/AffRest2.png,,,,,,,,,,,,,,,,,,,,,,,,,0,1,1,1,0,75,75,3,,,,1112.7009414999993,None,1111.5171914999992,1112.7175054,s,1,0.5052888000009261,丢失,l,1,0.49417880000146397,wwt,f,23,2024_Apr_11_1125,mian,2021.2.3,59.768290292117356,
,,,,,,0,1,pic/flanker5.png,pic/flanker1.png,s,k,pic/AffRest2.png,,,,,,,,,,,,,,,,,,,,,,,,,0,1,1,1,0,76,76,40,,,,1115.6339231999991,None,1114.4503636999998,1115.6505371999992,s,1,0.33391520000077435,鲜艳,k,1,0.6641105999988213,wwt,f,23,2024_Apr_11_1125,mian,2021.2.3,59.768290292117356,
,,,,,,0,1,pic/flanker6.png,pic/flanker2.png,a,k,pic/AffRest2.png,,,,,,,,,,,,,,,,,,,,,,,,,0,1,1,1,0,77,77,26,,,,1118.6506162999995,None,1117.4672303999996,1118.6671561000003,a,1,0.39082589999998163,瑰丽,k,1,0.8419185000002471,wwt,f,23,2024_Apr_11_1125,mian,2021.2.3,59.768290292117356,
,,,,,,1,0,pic/flanker6.png,pic/flanker4.png,s,l,pic/AffRest2.png,,,,,,,,,,,,,,,,,,,,,,,,,0,1,1,1,0,78,78,61,,,,1121.767314499999,None,1120.5840633000007,1121.7839516999993,s,1,0.47467580000011367,失意,l,1,0.4924026999997295,wwt,f,23,2024_Apr_11_1125,mian,2021.2.3,59.768290292117356,
,,,,,,1,1,pic/flanker5.png,pic/flanker3.png,a,k,pic/AffRest2.png,,,,,,,,,,,,,,,,,,,,,,,,,0,1,1,1,0,79,79,20,,,,1124.7672581000006,None,1123.5838881,1124.7838436000002,a,1,0.5889613999988796,吉祥,k,1,0.5467210999995586,wwt,f,23,2024_Apr_11_1125,mian,2021.2.3,59.768290292117356,
,,,,,,,,,,,,pic/AffRest2.png,,,,,,,,,,,,,,,,,,,,,,,,,0,1,1,1,,,,,,,,,,,,,,,,,,,wwt,f,23,2024_Apr_11_1125,mian,2021.2.3,59.768290292117356,
,,,,,,1,1,pic/flanker5.png,pic/flanker3.png,a,k,pic/AffRest3.png,,,,,,,,,,,,,,,,,,,,,,,,,0,2,2,2,0,0,0,68,,,,1140.6187281999992,None,1139.4224859000005,1140.6353020000006,a,1,0.5823733000015636,珍藏,k,1,0.5058748000010382,wwt,f,23,2024_Apr_11_1125,mian,2021.2.3,59.768290292117356,
,,,,,,0,1,pic/flanker6.png,pic/flanker2.png,a,k,pic/AffRest3.png,,,,,,,,,,,,,,,,,,,,,,,,,0,2,2,2,0,1,1,66,,,,1143.7841164000001,None,1142.6007284999996,1143.8009834999993,a,1,0.32549920000019483,典雅,k,1,0.46488139999928535,wwt,f,23,2024_Apr_11_1125,mian,2021.2.3,59.768290292117356,
,,,,,,1,1,pic/flanker5.png,pic/flanker3.png,a,k,pic/AffRest3.png,,,,,,,,,,,,,,,,,,,,,,,,,0,2,2,2,0,2,2,52,,,,1146.4173348999993,None,1145.2338605999994,1146.4339373000003,a,1,0.5626365999996779,畅销,k,1,0.4662633999996615,wwt,f,23,2024_Apr_11_1125,mian,2021.2.3,59.768290292117356,
,,,,,,1,0,pic/flanker5.png,pic/flanker3.png,a,l,pic/AffRest3.png,,,,,,,,,,,,,,,,,,,,,,,,,0,2,2,2,0,3,3,47,,,,1149.3174022999992,None,1148.1339224000003,1149.3336961000005,a,1,0.6283211000009032,胡涂,l,1,0.5077851999994891,wwt,f,23,2024_Apr_11_1125,mian,2021.2.3,59.768290292117356,
,,,,,,1,0,pic/flanker6.png,pic/flanker4.png,s,l,pic/AffRest3.png,,,,,,,,,,,,,,,,,,,,,,,,,0,2,2,2,0,4,4,69,,,,1152.3838252999994,None,1151.200555899999,1152.4004734999999,s,1,0.5362831000002188,黑暗,l,1,0.6029866999997466,wwt,f,23,2024_Apr_11_1125,mian,2021.2.3,59.768290292117356,
,,,,,,1,1,pic/flanker5.png,pic/flanker3.png,a,k,pic/AffRest3.png,,,,,,,,,,,,,,,,,,,,,,,,,0,2,2,2,0,5,5,60,,,,1155.5676328999998,None,1154.3850643999995,1155.5842692999995,a,1,0.49013100000047416,爽朗,k,1,0.9641277999999147,wwt,f,23,2024_Apr_11_1125,mian,2021.2.3,59.768290292117356,
,,,,,,0,1,pic/flanker5.png,pic/flanker1.png,s,k,pic/AffRest3.png,,,,,,,,,,,,,,,,,,,,,,,,,0,2,2,2,0,6,6,24,,,,1158.9672515000002,None,1157.7838298000006,1158.9836945000006,s,1,0.36280230000011215,吉祥,k,1,0.4921162999999069,wwt,f,23,2024_Apr_11_1125,mian,2021.2.3,59.768290292117356,
,,,,,,0,1,pic/flanker5.png,pic/flanker1.png,s,k,pic/AffRest3.png,,,,,,,,,,,,,,,,,,,,,,,,,0,2,2,2,0,7,7,0,,,,1161.7015821000005,None,1160.5192057000004,1161.7185482000004,s,1,0.4439829999992071,永恒,k,1,0.5041682999999466,wwt,f,23,2024_Apr_11_1125,mian,2021.2.3,59.768290292117356,
,,,,,,0,1,pic/flanker5.png,pic/flanker1.png,s,k,pic/AffRest3.png,,,,,,,,,,,,,,,,,,,,,,,,,0,2,2,2,0,8,8,56,,,,1164.6174291999996,None,1163.433809799999,1164.6339759999992,s,1,0.3733781999999337,正直,k,1,0.44920279999860213,wwt,f,23,2024_Apr_11_1125,mian,2021.2.3,59.768290292117356,
,,,,,,0,0,pic/flanker5.png,pic/flanker1.png,s,l,pic/AffRest3.png,,,,,,,,,,,,,,,,,,,,,,,,,0,2,2,2,0,9,9,59,,,,1167.300554899999,None,1166.1172043000006,1167.3173286,s,1,0.3932462000011583,失意,l,1,0.5154211000008218,wwt,f,23,2024_Apr_11_1125,mian,2021.2.3,59.768290292117356,
,,,,,,1,1,pic/flanker6.png,pic/flanker4.png,s,k,pic/AffRest3.png,,,,,,,,,,,,,,,,,,,,,,,,,0,2,2,2,0,10,10,70,,,,1170.2339869999996,None,1169.0506265999993,1170.2505399000001,s,1,0.43425759999990987,优雅,k,1,0.8943741000002774,wwt,f,23,2024_Apr_11_1125,mian,2021.2.3,59.768290292117356,
,,,,,,0,1,pic/flanker5.png,pic/flanker1.png,s,k,pic/AffRest3.png,,,,,,,,,,,,,,,,,,,,,,,,,0,2,2,2,0,11,11,72,,,,1173.4514505000006,None,1172.2677397999996,1173.4679450999993,s,1,0.3866939999988972,诚恳,k,1,0.5418478999999934,wwt,f,23,2024_Apr_11_1125,mian,2021.2.3,59.768290292117356,
,,,,,,0,1,pic/flanker6.png,pic/flanker2.png,a,k,pic/AffRest3.png,,,,,,,,,,,,,,,,,,,,,,,,,0,2,2,2,0,12,12,2,,,,1176.2345244999997,None,1175.0509758999997,1176.2512554999994,a,1,0.35888750000049185,富足,k,1,0.6215645000011136,wwt,f,23,2024_Apr_11_1125,mian,2021.2.3,59.768290292117356,
,,,,,,1,1,pic/flanker6.png,pic/flanker4.png,s,k,pic/AffRest3.png,,,,,,,,,,,,,,,,,,,,,,,,,0,2,2,2,0,13,13,22,,,,1179.2843011999994,None,1178.1003949000005,1179.3009562000007,s,1,0.8729544999987411,旺盛,k,1,0.49864139999954205,wwt,f,23,2024_Apr_11_1125,mian,2021.2.3,59.768290292117356,
,,,,,,0,1,pic/flanker5.png,pic/flanker1.png,s,k,pic/AffRest3.png,,,,,,,,,,,,,,,,,,,,,,,,,0,2,2,2,0,14,14,32,,,,1182.583933599999,None,1181.400739499999,1182.6005884000006,s,1,0.4167559999987134,享受,k,1,0.48917449999862583,wwt,f,23,2024_Apr_11_1125,mian,2021.2.3,59.768290292117356,
,,,,,,0,0,pic/flanker6.png,pic/flanker2.png,a,l,pic/AffRest3.png,,,,,,,,,,,,,,,,,,,,,,,,,0,2,2,2,0,15,15,17,,,,1185.3520387999997,None,1184.1699066,1185.3852437000005,a,1,0.471230099999957,烦恼,l,1,0.7399215000004915,wwt,f,23,2024_Apr_11_1125,mian,2021.2.3,59.768290292117356,
,,,,,,0,0,pic/flanker5.png,pic/flanker1.png,s,l,pic/AffRest3.png,,,,,,,,,,,,,,,,,,,,,,,,,0,2,2,2,0,16,16,35,,,,1188.4679811000005,None,1187.2871094999991,1188.5015538000007,s,1,0.3091983000012988,缺乏,l,1,0.5320463999996718,wwt,f,23,2024_Apr_11_1125,mian,2021.2.3,59.768290292117356,
,,,,,,0,0,pic/flanker5.png,pic/flanker1.png,s,l,pic/AffRest3.png,,,,,,,,,,,,,,,,,,,,,,,,,0,2,2,2,0,17,17,51,,,,1191.2673329999998,None,1190.0837689,1191.2839502999996,s,1,0.31543819999933476,落后,l,1,0.5421312999988004,wwt,f,23,2024_Apr_11_1125,mian,2021.2.3,59.768290292117356,
,,,,,,1,0,pic/flanker6.png,pic/flanker4.png,s,l,pic/AffRest3.png,,,,,,,,,,,,,,,,,,,,,,,,,0,2,2,2,0,18,18,5,,,,1193.9672821999993,None,1192.7843238000005,1193.9840182999997,s,1,0.4878527999990183,闷热,k,0,0.9277560999998968,wwt,f,23,2024_Apr_11_1125,mian,2021.2.3,59.768290292117356,
,,,,,,1,1,pic/flanker6.png,pic/flanker4.png,s,k,pic/AffRest3.png,,,,,,,,,,,,,,,,,,,,,,,,,0,2,2,2,0,19,19,38,,,,1197.3672327000004,None,1196.1840028999995,1197.383875899999,s,1,0.484741700000086,圣洁,k,1,0.5826858000000357,wwt,f,23,2024_Apr_11_1125,mian,2021.2.3,59.768290292117356,
,,,,,,0,0,pic/flanker6.png,pic/flanker2.png,a,l,pic/AffRest3.png,,,,,,,,,,,,,,,,,,,,,,,,,0,2,2,2,0,20,20,9,,,,1200.4172703999993,None,1199.2337683000005,1200.4339077000004,a,1,0.41129910000017844,禁止,l,1,0.5069774000003235,wwt,f,23,2024_Apr_11_1125,mian,2021.2.3,59.768290292117356,
,,,,,,0,1,pic/flanker6.png,pic/flanker2.png,a,k,pic/AffRest3.png,,,,,,,,,,,,,,,,,,,,,,,,,0,2,2,2,0,21,21,74,,,,1203.350700699999,None,1202.1675221000005,1203.3676350000005,a,1,0.35623579999992216,羡慕,k,1,0.5117638000010629,wwt,f,23,2024_Apr_11_1125,mian,2021.2.3,59.768290292117356,
,,,,,,1,1,pic/flanker5.png,pic/flanker3.png,a,k,pic/AffRest3.png,,,,,,,,,,,,,,,,,,,,,,,,,0,2,2,2,0,22,22,28,,,,1206.2173182999995,None,1205.0337670999997,1206.2335031000002,a,1,0.6394440999993094,留恋,k,1,0.4346153999995295,wwt,f,23,2024_Apr_11_1125,mian,2021.2.3,59.768290292117356,
,,,,,,1,0,pic/flanker5.png,pic/flanker3.png,a,l,pic/AffRest3.png,,,,,,,,,,,,,,,,,,,,,,,,,0,2,2,2,0,23,23,71,,,,1209.2176500999994,None,1208.0341716000003,1209.2343261999995,a,1,0.47670300000027055,轻率,l,1,0.5539614000008442,wwt,f,23,2024_Apr_11_1125,mian,2021.2.3,59.768290292117356,
,,,,,,0,1,pic/flanker6.png,pic/flanker2.png,a,k,pic/AffRest3.png,,,,,,,,,,,,,,,,,,,,,,,,,0,2,2,2,0,24,24,34,,,,1212.1507806999998,None,1210.9674438000002,1212.167212799999,a,1,0.332970600000408,前进,k,1,0.48131199999988894,wwt,f,23,2024_Apr_11_1125,mian,2021.2.3,59.768290292117356,
,,,,,,0,0,pic/flanker5.png,pic/flanker1.png,s,l,pic/AffRest3.png,,,,,,,,,,,,,,,,,,,,,,,,,0,2,2,2,0,25,25,11,,,,1214.9506822000003,None,1213.7673873000003,1214.9673256000005,s,1,0.4790224999997008,沮丧,l,1,0.6934930999996141,wwt,f,23,2024_Apr_11_1125,mian,2021.2.3,59.768290292117356,
,,,,,,0,0,pic/flanker6.png,pic/flanker2.png,a,l,pic/AffRest3.png,,,,,,,,,,,,,,,,,,,,,,,,,0,2,2,2,0,26,26,57,,,,1218.150646,None,1216.967189699999,1218.1673654000006,a,1,0.36959749999914493,杂乱,l,1,0.7573140999993484,wwt,f,23,2024_Apr_11_1125,mian,2021.2.3,59.768290292117356,
,,,,,,1,1,pic/flanker6.png,pic/flanker4.png,s,k,pic/AffRest3.png,,,,,,,,,,,,,,,,,,,,,,,,,0,2,2,2,0,27,27,62,,,,1221.117102099999,None,1219.9337089,1221.1339533999999,a,0,0.2568043999999645,清秀,k,1,0.7087979000007181,wwt,f,23,2024_Apr_11_1125,mian,2021.2.3,59.768290292117356,
,,,,,,1,0,pic/flanker5.png,pic/flanker3.png,a,l,pic/AffRest3.png,,,,,,,,,,,,,,,,,,,,,,,,,0,2,2,2,0,28,28,7,,,,1224.0678267000003,None,1222.8846142999992,1224.0846149999998,a,1,0.5602106999995158,假冒,l,1,0.6058352000000014,wwt,f,23,2024_Apr_11_1125,mian,2021.2.3,59.768290292117356,
,,,,,,0,0,pic/flanker6.png,pic/flanker2.png,a,l,pic/AffRest3.png,,,,,,,,,,,,,,,,,,,,,,,,,0,2,2,2,0,29,29,1,,,,1227.2339809000005,None,1226.0508537999995,1227.2501754000004,a,1,0.3360255999996298,处罚,l,1,0.6646754000012152,wwt,f,23,2024_Apr_11_1125,mian,2021.2.3,59.768290292117356,
,,,,,,1,1,pic/flanker5.png,pic/flanker3.png,a,k,pic/AffRest3.png,,,,,,,,,,,,,,,,,,,,,,,,,0,2,2,2,0,30,30,4,,,,1230.2175315000004,None,1229.0361326999991,1230.2509455,a,1,0.5722222999993392,赞成,k,1,0.6790271999998367,wwt,f,23,2024_Apr_11_1125,mian,2021.2.3,59.768290292117356,
,,,,,,1,0,pic/flanker5.png,pic/flanker3.png,a,l,pic/AffRest3.png,,,,,,,,,,,,,,,,,,,,,,,,,0,2,2,2,0,31,31,79,,,,1233.3006103999996,None,1232.1174893000007,1233.3172018000005,a,1,0.6459918999989895,懒惰,l,1,0.8192181000013079,wwt,f,23,2024_Apr_11_1125,mian,2021.2.3,59.768290292117356,
,,,,,,0,0,pic/flanker5.png,pic/flanker1.png,s,l,pic/AffRest3.png,,,,,,,,,,,,,,,,,,,,,,,,,0,2,2,2,0,32,32,19,,,,1236.734264499999,None,1235.5500346999997,1236.7515320000002,s,1,0.6214850999986083,别扭,l,1,0.5167106999997486,wwt,f,23,2024_Apr_11_1125,mian,2021.2.3,59.768290292117356,
,,,,,,1,1,pic/flanker5.png,pic/flanker3.png,a,k,pic/AffRest3.png,,,,,,,,,,,,,,,,,,,,,,,,,0,2,2,2,0,33,33,44,,,,1239.8672239999996,None,1238.6838623999993,1239.883938699999,a,1,0.4612486000005447,生动,k,1,0.7802786999982345,wwt,f,23,2024_Apr_11_1125,mian,2021.2.3,59.768290292117356,
,,,,,,0,0,pic/flanker6.png,pic/flanker2.png,a,l,pic/AffRest3.png,,,,,,,,,,,,,,,,,,,,,,,,,0,2,2,2,0,34,34,65,,,,1243.1336393000001,None,1241.9505260000005,1243.1502055,a,1,0.24444930000026943,穷苦,l,1,0.7262537999995402,wwt,f,23,2024_Apr_11_1125,mian,2021.2.3,59.768290292117356,
,,,,,,1,1,pic/flanker6.png,pic/flanker4.png,s,k,pic/AffRest3.png,,,,,,,,,,,,,,,,,,,,,,,,,0,2,2,2,0,35,35,30,,,,1245.9841935999993,None,1244.8031276000002,1246.017475499999,s,1,0.7557246999986091,廉洁,k,1,0.7934017000006861,wwt,f,23,2024_Apr_11_1125,mian,2021.2.3,59.768290292117356,
,,,,,,1,0,pic/flanker5.png,pic/flanker3.png,a,l,pic/AffRest3.png,,,,,,,,,,,,,,,,,,,,,,,,,0,2,2,2,0,36,36,31,,,,1249.4339612000003,None,1248.250402399999,1249.4506454000002,a,1,0.5618319000004703,焦躁,l,1,0.6293924000001425,wwt,f,23,2024_Apr_11_1125,mian,2021.2.3,59.768290292117356,
,,,,,,1,0,pic/flanker5.png,pic/flanker3.png,a,l,pic/AffRest3.png,,,,,,,,,,,,,,,,,,,,,,,,,0,2,2,2,0,37,37,39,,,,1252.5501595000005,None,1251.3673051000005,1252.5673785,a,1,0.5077402999995684,鲁莽,l,1,0.58366610000121,wwt,f,23,2024_Apr_11_1125,mian,2021.2.3,59.768290292117356,
,,,,,,1,0,pic/flanker6.png,pic/flanker4.png,s,l,pic/AffRest3.png,,,,,,,,,,,,,,,,,,,,,,,,,0,2,2,2,0,38,38,53,,,,1255.4673237000006,None,1254.2841062999996,1255.4840568,s,1,0.7244338000000425,浪费,l,1,0.5955983000003471,wwt,f,23,2024_Apr_11_1125,mian,2021.2.3,59.768290292117356,
,,,,,,1,1,pic/flanker5.png,pic/flanker3.png,a,k,pic/AffRest3.png,,,,,,,,,,,,,,,,,,,,,,,,,0,2,2,2,0,39,39,36,,,,1258.6673393,None,1257.4840100000001,1258.6840943999996,a,1,0.49524659999951837,有利,k,1,0.5998209999997925,wwt,f,23,2024_Apr_11_1125,mian,2021.2.3,59.768290292117356,
,,,,,,1,1,pic/flanker6.png,pic/flanker4.png,s,k,pic/AffRest3.png,,,,,,,,,,,,,,,,,,,,,,,,,0,2,2,2,0,40,40,14,,,,1261.6340595000001,None,1260.4507049999993,1261.6507397999994,s,1,0.541999000000942,公平,k,1,0.6386992999996437,wwt,f,23,2024_Apr_11_1125,mian,2021.2.3,59.768290292117356,
,,,,,,1,1,pic/flanker5.png,pic/flanker3.png,a,k,pic/AffRest3.png,,,,,,,,,,,,,,,,,,,,,,,,,0,2,2,2,0,41,41,76,,,,1264.7507038000003,None,1263.5672780000004,1264.7673197999993,a,1,0.5441141999999672,敬佩,k,1,0.535625099999379,wwt,f,23,2024_Apr_11_1125,mian,2021.2.3,59.768290292117356,
,,,,,,1,1,pic/flanker6.png,pic/flanker4.png,s,k,pic/AffRest3.png,,,,,,,,,,,,,,,,,,,,,,,,,0,2,2,2,0,42,42,78,,,,1267.8169357000006,None,1266.6340741000004,1267.834284999999,s,1,0.5564211999990221,雄厚,k,1,0.5002351999992243,wwt,f,23,2024_Apr_11_1125,mian,2021.2.3,59.768290292117356,
,,,,,,1,0,pic/flanker6.png,pic/flanker4.png,s,l,pic/AffRest3.png,,,,,,,,,,,,,,,,,,,,,,,,,0,2,2,2,0,43,43,13,,,,1270.8507172999998,None,1269.6674270999993,1270.8674026999997,s,1,0.5530625999999756,排斥,l,1,0.5060979000008956,wwt,f,23,2024_Apr_11_1125,mian,2021.2.3,59.768290292117356,
,,,,,,1,0,pic/flanker5.png,pic/flanker3.png,a,l,pic/AffRest3.png,,,,,,,,,,,,,,,,,,,,,,,,,0,2,2,2,0,44,44,23,,,,1273.7507979000002,None,1272.5671450999998,1273.7675483999992,a,1,0.6270848999993177,堵塞,l,1,0.6143967999996676,wwt,f,23,2024_Apr_11_1125,mian,2021.2.3,59.768290292117356,
,,,,,,0,1,pic/flanker5.png,pic/flanker1.png,s,k,pic/AffRest3.png,,,,,,,,,,,,,,,,,,,,,,,,,0,2,2,2,0,45,45,16,,,,1276.8671388000002,None,1275.6840164000005,1276.883810199999,s,1,0.47661519999928714,如愿,k,1,0.5910365999989153,wwt,f,23,2024_Apr_11_1125,mian,2021.2.3,59.768290292117356,
,,,,,,0,1,pic/flanker5.png,pic/flanker1.png,s,k,pic/AffRest3.png,,,,,,,,,,,,,,,,,,,,,,,,,0,2,2,2,0,46,46,48,,,,1279.7674048999997,None,1278.5842493,1279.7839858999996,s,1,0.39882870000110415,富丽,k,1,0.45624510000016016,wwt,f,23,2024_Apr_11_1125,mian,2021.2.3,59.768290292117356,
,,,,,,0,0,pic/flanker5.png,pic/flanker1.png,s,l,pic/AffRest3.png,,,,,,,,,,,,,,,,,,,,,,,,,0,2,2,2,0,47,47,43,,,,1282.6524482000004,None,1281.4680577,1282.6690065999992,s,1,0.37218180000127177,撒谎,l,1,0.5130369000016799,wwt,f,23,2024_Apr_11_1125,mian,2021.2.3,59.768290292117356,
,,,,,,0,1,pic/flanker6.png,pic/flanker2.png,a,k,pic/AffRest3.png,,,,,,,,,,,,,,,,,,,,,,,,,0,2,2,2,0,48,48,42,,,,1285.5001857999996,None,1284.317102699999,1285.5173219999997,a,1,0.3504164000005403,豪放,k,1,0.5104231000004802,wwt,f,23,2024_Apr_11_1125,mian,2021.2.3,59.768290292117356,
,,,,,,0,0,pic/flanker5.png,pic/flanker1.png,s,l,pic/AffRest3.png,,,,,,,,,,,,,,,,,,,,,,,,,0,2,2,2,0,49,49,3,,,,1288.3339059999998,None,1287.150545999999,1288.3504912999997,s,1,0.6356638999986899,心慌,l,1,0.7227762999991683,wwt,f,23,2024_Apr_11_1125,mian,2021.2.3,59.768290292117356,
,,,,,,0,0,pic/flanker5.png,pic/flanker1.png,s,l,pic/AffRest3.png,,,,,,,,,,,,,,,,,,,,,,,,,0,2,2,2,0,50,50,67,,,,1291.6507624000005,None,1290.4679366,1291.6674836000002,s,1,0.377035599998635,嘲笑,l,1,0.6061553999988973,wwt,f,23,2024_Apr_11_1125,mian,2021.2.3,59.768290292117356,
,,,,,,0,0,pic/flanker6.png,pic/flanker2.png,a,l,pic/AffRest3.png,,,,,,,,,,,,,,,,,,,,,,,,,0,2,2,2,0,51,51,73,,,,1294.6172406999995,None,1293.4340825,1294.6339207,a,1,0.3471575000003213,怀疑,l,1,0.4088363999999274,wwt,f,23,2024_Apr_11_1125,mian,2021.2.3,59.768290292117356,
,,,,,,1,0,pic/flanker5.png,pic/flanker3.png,a,l,pic/AffRest3.png,,,,,,,,,,,,,,,,,,,,,,,,,0,2,2,2,0,52,52,55,,,,1297.2507501,None,1296.0672345999992,1297.267457,a,1,0.4579519999988406,忧虑,l,1,0.5774652999989485,wwt,f,23,2024_Apr_11_1125,mian,2021.2.3,59.768290292117356,
,,,,,,1,0,pic/flanker6.png,pic/flanker4.png,s,l,pic/AffRest3.png,,,,,,,,,,,,,,,,,,,,,,,,,0,2,2,2,0,53,53,61,,,,1300.2171392,None,1299.0339791999995,1300.234307499999,s,1,0.6766155999994226,慌忙,l,1,0.4510446000003867,wwt,f,23,2024_Apr_11_1125,mian,2021.2.3,59.768290292117356,
,,,,,,0,0,pic/flanker6.png,pic/flanker2.png,a,l,pic/AffRest3.png,,,,,,,,,,,,,,,,,,,,,,,,,0,2,2,2,0,54,54,49,,,,1303.1840916,None,1302.0006589000004,1303.2007622,a,1,0.32666020000033313,消沉,l,1,0.4599859000009019,wwt,f,23,2024_Apr_11_1125,mian,2021.2.3,59.768290292117356,
,,,,,,1,1,pic/flanker6.png,pic/flanker4.png,s,k,pic/AffRest3.png,,,,,,,,,,,,,,,,,,,,,,,,,0,2,2,2,0,55,55,54,,,,1305.9506115999993,None,1304.7673498999993,1305.9673643000006,s,1,0.6249516999996558,充裕,k,1,0.8515174999993178,wwt,f,23,2024_Apr_11_1125,mian,2021.2.3,59.768290292117356,
,,,,,,1,0,pic/flanker6.png,pic/flanker4.png,s,l,pic/AffRest3.png,,,,,,,,,,,,,,,,,,,,,,,,,0,2,2,2,0,56,56,45,,,,1309.3007195999999,None,1308.1173352999995,1309.3173657000007,s,1,0.4201169000007212,冷笑,l,1,0.47243299999900046,wwt,f,23,2024_Apr_11_1125,mian,2021.2.3,59.768290292117356,
,,,,,,0,1,pic/flanker6.png,pic/flanker2.png,a,k,pic/AffRest3.png,,,,,,,,,,,,,,,,,,,,,,,,,0,2,2,2,0,57,57,10,,,,1312.1340997999996,None,1310.9506996,1312.1507253,a,1,0.335183600000164,精致,k,1,0.6084158999983629,wwt,f,23,2024_Apr_11_1125,mian,2021.2.3,59.768290292117356,
,,,,,,0,0,pic/flanker6.png,pic/flanker2.png,a,l,pic/AffRest3.png,,,,,,,,,,,,,,,,,,,,,,,,,0,2,2,2,0,58,58,41,,,,1314.9191052000006,None,1313.7340332000003,1314.9354764,a,1,0.3929590999996435,丢失,l,1,2.0105163999996876,wwt,f,23,2024_Apr_11_1125,mian,2021.2.3,59.768290292117356,
,,,,,,1,0,pic/flanker6.png,pic/flanker4.png,s,l,pic/AffRest3.png,,,,,,,,,,,,,,,,,,,,,,,,,0,2,2,2,0,59,59,37,,,,1319.3842941999992,None,1318.2009689999995,1319.4011011000002,s,1,0.5674056999996537,争吵,l,1,0.438134899999568,wwt,f,23,2024_Apr_11_1125,mian,2021.2.3,59.768290292117356,
,,,,,,0,0,pic/flanker5.png,pic/flanker1.png,s,l,pic/AffRest3.png,,,,,,,,,,,,,,,,,,,,,,,,,0,2,2,2,0,60,60,75,,,,1322.2506111000002,None,1321.0673583999996,1322.267343899999,s,1,0.4159024999989924,郁闷,l,1,0.4515195000003587,wwt,f,23,2024_Apr_11_1125,mian,2021.2.3,59.768290292117356,
,,,,,,1,1,pic/flanker5.png,pic/flanker3.png,a,k,pic/AffRest3.png,,,,,,,,,,,,,,,,,,,,,,,,,0,2,2,2,0,61,61,12,,,,1325.0854032000007,None,1323.9007939000003,1325.1021051000007,a,1,0.630372499999794,振作,k,1,0.6756273000009969,wwt,f,23,2024_Apr_11_1125,mian,2021.2.3,59.768290292117356,
,,,,,,0,0,pic/flanker5.png,pic/flanker1.png,s,l,pic/AffRest3.png,,,,,,,,,,,,,,,,,,,,,,,,,0,2,2,2,0,62,62,27,,,,1328.3346968000005,None,1327.1509824999994,1328.3512389999996,s,1,0.4826469999989058,伤心,l,1,0.9176282000007632,wwt,f,23,2024_Apr_11_1125,mian,2021.2.3,59.768290292117356,
,,,,,,1,0,pic/flanker5.png,pic/flanker3.png,a,l,pic/AffRest3.png,,,,,,,,,,,,,,,,,,,,,,,,,0,2,2,2,0,63,63,15,,,,1331.7007295999992,None,1330.5171721000006,1331.7173631999995,a,1,0.7532727999987401,孤单,l,1,0.9438614999999118,wwt,f,23,2024_Apr_11_1125,mian,2021.2.3,59.768290292117356,
,,,,,,0,1,pic/flanker6.png,pic/flanker2.png,a,k,pic/AffRest3.png,,,,,,,,,,,,,,,,,,,,,,,,,0,2,2,2,0,64,64,50,,,,1335.3339737000006,None,1334.1506258999998,1335.3506890999997,a,1,0.4032219000000623,丰满,k,1,0.6373408999988897,wwt,f,23,2024_Apr_11_1125,mian,2021.2.3,59.768290292117356,
,,,,,,0,1,pic/flanker5.png,pic/flanker1.png,s,k,pic/AffRest3.png,,,,,,,,,,,,,,,,,,,,,,,,,0,2,2,2,0,65,65,8,,,,1338.3168922000004,None,1337.1333381999993,1338.3335256999999,s,1,0.3296905000006518,卓越,k,1,0.5931775000008201,wwt,f,23,2024_Apr_11_1125,mian,2021.2.3,59.768290292117356,
,,,,,,1,1,pic/flanker6.png,pic/flanker4.png,s,k,pic/AffRest3.png,,,,,,,,,,,,,,,,,,,,,,,,,0,2,2,2,0,66,66,46,,,,1341.2680252999999,None,1340.0871215000006,1341.3013933000002,s,1,0.7185129999998026,瑰丽,k,1,0.6110595000009198,wwt,f,23,2024_Apr_11_1125,mian,2021.2.3,59.768290292117356,
,,,,,,1,0,pic/flanker5.png,pic/flanker3.png,a,l,pic/AffRest3.png,,,,,,,,,,,,,,,,,,,,,,,,,0,2,2,2,0,67,67,63,,,,1344.4670356000006,None,1343.2838754000004,1344.4840557999996,a,1,0.8396337000012863,逃避,l,1,0.7143657999986317,wwt,f,23,2024_Apr_11_1125,mian,2021.2.3,59.768290292117356,
,,,,,,1,1,pic/flanker5.png,pic/flanker3.png,a,k,pic/AffRest3.png,,,,,,,,,,,,,,,,,,,,,,,,,0,2,2,2,0,68,68,20,,,,1347.9674952000005,None,1346.783899,1347.9841032000004,a,1,0.5415561999998317,俊秀,k,1,0.5966871000000538,wwt,f,23,2024_Apr_11_1125,mian,2021.2.3,59.768290292117356,
,,,,,,0,1,pic/flanker6.png,pic/flanker2.png,a,k,pic/AffRest3.png,,,,,,,,,,,,,,,,,,,,,,,,,0,2,2,2,0,69,69,26,,,,1350.984074,None,1349.8014445999997,1351.0007805999994,a,1,0.3090730000003532,秀丽,k,1,0.5586925999996311,wwt,f,23,2024_Apr_11_1125,mian,2021.2.3,59.768290292117356,
,,,,,,1,0,pic/flanker6.png,pic/flanker4.png,s,l,pic/AffRest3.png,,,,,,,,,,,,,,,,,,,,,,,,,0,2,2,2,0,70,70,77,,,,1353.7007328,None,1352.517304699999,1353.717341399999,s,1,0.6418260999998893,悲观,l,1,0.4802605000004405,wwt,f,23,2024_Apr_11_1125,mian,2021.2.3,59.768290292117356,
,,,,,,0,1,pic/flanker6.png,pic/flanker2.png,a,k,pic/AffRest3.png,,,,,,,,,,,,,,,,,,,,,,,,,0,2,2,2,0,71,71,18,,,,1356.8007660000003,None,1355.6172910999994,1356.8173750999995,a,1,0.3314474999988306,鲜艳,k,1,0.5580979999995179,wwt,f,23,2024_Apr_11_1125,mian,2021.2.3,59.768290292117356,
,,,,,,0,1,pic/flanker6.png,pic/flanker2.png,a,k,pic/AffRest3.png,,,,,,,,,,,,,,,,,,,,,,,,,0,2,2,2,0,72,72,58,,,,1359.7170599,None,1358.5339165999994,1359.7336701000004,a,1,0.546471499999825,热切,k,1,0.6807957000000897,wwt,f,23,2024_Apr_11_1125,mian,2021.2.3,59.768290292117356,
,,,,,,1,1,pic/flanker6.png,pic/flanker4.png,s,k,pic/AffRest3.png,,,,,,,,,,,,,,,,,,,,,,,,,0,2,2,2,0,73,73,6,,,,1362.7674848000006,None,1361.5838423999994,1362.7840610999992,s,1,0.5525517999994918,顽强,k,1,0.8638942999987194,wwt,f,23,2024_Apr_11_1125,mian,2021.2.3,59.768290292117356,
,,,,,,0,1,pic/flanker5.png,pic/flanker1.png,s,k,pic/AffRest3.png,,,,,,,,,,,,,,,,,,,,,,,,,0,2,2,2,0,74,74,40,,,,1366.067527199999,None,1364.8840648000005,1366.0841755000001,s,1,0.39481200000045646,舒畅,k,1,0.597556299999269,wwt,f,23,2024_Apr_11_1125,mian,2021.2.3,59.768290292117356,
,,,,,,1,0,pic/flanker6.png,pic/flanker4.png,s,l,pic/AffRest3.png,,,,,,,,,,,,,,,,,,,,,,,,,0,2,2,2,0,75,75,21,,,,1368.9850920999997,None,1367.8030201000001,1369.0184599000004,s,1,0.5085551000011037,损害,l,1,0.47656739999911224,wwt,f,23,2024_Apr_11_1125,mian,2021.2.3,59.768290292117356,
,,,,,,0,1,pic/flanker5.png,pic/flanker1.png,s,k,pic/AffRest3.png,,,,,,,,,,,,,,,,,,,,,,,,,0,2,2,2,0,76,76,64,,,,1371.9174273999997,None,1370.7340944000007,1371.934124899999,s,1,0.3491761999994196,奉献,k,1,0.6025000999998156,wwt,f,23,2024_Apr_11_1125,mian,2021.2.3,59.768290292117356,
,,,,,,1,0,pic/flanker6.png,pic/flanker4.png,s,l,pic/AffRest3.png,,,,,,,,,,,,,,,,,,,,,,,,,0,2,2,2,0,77,77,29,,,,1374.7506995000003,None,1373.567450999999,1374.7674530999993,s,1,0.5390526999999565,罚款,l,1,0.49826299999949697,wwt,f,23,2024_Apr_11_1125,mian,2021.2.3,59.768290292117356,
