target,反应类型,条件,truetarget,CorAns,Position,congruency,AffValue,flankerPic,targetPic,corAnsF,corAnsA,RestPic,returnPractice.thisRepN,returnPractice.thisTrialN,returnPractice.thisN,returnPractice.thisIndex,pracNum.thisRepN,pracNum.thisTrialN,pracNum.thisN,pracNum.thisIndex,NumBlock1.thisRepN,NumBlock1.thisTrialN,NumBlock1.thisN,NumBlock1.thisIndex,NumBlock2.thisRepN,NumBlock2.thisTrialN,NumBlock2.thisN,NumBlock2.thisIndex,returnPrac.thisRepN,returnPrac.thisTrialN,returnPrac.thisN,returnPrac.thisIndex,PracAff.thisRepN,PracAff.thisTrialN,PracAff.thisN,PracAff.thisIndex,AffBlocks.thisRepN,AffBlocks.thisTrialN,AffBlocks.thisN,AffBlocks.thisIndex,AffBlock1.thisRepN,AffBlock1.thisTrialN,AffBlock1.thisN,AffBlock1.thisIndex,respNum2word.keys,respNum2word.corr,respNum2word.rt,text.started,text.stopped,blank.started,blank.stopped,respFlanker.keys,respFlanker.corr,thisWord,respAffWord.keys,respAffWord.corr,respAffWord.rt,respFlanker.rt,姓名,性别,年龄（周岁）,date,expName,psychopyVersion,frameRate,
2A,1,1,A,a,"[0.2, 0.2]",,,,,,,,0,0,0,0,0,0,0,0,,,,,,,,,,,,,,,,,,,,,,,,,None,0,,,,,,,,,,,,,xmy,m,22,2024_Apr_11_1536,mian,2021.2.3,60.026027285428036,
A9,1,2,A,a,"[-0.2, 0.2]",,,,,,,,0,0,0,0,0,1,1,1,,,,,,,,,,,,,,,,,,,,,,,,,a,1,2.377539000000013,,,,,,,,,,,,xmy,m,22,2024_Apr_11_1536,mian,2021.2.3,60.026027285428036,
7e,2,1,7.0,a,"[-0.2, -0.2]",,,,,,,,0,0,0,0,0,2,2,2,,,,,,,,,,,,,,,,,,,,,,,,,a,1,1.6395353999999998,,,,,,,,,,,,xmy,m,22,2024_Apr_11_1536,mian,2021.2.3,60.026027285428036,
9H,2,2,9.0,a,"[0.2, -0.2]",,,,,,,,0,0,0,0,0,3,3,3,,,,,,,,,,,,,,,,,,,,,,,,,a,1,1.1503374000000122,,,,,,,,,,,,xmy,m,22,2024_Apr_11_1536,mian,2021.2.3,60.026027285428036,
h4,1,1,h,l,"[0.2, 0.2]",,,,,,,,0,0,0,0,0,4,4,4,,,,,,,,,,,,,,,,,,,,,,,,,l,1,1.9075414999999794,,,,,,,,,,,,xmy,m,22,2024_Apr_11_1536,mian,2021.2.3,60.026027285428036,
4H,1,2,H,a,"[-0.2, 0.2]",,,,,,,,0,0,0,0,0,5,5,5,,,,,,,,,,,,,,,,,,,,,,,,,a,1,2.135851099999968,,,,,,,,,,,,xmy,m,22,2024_Apr_11_1536,mian,2021.2.3,60.026027285428036,
F8,2,1,8.0,l,"[-0.2, -0.2]",,,,,,,,0,0,0,0,0,6,6,6,,,,,,,,,,,,,,,,,,,,,,,,,None,0,,,,,,,,,,,,,xmy,m,22,2024_Apr_11_1536,mian,2021.2.3,60.026027285428036,
h7,2,2,7.0,a,"[0.2, -0.2]",,,,,,,,0,0,0,0,0,7,7,7,,,,,,,,,,,,,,,,,,,,,,,,,a,1,1.6018452000000138,,,,,,,,,,,,xmy,m,22,2024_Apr_11_1536,mian,2021.2.3,60.026027285428036,
5e,1,1,e,l,"[0.2, 0.2]",,,,,,,,0,0,0,0,0,8,8,8,,,,,,,,,,,,,,,,,,,,,,,,,l,1,1.410859099999982,,,,,,,,,,,,xmy,m,22,2024_Apr_11_1536,mian,2021.2.3,60.026027285428036,
e8,1,2,e,l,"[-0.2, 0.2]",,,,,,,,0,0,0,0,0,9,9,9,,,,,,,,,,,,,,,,,,,,,,,,,l,1,2.226895500000012,,,,,,,,,,,,xmy,m,22,2024_Apr_11_1536,mian,2021.2.3,60.026027285428036,
4E,2,1,4.0,l,"[-0.2, -0.2]",,,,,,,,0,0,0,0,0,10,10,10,,,,,,,,,,,,,,,,,,,,,,,,,a,0,2.2979707000000076,,,,,,,,,,,,xmy,m,22,2024_Apr_11_1536,mian,2021.2.3,60.026027285428036,
5H,2,2,5.0,a,"[0.2, -0.2]",,,,,,,,0,0,0,0,0,11,11,11,,,,,,,,,,,,,,,,,,,,,,,,,a,1,0.7884645999999975,,,,,,,,,,,,xmy,m,22,2024_Apr_11_1536,mian,2021.2.3,60.026027285428036,
9E,1,1,E,a,"[0.2, 0.2]",,,,,,,,0,0,0,0,0,12,12,12,,,,,,,,,,,,,,,,,,,,,,,,,a,1,1.6404959999999846,,,,,,,,,,,,xmy,m,22,2024_Apr_11_1536,mian,2021.2.3,60.026027285428036,
h9,1,2,h,l,"[-0.2, 0.2]",,,,,,,,0,0,0,0,0,13,13,13,,,,,,,,,,,,,,,,,,,,,,,,,l,1,1.9245941000000357,,,,,,,,,,,,xmy,m,22,2024_Apr_11_1536,mian,2021.2.3,60.026027285428036,
2a,2,1,2.0,l,"[-0.2, -0.2]",,,,,,,,0,0,0,0,0,14,14,14,,,,,,,,,,,,,,,,,,,,,,,,,a,0,1.8992248000000131,,,,,,,,,,,,xmy,m,22,2024_Apr_11_1536,mian,2021.2.3,60.026027285428036,
e5,2,2,5.0,a,"[0.2, -0.2]",,,,,,,,0,0,0,0,0,15,15,15,,,,,,,,,,,,,,,,,,,,,,,,,a,1,1.4851357000000007,,,,,,,,,,,,xmy,m,22,2024_Apr_11_1536,mian,2021.2.3,60.026027285428036,
A5,1,1,A,a,"[0.2, 0.2]",,,,,,,,0,0,0,0,0,16,16,16,,,,,,,,,,,,,,,,,,,,,,,,,a,1,1.6376121000000126,,,,,,,,,,,,xmy,m,22,2024_Apr_11_1536,mian,2021.2.3,60.026027285428036,
a6,1,2,a,l,"[-0.2, 0.2]",,,,,,,,0,0,0,0,0,17,17,17,,,,,,,,,,,,,,,,,,,,,,,,,l,1,0.6391502000000173,,,,,,,,,,,,xmy,m,22,2024_Apr_11_1536,mian,2021.2.3,60.026027285428036,
2F,2,1,2.0,l,"[-0.2, -0.2]",,,,,,,,0,0,0,0,0,18,18,18,,,,,,,,,,,,,,,,,,,,,,,,,l,1,1.9310112000000004,,,,,,,,,,,,xmy,m,22,2024_Apr_11_1536,mian,2021.2.3,60.026027285428036,
e4,2,2,4.0,l,"[0.2, -0.2]",,,,,,,,0,0,0,0,0,19,19,19,,,,,,,,,,,,,,,,,,,,,,,,,l,1,0.7814874000000032,,,,,,,,,,,,xmy,m,22,2024_Apr_11_1536,mian,2021.2.3,60.026027285428036,
,,,,,,,,,,,,,0,0,0,0,,,,,,,,,,,,,,,,,,,,,,,,,,,,,,,,,,,,,,,,,,,xmy,m,22,2024_Apr_11_1536,mian,2021.2.3,60.026027285428036,
7h,1,1,h,l,"[0.2, 0.2]",,,,,,,,,,,,,,,,0,0,0,0,,,,,,,,,,,,,,,,,,,,,l,1,1.1706123999999818,,,,,,,,,,,,xmy,m,22,2024_Apr_11_1536,mian,2021.2.3,60.026027285428036,
8F,1,2,F,a,"[-0.2, 0.2]",,,,,,,,,,,,,,,,0,1,1,1,,,,,,,,,,,,,,,,,,,,,a,1,0.9986486000000241,,,,,,,,,,,,xmy,m,22,2024_Apr_11_1536,mian,2021.2.3,60.026027285428036,
8h,2,1,8.0,l,"[-0.2, -0.2]",,,,,,,,,,,,,,,,0,2,2,2,,,,,,,,,,,,,,,,,,,,,l,1,2.019587099999967,,,,,,,,,,,,xmy,m,22,2024_Apr_11_1536,mian,2021.2.3,60.026027285428036,
a2,2,2,2.0,l,"[0.2, -0.2]",,,,,,,,,,,,,,,,0,3,3,3,,,,,,,,,,,,,,,,,,,,,l,1,1.3395717999999874,,,,,,,,,,,,xmy,m,22,2024_Apr_11_1536,mian,2021.2.3,60.026027285428036,
8f,1,1,f,l,"[0.2, 0.2]",,,,,,,,,,,,,,,,0,4,4,4,,,,,,,,,,,,,,,,,,,,,l,1,1.4761804999999981,,,,,,,,,,,,xmy,m,22,2024_Apr_11_1536,mian,2021.2.3,60.026027285428036,
6a,1,2,a,l,"[-0.2, 0.2]",,,,,,,,,,,,,,,,0,5,5,5,,,,,,,,,,,,,,,,,,,,,l,1,0.7760020000000054,,,,,,,,,,,,xmy,m,22,2024_Apr_11_1536,mian,2021.2.3,60.026027285428036,
h6,2,1,6.0,l,"[-0.2, -0.2]",,,,,,,,,,,,,,,,0,6,6,6,,,,,,,,,,,,,,,,,,,,,a,0,1.4516183999999726,,,,,,,,,,,,xmy,m,22,2024_Apr_11_1536,mian,2021.2.3,60.026027285428036,
f9,2,2,9.0,a,"[0.2, -0.2]",,,,,,,,,,,,,,,,0,7,7,7,,,,,,,,,,,,,,,,,,,,,a,1,1.7352888000000348,,,,,,,,,,,,xmy,m,22,2024_Apr_11_1536,mian,2021.2.3,60.026027285428036,
E4,1,1,E,a,"[0.2, 0.2]",,,,,,,,,,,,,,,,0,8,8,8,,,,,,,,,,,,,,,,,,,,,a,1,2.5346443999999906,,,,,,,,,,,,xmy,m,22,2024_Apr_11_1536,mian,2021.2.3,60.026027285428036,
6e,1,2,e,l,"[-0.2, 0.2]",,,,,,,,,,,,,,,,0,9,9,9,,,,,,,,,,,,,,,,,,,,,l,1,0.8897323999999571,,,,,,,,,,,,xmy,m,22,2024_Apr_11_1536,mian,2021.2.3,60.026027285428036,
5G,2,1,5.0,a,"[-0.2, -0.2]",,,,,,,,,,,,,,,,0,10,10,10,,,,,,,,,,,,,,,,,,,,,a,1,1.5905324999999948,,,,,,,,,,,,xmy,m,22,2024_Apr_11_1536,mian,2021.2.3,60.026027285428036,
h3,2,2,3.0,a,"[0.2, -0.2]",,,,,,,,,,,,,,,,0,11,11,11,,,,,,,,,,,,,,,,,,,,,a,1,0.8797116000000074,,,,,,,,,,,,xmy,m,22,2024_Apr_11_1536,mian,2021.2.3,60.026027285428036,
9e,1,1,e,l,"[0.2, 0.2]",,,,,,,,,,,,,,,,0,12,12,12,,,,,,,,,,,,,,,,,,,,,l,1,2.1405189000000178,,,,,,,,,,,,xmy,m,22,2024_Apr_11_1536,mian,2021.2.3,60.026027285428036,
a8,1,2,a,l,"[-0.2, 0.2]",,,,,,,,,,,,,,,,0,13,13,13,,,,,,,,,,,,,,,,,,,,,l,1,0.7995141000000103,,,,,,,,,,,,xmy,m,22,2024_Apr_11_1536,mian,2021.2.3,60.026027285428036,
e8,2,1,8.0,l,"[-0.2, -0.2]",,,,,,,,,,,,,,,,0,14,14,14,,,,,,,,,,,,,,,,,,,,,l,1,1.2838548999999944,,,,,,,,,,,,xmy,m,22,2024_Apr_11_1536,mian,2021.2.3,60.026027285428036,
3f,2,2,3.0,a,"[0.2, -0.2]",,,,,,,,,,,,,,,,0,15,15,15,,,,,,,,,,,,,,,,,,,,,a,1,1.116956499999958,,,,,,,,,,,,xmy,m,22,2024_Apr_11_1536,mian,2021.2.3,60.026027285428036,
7f,1,1,f,l,"[0.2, 0.2]",,,,,,,,,,,,,,,,0,16,16,16,,,,,,,,,,,,,,,,,,,,,l,1,1.08983360000002,,,,,,,,,,,,xmy,m,22,2024_Apr_11_1536,mian,2021.2.3,60.026027285428036,
a7,1,2,a,l,"[-0.2, 0.2]",,,,,,,,,,,,,,,,0,17,17,17,,,,,,,,,,,,,,,,,,,,,l,1,0.7278048999999669,,,,,,,,,,,,xmy,m,22,2024_Apr_11_1536,mian,2021.2.3,60.026027285428036,
5A,2,1,5.0,a,"[-0.2, -0.2]",,,,,,,,,,,,,,,,0,18,18,18,,,,,,,,,,,,,,,,,,,,,a,1,1.462214700000004,,,,,,,,,,,,xmy,m,22,2024_Apr_11_1536,mian,2021.2.3,60.026027285428036,
8g,2,2,8.0,l,"[0.2, -0.2]",,,,,,,,,,,,,,,,0,19,19,19,,,,,,,,,,,,,,,,,,,,,l,1,1.1300459000000274,,,,,,,,,,,,xmy,m,22,2024_Apr_11_1536,mian,2021.2.3,60.026027285428036,
9a,1,1,a,l,"[0.2, 0.2]",,,,,,,,,,,,,,,,0,20,20,20,,,,,,,,,,,,,,,,,,,,,l,1,2.449743299999966,,,,,,,,,,,,xmy,m,22,2024_Apr_11_1536,mian,2021.2.3,60.026027285428036,
f7,1,2,f,l,"[-0.2, 0.2]",,,,,,,,,,,,,,,,0,21,21,21,,,,,,,,,,,,,,,,,,,,,l,1,0.7996676999999863,,,,,,,,,,,,xmy,m,22,2024_Apr_11_1536,mian,2021.2.3,60.026027285428036,
g9,2,1,9.0,a,"[-0.2, -0.2]",,,,,,,,,,,,,,,,0,22,22,22,,,,,,,,,,,,,,,,,,,,,a,1,1.3623956000000135,,,,,,,,,,,,xmy,m,22,2024_Apr_11_1536,mian,2021.2.3,60.026027285428036,
3h,2,2,3.0,a,"[0.2, -0.2]",,,,,,,,,,,,,,,,0,23,23,23,,,,,,,,,,,,,,,,,,,,,a,1,0.7776068000000009,,,,,,,,,,,,xmy,m,22,2024_Apr_11_1536,mian,2021.2.3,60.026027285428036,
E6,1,1,E,a,"[0.2, 0.2]",,,,,,,,,,,,,,,,0,24,24,24,,,,,,,,,,,,,,,,,,,,,a,1,1.1988586999999598,,,,,,,,,,,,xmy,m,22,2024_Apr_11_1536,mian,2021.2.3,60.026027285428036,
F6,1,2,F,a,"[-0.2, 0.2]",,,,,,,,,,,,,,,,0,25,25,25,,,,,,,,,,,,,,,,,,,,,a,1,0.6493962000000124,,,,,,,,,,,,xmy,m,22,2024_Apr_11_1536,mian,2021.2.3,60.026027285428036,
3A,2,1,3.0,a,"[-0.2, -0.2]",,,,,,,,,,,,,,,,0,26,26,26,,,,,,,,,,,,,,,,,,,,,a,1,0.7992163999999775,,,,,,,,,,,,xmy,m,22,2024_Apr_11_1536,mian,2021.2.3,60.026027285428036,
8H,2,2,8.0,l,"[0.2, -0.2]",,,,,,,,,,,,,,,,0,27,27,27,,,,,,,,,,,,,,,,,,,,,l,1,0.8431653000000097,,,,,,,,,,,,xmy,m,22,2024_Apr_11_1536,mian,2021.2.3,60.026027285428036,
5a,1,1,a,l,"[0.2, 0.2]",,,,,,,,,,,,,,,,0,28,28,28,,,,,,,,,,,,,,,,,,,,,l,1,1.3203407999999968,,,,,,,,,,,,xmy,m,22,2024_Apr_11_1536,mian,2021.2.3,60.026027285428036,
2h,1,2,h,l,"[-0.2, 0.2]",,,,,,,,,,,,,,,,0,29,29,29,,,,,,,,,,,,,,,,,,,,,l,1,0.7882885000000215,,,,,,,,,,,,xmy,m,22,2024_Apr_11_1536,mian,2021.2.3,60.026027285428036,
e5,2,1,5.0,a,"[-0.2, -0.2]",,,,,,,,,,,,,,,,0,30,30,30,,,,,,,,,,,,,,,,,,,,,a,1,0.8145134999999755,,,,,,,,,,,,xmy,m,22,2024_Apr_11_1536,mian,2021.2.3,60.026027285428036,
a3,2,2,3.0,a,"[0.2, -0.2]",,,,,,,,,,,,,,,,0,31,31,31,,,,,,,,,,,,,,,,,,,,,a,1,0.6838975000000005,,,,,,,,,,,,xmy,m,22,2024_Apr_11_1536,mian,2021.2.3,60.026027285428036,
f3,1,1,f,l,"[0.2, 0.2]",,,,,,,,,,,,,,,,0,32,32,32,,,,,,,,,,,,,,,,,,,,,l,1,1.573385299999984,,,,,,,,,,,,xmy,m,22,2024_Apr_11_1536,mian,2021.2.3,60.026027285428036,
2E,1,2,E,a,"[-0.2, 0.2]",,,,,,,,,,,,,,,,0,33,33,33,,,,,,,,,,,,,,,,,,,,,a,1,1.888030600000036,,,,,,,,,,,,xmy,m,22,2024_Apr_11_1536,mian,2021.2.3,60.026027285428036,
2H,2,1,2.0,l,"[-0.2, -0.2]",,,,,,,,,,,,,,,,0,34,34,34,,,,,,,,,,,,,,,,,,,,,l,1,1.1219080999999846,,,,,,,,,,,,xmy,m,22,2024_Apr_11_1536,mian,2021.2.3,60.026027285428036,
H8,2,2,8.0,l,"[0.2, -0.2]",,,,,,,,,,,,,,,,0,35,35,35,,,,,,,,,,,,,,,,,,,,,l,1,1.420720899999992,,,,,,,,,,,,xmy,m,22,2024_Apr_11_1536,mian,2021.2.3,60.026027285428036,
9g,1,1,g,l,"[0.2, 0.2]",,,,,,,,,,,,,,,,0,36,36,36,,,,,,,,,,,,,,,,,,,,,l,1,1.148994899999991,,,,,,,,,,,,xmy,m,22,2024_Apr_11_1536,mian,2021.2.3,60.026027285428036,
5h,1,2,h,l,"[-0.2, 0.2]",,,,,,,,,,,,,,,,0,37,37,37,,,,,,,,,,,,,,,,,,,,,l,1,0.6847498999999857,,,,,,,,,,,,xmy,m,22,2024_Apr_11_1536,mian,2021.2.3,60.026027285428036,
e4,2,1,4.0,l,"[-0.2, -0.2]",,,,,,,,,,,,,,,,0,38,38,38,,,,,,,,,,,,,,,,,,,,,l,1,0.8381339000000025,,,,,,,,,,,,xmy,m,22,2024_Apr_11_1536,mian,2021.2.3,60.026027285428036,
9h,2,2,9.0,a,"[0.2, -0.2]",,,,,,,,,,,,,,,,0,39,39,39,,,,,,,,,,,,,,,,,,,,,a,1,0.8336295000000291,,,,,,,,,,,,xmy,m,22,2024_Apr_11_1536,mian,2021.2.3,60.026027285428036,
G3,1,1,G,a,"[0.2, 0.2]",,,,,,,,,,,,,,,,0,40,40,40,,,,,,,,,,,,,,,,,,,,,a,1,1.6779827000000296,,,,,,,,,,,,xmy,m,22,2024_Apr_11_1536,mian,2021.2.3,60.026027285428036,
9A,1,2,A,a,"[-0.2, 0.2]",,,,,,,,,,,,,,,,0,41,41,41,,,,,,,,,,,,,,,,,,,,,a,1,0.7341471999999953,,,,,,,,,,,,xmy,m,22,2024_Apr_11_1536,mian,2021.2.3,60.026027285428036,
H5,2,1,5.0,a,"[-0.2, -0.2]",,,,,,,,,,,,,,,,0,42,42,42,,,,,,,,,,,,,,,,,,,,,a,1,1.0556192999999894,,,,,,,,,,,,xmy,m,22,2024_Apr_11_1536,mian,2021.2.3,60.026027285428036,
4e,2,2,4.0,l,"[0.2, -0.2]",,,,,,,,,,,,,,,,0,43,43,43,,,,,,,,,,,,,,,,,,,,,l,1,1.0188122000000135,,,,,,,,,,,,xmy,m,22,2024_Apr_11_1536,mian,2021.2.3,60.026027285428036,
E2,1,1,E,a,"[0.2, 0.2]",,,,,,,,,,,,,,,,0,44,44,44,,,,,,,,,,,,,,,,,,,,,a,1,1.1796954000000142,,,,,,,,,,,,xmy,m,22,2024_Apr_11_1536,mian,2021.2.3,60.026027285428036,
A5,1,2,A,a,"[-0.2, 0.2]",,,,,,,,,,,,,,,,0,45,45,45,,,,,,,,,,,,,,,,,,,,,a,1,1.8425834000000236,,,,,,,,,,,,xmy,m,22,2024_Apr_11_1536,mian,2021.2.3,60.026027285428036,
2A,2,1,2.0,l,"[-0.2, -0.2]",,,,,,,,,,,,,,,,0,46,46,46,,,,,,,,,,,,,,,,,,,,,l,1,1.3744379999999978,,,,,,,,,,,,xmy,m,22,2024_Apr_11_1536,mian,2021.2.3,60.026027285428036,
6G,2,2,6.0,l,"[0.2, -0.2]",,,,,,,,,,,,,,,,0,47,47,47,,,,,,,,,,,,,,,,,,,,,l,1,0.9143490999999813,,,,,,,,,,,,xmy,m,22,2024_Apr_11_1536,mian,2021.2.3,60.026027285428036,
H3,1,1,H,a,"[0.2, 0.2]",,,,,,,,,,,,,,,,0,48,48,48,,,,,,,,,,,,,,,,,,,,,a,1,1.4034389999999917,,,,,,,,,,,,xmy,m,22,2024_Apr_11_1536,mian,2021.2.3,60.026027285428036,
H2,1,2,H,a,"[-0.2, 0.2]",,,,,,,,,,,,,,,,0,49,49,49,,,,,,,,,,,,,,,,,,,,,a,1,0.6640767000000096,,,,,,,,,,,,xmy,m,22,2024_Apr_11_1536,mian,2021.2.3,60.026027285428036,
e9,2,1,9.0,a,"[-0.2, -0.2]",,,,,,,,,,,,,,,,0,50,50,50,,,,,,,,,,,,,,,,,,,,,a,1,1.31524619999999,,,,,,,,,,,,xmy,m,22,2024_Apr_11_1536,mian,2021.2.3,60.026027285428036,
2G,2,2,2.0,l,"[0.2, -0.2]",,,,,,,,,,,,,,,,0,51,51,51,,,,,,,,,,,,,,,,,,,,,l,1,0.7631701999999905,,,,,,,,,,,,xmy,m,22,2024_Apr_11_1536,mian,2021.2.3,60.026027285428036,
4f,1,1,f,l,"[0.2, 0.2]",,,,,,,,,,,,,,,,0,52,52,52,,,,,,,,,,,,,,,,,,,,,l,1,1.1661548000000153,,,,,,,,,,,,xmy,m,22,2024_Apr_11_1536,mian,2021.2.3,60.026027285428036,
H6,1,2,H,a,"[-0.2, 0.2]",,,,,,,,,,,,,,,,0,53,53,53,,,,,,,,,,,,,,,,,,,,,a,1,1.8195488000000068,,,,,,,,,,,,xmy,m,22,2024_Apr_11_1536,mian,2021.2.3,60.026027285428036,
A4,2,1,4.0,l,"[-0.2, -0.2]",,,,,,,,,,,,,,,,0,54,54,54,,,,,,,,,,,,,,,,,,,,,l,1,1.5862328000000048,,,,,,,,,,,,xmy,m,22,2024_Apr_11_1536,mian,2021.2.3,60.026027285428036,
3F,2,2,3.0,a,"[0.2, -0.2]",,,,,,,,,,,,,,,,0,55,55,55,,,,,,,,,,,,,,,,,,,,,a,1,0.478487599999994,,,,,,,,,,,,xmy,m,22,2024_Apr_11_1536,mian,2021.2.3,60.026027285428036,
7e,1,1,e,l,"[0.2, 0.2]",,,,,,,,,,,,,,,,0,56,56,56,,,,,,,,,,,,,,,,,,,,,l,1,1.4202685999999858,,,,,,,,,,,,xmy,m,22,2024_Apr_11_1536,mian,2021.2.3,60.026027285428036,
F9,1,2,F,a,"[-0.2, 0.2]",,,,,,,,,,,,,,,,0,57,57,57,,,,,,,,,,,,,,,,,,,,,a,1,0.6734544999999912,,,,,,,,,,,,xmy,m,22,2024_Apr_11_1536,mian,2021.2.3,60.026027285428036,
e2,2,1,2.0,l,"[-0.2, -0.2]",,,,,,,,,,,,,,,,0,58,58,58,,,,,,,,,,,,,,,,,,,,,l,1,0.9832291999999825,,,,,,,,,,,,xmy,m,22,2024_Apr_11_1536,mian,2021.2.3,60.026027285428036,
5F,2,2,5.0,a,"[0.2, -0.2]",,,,,,,,,,,,,,,,0,59,59,59,,,,,,,,,,,,,,,,,,,,,a,1,0.6686551999999892,,,,,,,,,,,,xmy,m,22,2024_Apr_11_1536,mian,2021.2.3,60.026027285428036,
f6,1,1,f,l,"[0.2, 0.2]",,,,,,,,,,,,,,,,0,60,60,60,,,,,,,,,,,,,,,,,,,,,l,1,1.3551995999999917,,,,,,,,,,,,xmy,m,22,2024_Apr_11_1536,mian,2021.2.3,60.026027285428036,
7G,1,2,G,a,"[-0.2, 0.2]",,,,,,,,,,,,,,,,0,61,61,61,,,,,,,,,,,,,,,,,,,,,a,1,1.1666180999999938,,,,,,,,,,,,xmy,m,22,2024_Apr_11_1536,mian,2021.2.3,60.026027285428036,
e6,2,1,6.0,l,"[-0.2, -0.2]",,,,,,,,,,,,,,,,0,62,62,62,,,,,,,,,,,,,,,,,,,,,l,1,0.8375072000000046,,,,,,,,,,,,xmy,m,22,2024_Apr_11_1536,mian,2021.2.3,60.026027285428036,
3G,2,2,3.0,a,"[0.2, -0.2]",,,,,,,,,,,,,,,,0,63,63,63,,,,,,,,,,,,,,,,,,,,,a,1,0.5319278000000054,,,,,,,,,,,,xmy,m,22,2024_Apr_11_1536,mian,2021.2.3,60.026027285428036,
5E,1,1,E,a,"[0.2, 0.2]",,,,,,,,,,,,,,,,0,64,64,64,,,,,,,,,,,,,,,,,,,,,a,1,1.3778197999999975,,,,,,,,,,,,xmy,m,22,2024_Apr_11_1536,mian,2021.2.3,60.026027285428036,
A6,1,2,A,a,"[-0.2, 0.2]",,,,,,,,,,,,,,,,0,65,65,65,,,,,,,,,,,,,,,,,,,,,a,1,0.6277198000000226,,,,,,,,,,,,xmy,m,22,2024_Apr_11_1536,mian,2021.2.3,60.026027285428036,
E3,2,1,3.0,a,"[-0.2, -0.2]",,,,,,,,,,,,,,,,0,66,66,66,,,,,,,,,,,,,,,,,,,,,a,1,0.9008155000000215,,,,,,,,,,,,xmy,m,22,2024_Apr_11_1536,mian,2021.2.3,60.026027285428036,
2f,2,2,2.0,l,"[0.2, -0.2]",,,,,,,,,,,,,,,,0,67,67,67,,,,,,,,,,,,,,,,,,,,,l,1,0.8460178999999926,,,,,,,,,,,,xmy,m,22,2024_Apr_11_1536,mian,2021.2.3,60.026027285428036,
g3,1,1,g,l,"[0.2, 0.2]",,,,,,,,,,,,,,,,0,68,68,68,,,,,,,,,,,,,,,,,,,,,l,1,1.4097102000000064,,,,,,,,,,,,xmy,m,22,2024_Apr_11_1536,mian,2021.2.3,60.026027285428036,
E8,1,2,E,a,"[-0.2, 0.2]",,,,,,,,,,,,,,,,0,69,69,69,,,,,,,,,,,,,,,,,,,,,a,1,0.5486080000000015,,,,,,,,,,,,xmy,m,22,2024_Apr_11_1536,mian,2021.2.3,60.026027285428036,
6g,2,1,6.0,l,"[-0.2, -0.2]",,,,,,,,,,,,,,,,0,70,70,70,,,,,,,,,,,,,,,,,,,,,l,1,0.7463070000000016,,,,,,,,,,,,xmy,m,22,2024_Apr_11_1536,mian,2021.2.3,60.026027285428036,
5H,2,2,5.0,a,"[0.2, -0.2]",,,,,,,,,,,,,,,,0,71,71,71,,,,,,,,,,,,,,,,,,,,,a,1,0.6831814999999892,,,,,,,,,,,,xmy,m,22,2024_Apr_11_1536,mian,2021.2.3,60.026027285428036,
4A,1,1,A,a,"[0.2, 0.2]",,,,,,,,,,,,,,,,0,72,72,72,,,,,,,,,,,,,,,,,,,,,a,1,1.1975327999999763,,,,,,,,,,,,xmy,m,22,2024_Apr_11_1536,mian,2021.2.3,60.026027285428036,
7F,1,2,F,a,"[-0.2, 0.2]",,,,,,,,,,,,,,,,0,73,73,73,,,,,,,,,,,,,,,,,,,,,a,1,1.5779770999999982,,,,,,,,,,,,xmy,m,22,2024_Apr_11_1536,mian,2021.2.3,60.026027285428036,
6H,2,1,6.0,l,"[-0.2, -0.2]",,,,,,,,,,,,,,,,0,74,74,74,,,,,,,,,,,,,,,,,,,,,l,1,0.8037421999999879,,,,,,,,,,,,xmy,m,22,2024_Apr_11_1536,mian,2021.2.3,60.026027285428036,
3a,2,2,3.0,a,"[0.2, -0.2]",,,,,,,,,,,,,,,,0,75,75,75,,,,,,,,,,,,,,,,,,,,,a,1,1.2352907000000073,,,,,,,,,,,,xmy,m,22,2024_Apr_11_1536,mian,2021.2.3,60.026027285428036,
9F,1,1,F,a,"[0.2, 0.2]",,,,,,,,,,,,,,,,0,76,76,76,,,,,,,,,,,,,,,,,,,,,a,1,1.6829455000000166,,,,,,,,,,,,xmy,m,22,2024_Apr_11_1536,mian,2021.2.3,60.026027285428036,
G7,1,2,G,a,"[-0.2, 0.2]",,,,,,,,,,,,,,,,0,77,77,77,,,,,,,,,,,,,,,,,,,,,a,1,1.1256326999999828,,,,,,,,,,,,xmy,m,22,2024_Apr_11_1536,mian,2021.2.3,60.026027285428036,
a6,2,1,6.0,l,"[-0.2, -0.2]",,,,,,,,,,,,,,,,0,78,78,78,,,,,,,,,,,,,,,,,,,,,l,1,0.6075015000000121,,,,,,,,,,,,xmy,m,22,2024_Apr_11_1536,mian,2021.2.3,60.026027285428036,
4h,2,2,4.0,l,"[0.2, -0.2]",,,,,,,,,,,,,,,,0,79,79,79,,,,,,,,,,,,,,,,,,,,,l,1,0.614634599999988,,,,,,,,,,,,xmy,m,22,2024_Apr_11_1536,mian,2021.2.3,60.026027285428036,
6A,1,1,A,a,"[0.2, 0.2]",,,,,,,,,,,,,,,,,,,,0,0,0,0,,,,,,,,,,,,,,,,,a,1,1.241364199999964,,,,,,,,,,,,xmy,m,22,2024_Apr_11_1536,mian,2021.2.3,60.026027285428036,
4H,1,2,H,a,"[-0.2, 0.2]",,,,,,,,,,,,,,,,,,,,0,1,1,1,,,,,,,,,,,,,,,,,a,1,0.8708411000000069,,,,,,,,,,,,xmy,m,22,2024_Apr_11_1536,mian,2021.2.3,60.026027285428036,
3H,2,1,3.0,a,"[-0.2, -0.2]",,,,,,,,,,,,,,,,,,,,0,2,2,2,,,,,,,,,,,,,,,,,a,1,0.5509280999999646,,,,,,,,,,,,xmy,m,22,2024_Apr_11_1536,mian,2021.2.3,60.026027285428036,
a9,2,2,9.0,a,"[0.2, -0.2]",,,,,,,,,,,,,,,,,,,,0,3,3,3,,,,,,,,,,,,,,,,,a,1,1.055616299999997,,,,,,,,,,,,xmy,m,22,2024_Apr_11_1536,mian,2021.2.3,60.026027285428036,
E7,1,1,E,a,"[0.2, 0.2]",,,,,,,,,,,,,,,,,,,,0,4,4,4,,,,,,,,,,,,,,,,,a,1,1.28268300000002,,,,,,,,,,,,xmy,m,22,2024_Apr_11_1536,mian,2021.2.3,60.026027285428036,
6h,1,2,h,l,"[-0.2, 0.2]",,,,,,,,,,,,,,,,,,,,0,5,5,5,,,,,,,,,,,,,,,,,l,1,0.5888439999999946,,,,,,,,,,,,xmy,m,22,2024_Apr_11_1536,mian,2021.2.3,60.026027285428036,
8A,2,1,8.0,l,"[-0.2, -0.2]",,,,,,,,,,,,,,,,,,,,0,6,6,6,,,,,,,,,,,,,,,,,l,1,0.4735455000000002,,,,,,,,,,,,xmy,m,22,2024_Apr_11_1536,mian,2021.2.3,60.026027285428036,
f5,2,2,5.0,a,"[0.2, -0.2]",,,,,,,,,,,,,,,,,,,,0,7,7,7,,,,,,,,,,,,,,,,,a,1,0.5088923999999793,,,,,,,,,,,,xmy,m,22,2024_Apr_11_1536,mian,2021.2.3,60.026027285428036,
2a,1,1,a,l,"[0.2, 0.2]",,,,,,,,,,,,,,,,,,,,0,8,8,8,,,,,,,,,,,,,,,,,l,1,1.0996827999999823,,,,,,,,,,,,xmy,m,22,2024_Apr_11_1536,mian,2021.2.3,60.026027285428036,
F7,1,2,F,a,"[-0.2, 0.2]",,,,,,,,,,,,,,,,,,,,0,9,9,9,,,,,,,,,,,,,,,,,a,1,1.0890077999999903,,,,,,,,,,,,xmy,m,22,2024_Apr_11_1536,mian,2021.2.3,60.026027285428036,
h2,2,1,2.0,l,"[-0.2, -0.2]",,,,,,,,,,,,,,,,,,,,0,10,10,10,,,,,,,,,,,,,,,,,l,1,1.4570876999999882,,,,,,,,,,,,xmy,m,22,2024_Apr_11_1536,mian,2021.2.3,60.026027285428036,
F5,2,2,5.0,a,"[0.2, -0.2]",,,,,,,,,,,,,,,,,,,,0,11,11,11,,,,,,,,,,,,,,,,,a,1,0.456455300000016,,,,,,,,,,,,xmy,m,22,2024_Apr_11_1536,mian,2021.2.3,60.026027285428036,
A9,1,1,A,a,"[0.2, 0.2]",,,,,,,,,,,,,,,,,,,,0,12,12,12,,,,,,,,,,,,,,,,,a,1,0.98308789999993,,,,,,,,,,,,xmy,m,22,2024_Apr_11_1536,mian,2021.2.3,60.026027285428036,
3e,1,2,e,l,"[-0.2, 0.2]",,,,,,,,,,,,,,,,,,,,0,13,13,13,,,,,,,,,,,,,,,,,l,1,0.5739780999999766,,,,,,,,,,,,xmy,m,22,2024_Apr_11_1536,mian,2021.2.3,60.026027285428036,
f8,2,1,8.0,l,"[-0.2, -0.2]",,,,,,,,,,,,,,,,,,,,0,14,14,14,,,,,,,,,,,,,,,,,l,1,1.2378756000000521,,,,,,,,,,,,xmy,m,22,2024_Apr_11_1536,mian,2021.2.3,60.026027285428036,
G2,2,2,2.0,l,"[0.2, -0.2]",,,,,,,,,,,,,,,,,,,,0,15,15,15,,,,,,,,,,,,,,,,,l,1,0.6040793999999323,,,,,,,,,,,,xmy,m,22,2024_Apr_11_1536,mian,2021.2.3,60.026027285428036,
F2,1,1,F,a,"[0.2, 0.2]",,,,,,,,,,,,,,,,,,,,0,16,16,16,,,,,,,,,,,,,,,,,a,1,1.3233865999999352,,,,,,,,,,,,xmy,m,22,2024_Apr_11_1536,mian,2021.2.3,60.026027285428036,
5e,1,2,e,l,"[-0.2, 0.2]",,,,,,,,,,,,,,,,,,,,0,17,17,17,,,,,,,,,,,,,,,,,l,1,1.1510872000000063,,,,,,,,,,,,xmy,m,22,2024_Apr_11_1536,mian,2021.2.3,60.026027285428036,
A3,2,1,3.0,a,"[-0.2, -0.2]",,,,,,,,,,,,,,,,,,,,0,18,18,18,,,,,,,,,,,,,,,,,a,1,0.7134663000000501,,,,,,,,,,,,xmy,m,22,2024_Apr_11_1536,mian,2021.2.3,60.026027285428036,
4g,2,2,4.0,l,"[0.2, -0.2]",,,,,,,,,,,,,,,,,,,,0,19,19,19,,,,,,,,,,,,,,,,,l,1,0.7438605000000962,,,,,,,,,,,,xmy,m,22,2024_Apr_11_1536,mian,2021.2.3,60.026027285428036,
h7,1,1,h,l,"[0.2, 0.2]",,,,,,,,,,,,,,,,,,,,0,20,20,20,,,,,,,,,,,,,,,,,l,1,1.1457574999999451,,,,,,,,,,,,xmy,m,22,2024_Apr_11_1536,mian,2021.2.3,60.026027285428036,
3g,1,2,g,l,"[-0.2, 0.2]",,,,,,,,,,,,,,,,,,,,0,21,21,21,,,,,,,,,,,,,,,,,l,1,0.6108288000000357,,,,,,,,,,,,xmy,m,22,2024_Apr_11_1536,mian,2021.2.3,60.026027285428036,
8a,2,1,8.0,l,"[-0.2, -0.2]",,,,,,,,,,,,,,,,,,,,0,22,22,22,,,,,,,,,,,,,,,,,l,1,0.7864779000000226,,,,,,,,,,,,xmy,m,22,2024_Apr_11_1536,mian,2021.2.3,60.026027285428036,
4E,2,2,4.0,l,"[0.2, -0.2]",,,,,,,,,,,,,,,,,,,,0,23,23,23,,,,,,,,,,,,,,,,,l,1,1.1903370999999652,,,,,,,,,,,,xmy,m,22,2024_Apr_11_1536,mian,2021.2.3,60.026027285428036,
E5,1,1,E,a,"[0.2, 0.2]",,,,,,,,,,,,,,,,,,,,0,24,24,24,,,,,,,,,,,,,,,,,a,1,1.695418899999936,,,,,,,,,,,,xmy,m,22,2024_Apr_11_1536,mian,2021.2.3,60.026027285428036,
g6,1,2,g,l,"[-0.2, 0.2]",,,,,,,,,,,,,,,,,,,,0,25,25,25,,,,,,,,,,,,,,,,,l,1,0.5496214000000919,,,,,,,,,,,,xmy,m,22,2024_Apr_11_1536,mian,2021.2.3,60.026027285428036,
2e,2,1,2.0,l,"[-0.2, -0.2]",,,,,,,,,,,,,,,,,,,,0,26,26,26,,,,,,,,,,,,,,,,,l,1,1.8104692000000568,,,,,,,,,,,,xmy,m,22,2024_Apr_11_1536,mian,2021.2.3,60.026027285428036,
h8,2,2,8.0,l,"[0.2, -0.2]",,,,,,,,,,,,,,,,,,,,0,27,27,27,,,,,,,,,,,,,,,,,l,1,0.6022950000000264,,,,,,,,,,,,xmy,m,22,2024_Apr_11_1536,mian,2021.2.3,60.026027285428036,
G6,1,1,G,a,"[0.2, 0.2]",,,,,,,,,,,,,,,,,,,,0,28,28,28,,,,,,,,,,,,,,,,,a,1,0.8131743999999799,,,,,,,,,,,,xmy,m,22,2024_Apr_11_1536,mian,2021.2.3,60.026027285428036,
a4,1,2,a,l,"[-0.2, 0.2]",,,,,,,,,,,,,,,,,,,,0,29,29,29,,,,,,,,,,,,,,,,,l,1,0.5329061000001047,,,,,,,,,,,,xmy,m,22,2024_Apr_11_1536,mian,2021.2.3,60.026027285428036,
9H,2,1,9.0,a,"[-0.2, -0.2]",,,,,,,,,,,,,,,,,,,,0,30,30,30,,,,,,,,,,,,,,,,,a,1,0.6244216999999708,,,,,,,,,,,,xmy,m,22,2024_Apr_11_1536,mian,2021.2.3,60.026027285428036,
7H,2,2,7.0,a,"[0.2, -0.2]",,,,,,,,,,,,,,,,,,,,0,31,31,31,,,,,,,,,,,,,,,,,a,1,0.5908785000000307,,,,,,,,,,,,xmy,m,22,2024_Apr_11_1536,mian,2021.2.3,60.026027285428036,
9f,1,1,f,l,"[0.2, 0.2]",,,,,,,,,,,,,,,,,,,,0,32,32,32,,,,,,,,,,,,,,,,,l,1,0.6589236999999457,,,,,,,,,,,,xmy,m,22,2024_Apr_11_1536,mian,2021.2.3,60.026027285428036,
8E,1,2,E,a,"[-0.2, 0.2]",,,,,,,,,,,,,,,,,,,,0,33,33,33,,,,,,,,,,,,,,,,,a,1,1.0134514999999737,,,,,,,,,,,,xmy,m,22,2024_Apr_11_1536,mian,2021.2.3,60.026027285428036,
A2,2,1,2.0,l,"[-0.2, -0.2]",,,,,,,,,,,,,,,,,,,,0,34,34,34,,,,,,,,,,,,,,,,,a,0,1.2093571999999995,,,,,,,,,,,,xmy,m,22,2024_Apr_11_1536,mian,2021.2.3,60.026027285428036,
H7,2,2,7.0,a,"[0.2, -0.2]",,,,,,,,,,,,,,,,,,,,0,35,35,35,,,,,,,,,,,,,,,,,a,1,1.575390500000026,,,,,,,,,,,,xmy,m,22,2024_Apr_11_1536,mian,2021.2.3,60.026027285428036,
h9,1,1,h,l,"[0.2, 0.2]",,,,,,,,,,,,,,,,,,,,0,36,36,36,,,,,,,,,,,,,,,,,l,1,1.27656740000009,,,,,,,,,,,,xmy,m,22,2024_Apr_11_1536,mian,2021.2.3,60.026027285428036,
8G,1,2,G,a,"[-0.2, 0.2]",,,,,,,,,,,,,,,,,,,,0,37,37,37,,,,,,,,,,,,,,,,,a,1,1.909442399999989,,,,,,,,,,,,xmy,m,22,2024_Apr_11_1536,mian,2021.2.3,60.026027285428036,
H4,2,1,4.0,l,"[-0.2, -0.2]",,,,,,,,,,,,,,,,,,,,0,38,38,38,,,,,,,,,,,,,,,,,l,1,1.2846876999999495,,,,,,,,,,,,xmy,m,22,2024_Apr_11_1536,mian,2021.2.3,60.026027285428036,
A8,2,2,8.0,l,"[0.2, -0.2]",,,,,,,,,,,,,,,,,,,,0,39,39,39,,,,,,,,,,,,,,,,,l,1,0.529820700000073,,,,,,,,,,,,xmy,m,22,2024_Apr_11_1536,mian,2021.2.3,60.026027285428036,
g7,1,1,g,l,"[0.2, 0.2]",,,,,,,,,,,,,,,,,,,,0,40,40,40,,,,,,,,,,,,,,,,,l,1,1.0954139000000396,,,,,,,,,,,,xmy,m,22,2024_Apr_11_1536,mian,2021.2.3,60.026027285428036,
H9,1,2,H,a,"[-0.2, 0.2]",,,,,,,,,,,,,,,,,,,,0,41,41,41,,,,,,,,,,,,,,,,,a,1,0.49653829999999743,,,,,,,,,,,,xmy,m,22,2024_Apr_11_1536,mian,2021.2.3,60.026027285428036,
9E,2,1,9.0,a,"[-0.2, -0.2]",,,,,,,,,,,,,,,,,,,,0,42,42,42,,,,,,,,,,,,,,,,,l,0,0.5338914999999815,,,,,,,,,,,,xmy,m,22,2024_Apr_11_1536,mian,2021.2.3,60.026027285428036,
a5,2,2,5.0,a,"[0.2, -0.2]",,,,,,,,,,,,,,,,,,,,0,43,43,43,,,,,,,,,,,,,,,,,a,1,1.2041961999999558,,,,,,,,,,,,xmy,m,22,2024_Apr_11_1536,mian,2021.2.3,60.026027285428036,
3E,1,1,E,a,"[0.2, 0.2]",,,,,,,,,,,,,,,,,,,,0,44,44,44,,,,,,,,,,,,,,,,,a,1,1.6756249000000025,,,,,,,,,,,,xmy,m,22,2024_Apr_11_1536,mian,2021.2.3,60.026027285428036,
6f,1,2,f,l,"[-0.2, 0.2]",,,,,,,,,,,,,,,,,,,,0,45,45,45,,,,,,,,,,,,,,,,,l,1,1.5127895000000535,,,,,,,,,,,,xmy,m,22,2024_Apr_11_1536,mian,2021.2.3,60.026027285428036,
g8,2,1,8.0,l,"[-0.2, -0.2]",,,,,,,,,,,,,,,,,,,,0,46,46,46,,,,,,,,,,,,,,,,,l,1,1.4730499999999438,,,,,,,,,,,,xmy,m,22,2024_Apr_11_1536,mian,2021.2.3,60.026027285428036,
4F,2,2,4.0,l,"[0.2, -0.2]",,,,,,,,,,,,,,,,,,,,0,47,47,47,,,,,,,,,,,,,,,,,l,1,0.47237269999993714,,,,,,,,,,,,xmy,m,22,2024_Apr_11_1536,mian,2021.2.3,60.026027285428036,
4a,1,1,a,l,"[0.2, 0.2]",,,,,,,,,,,,,,,,,,,,0,48,48,48,,,,,,,,,,,,,,,,,l,1,1.0448355999999421,,,,,,,,,,,,xmy,m,22,2024_Apr_11_1536,mian,2021.2.3,60.026027285428036,
e3,1,2,e,l,"[-0.2, 0.2]",,,,,,,,,,,,,,,,,,,,0,49,49,49,,,,,,,,,,,,,,,,,l,1,1.7083074999999326,,,,,,,,,,,,xmy,m,22,2024_Apr_11_1536,mian,2021.2.3,60.026027285428036,
5g,2,1,5.0,a,"[-0.2, -0.2]",,,,,,,,,,,,,,,,,,,,0,50,50,50,,,,,,,,,,,,,,,,,a,1,0.7645542999999861,,,,,,,,,,,,xmy,m,22,2024_Apr_11_1536,mian,2021.2.3,60.026027285428036,
f4,2,2,4.0,l,"[0.2, -0.2]",,,,,,,,,,,,,,,,,,,,0,51,51,51,,,,,,,,,,,,,,,,,l,1,0.6488310999999385,,,,,,,,,,,,xmy,m,22,2024_Apr_11_1536,mian,2021.2.3,60.026027285428036,
6E,1,1,E,a,"[0.2, 0.2]",,,,,,,,,,,,,,,,,,,,0,52,52,52,,,,,,,,,,,,,,,,,a,1,0.8776295000000118,,,,,,,,,,,,xmy,m,22,2024_Apr_11_1536,mian,2021.2.3,60.026027285428036,
7A,1,2,A,a,"[-0.2, 0.2]",,,,,,,,,,,,,,,,,,,,0,53,53,53,,,,,,,,,,,,,,,,,a,1,1.0932152999999971,,,,,,,,,,,,xmy,m,22,2024_Apr_11_1536,mian,2021.2.3,60.026027285428036,
F4,2,1,4.0,l,"[-0.2, -0.2]",,,,,,,,,,,,,,,,,,,,0,54,54,54,,,,,,,,,,,,,,,,,l,1,1.0746357000000444,,,,,,,,,,,,xmy,m,22,2024_Apr_11_1536,mian,2021.2.3,60.026027285428036,
2g,2,2,2.0,l,"[0.2, -0.2]",,,,,,,,,,,,,,,,,,,,0,55,55,55,,,,,,,,,,,,,,,,,l,1,0.5190854999999601,,,,,,,,,,,,xmy,m,22,2024_Apr_11_1536,mian,2021.2.3,60.026027285428036,
7E,1,1,E,a,"[0.2, 0.2]",,,,,,,,,,,,,,,,,,,,0,56,56,56,,,,,,,,,,,,,,,,,a,1,0.9438000000000102,,,,,,,,,,,,xmy,m,22,2024_Apr_11_1536,mian,2021.2.3,60.026027285428036,
G4,1,2,G,a,"[-0.2, 0.2]",,,,,,,,,,,,,,,,,,,,0,57,57,57,,,,,,,,,,,,,,,,,a,1,0.5132930999999417,,,,,,,,,,,,xmy,m,22,2024_Apr_11_1536,mian,2021.2.3,60.026027285428036,
2F,2,1,2.0,l,"[-0.2, -0.2]",,,,,,,,,,,,,,,,,,,,0,58,58,58,,,,,,,,,,,,,,,,,l,1,0.692725899999914,,,,,,,,,,,,xmy,m,22,2024_Apr_11_1536,mian,2021.2.3,60.026027285428036,
E9,2,2,9.0,a,"[0.2, -0.2]",,,,,,,,,,,,,,,,,,,,0,59,59,59,,,,,,,,,,,,,,,,,a,1,0.5382253000000219,,,,,,,,,,,,xmy,m,22,2024_Apr_11_1536,mian,2021.2.3,60.026027285428036,
5f,1,1,f,l,"[0.2, 0.2]",,,,,,,,,,,,,,,,,,,,0,60,60,60,,,,,,,,,,,,,,,,,l,1,1.3432536000000255,,,,,,,,,,,,xmy,m,22,2024_Apr_11_1536,mian,2021.2.3,60.026027285428036,
e7,1,2,e,l,"[-0.2, 0.2]",,,,,,,,,,,,,,,,,,,,0,61,61,61,,,,,,,,,,,,,,,,,l,1,0.457621300000028,,,,,,,,,,,,xmy,m,22,2024_Apr_11_1536,mian,2021.2.3,60.026027285428036,
f2,2,1,2.0,l,"[-0.2, -0.2]",,,,,,,,,,,,,,,,,,,,0,62,62,62,,,,,,,,,,,,,,,,,l,1,0.5271739999999454,,,,,,,,,,,,xmy,m,22,2024_Apr_11_1536,mian,2021.2.3,60.026027285428036,
G9,2,2,9.0,a,"[0.2, -0.2]",,,,,,,,,,,,,,,,,,,,0,63,63,63,,,,,,,,,,,,,,,,,a,1,0.6535012000000506,,,,,,,,,,,,xmy,m,22,2024_Apr_11_1536,mian,2021.2.3,60.026027285428036,
7g,1,1,g,l,"[0.2, 0.2]",,,,,,,,,,,,,,,,,,,,0,64,64,64,,,,,,,,,,,,,,,,,l,1,1.4109432999999854,,,,,,,,,,,,xmy,m,22,2024_Apr_11_1536,mian,2021.2.3,60.026027285428036,
F8,1,2,F,a,"[-0.2, 0.2]",,,,,,,,,,,,,,,,,,,,0,65,65,65,,,,,,,,,,,,,,,,,a,1,0.5743312000000742,,,,,,,,,,,,xmy,m,22,2024_Apr_11_1536,mian,2021.2.3,60.026027285428036,
A7,2,1,7.0,a,"[-0.2, -0.2]",,,,,,,,,,,,,,,,,,,,0,66,66,66,,,,,,,,,,,,,,,,,a,1,1.388003499999968,,,,,,,,,,,,xmy,m,22,2024_Apr_11_1536,mian,2021.2.3,60.026027285428036,
4G,2,2,4.0,l,"[0.2, -0.2]",,,,,,,,,,,,,,,,,,,,0,67,67,67,,,,,,,,,,,,,,,,,l,1,1.036216100000047,,,,,,,,,,,,xmy,m,22,2024_Apr_11_1536,mian,2021.2.3,60.026027285428036,
g2,1,1,g,l,"[0.2, 0.2]",,,,,,,,,,,,,,,,,,,,0,68,68,68,,,,,,,,,,,,,,,,,l,1,1.585928899999999,,,,,,,,,,,,xmy,m,22,2024_Apr_11_1536,mian,2021.2.3,60.026027285428036,
g4,1,2,g,l,"[-0.2, 0.2]",,,,,,,,,,,,,,,,,,,,0,69,69,69,,,,,,,,,,,,,,,,,l,1,0.4790754000000561,,,,,,,,,,,,xmy,m,22,2024_Apr_11_1536,mian,2021.2.3,60.026027285428036,
7a,2,1,7.0,a,"[-0.2, -0.2]",,,,,,,,,,,,,,,,,,,,0,70,70,70,,,,,,,,,,,,,,,,,a,1,0.46301600000003873,,,,,,,,,,,,xmy,m,22,2024_Apr_11_1536,mian,2021.2.3,60.026027285428036,
8e,2,2,8.0,l,"[0.2, -0.2]",,,,,,,,,,,,,,,,,,,,0,71,71,71,,,,,,,,,,,,,,,,,l,1,0.6381830000000264,,,,,,,,,,,,xmy,m,22,2024_Apr_11_1536,mian,2021.2.3,60.026027285428036,
h4,1,1,h,l,"[0.2, 0.2]",,,,,,,,,,,,,,,,,,,,0,72,72,72,,,,,,,,,,,,,,,,,l,1,0.6823518999999578,,,,,,,,,,,,xmy,m,22,2024_Apr_11_1536,mian,2021.2.3,60.026027285428036,
G8,1,2,G,a,"[-0.2, 0.2]",,,,,,,,,,,,,,,,,,,,0,73,73,73,,,,,,,,,,,,,,,,,a,1,0.5891090000000077,,,,,,,,,,,,xmy,m,22,2024_Apr_11_1536,mian,2021.2.3,60.026027285428036,
6F,2,1,6.0,l,"[-0.2, -0.2]",,,,,,,,,,,,,,,,,,,,0,74,74,74,,,,,,,,,,,,,,,,,l,1,0.8509681000000455,,,,,,,,,,,,xmy,m,22,2024_Apr_11_1536,mian,2021.2.3,60.026027285428036,
g5,2,2,5.0,a,"[0.2, -0.2]",,,,,,,,,,,,,,,,,,,,0,75,75,75,,,,,,,,,,,,,,,,,l,0,2.011849600000005,,,,,,,,,,,,xmy,m,22,2024_Apr_11_1536,mian,2021.2.3,60.026027285428036,
G5,1,1,G,a,"[0.2, 0.2]",,,,,,,,,,,,,,,,,,,,0,76,76,76,,,,,,,,,,,,,,,,,a,1,1.744412699999998,,,,,,,,,,,,xmy,m,22,2024_Apr_11_1536,mian,2021.2.3,60.026027285428036,
h5,1,2,h,l,"[-0.2, 0.2]",,,,,,,,,,,,,,,,,,,,0,77,77,77,,,,,,,,,,,,,,,,,l,1,1.4352363000000423,,,,,,,,,,,,xmy,m,22,2024_Apr_11_1536,mian,2021.2.3,60.026027285428036,
9G,2,1,9.0,a,"[-0.2, -0.2]",,,,,,,,,,,,,,,,,,,,0,78,78,78,,,,,,,,,,,,,,,,,a,1,1.752227400000038,,,,,,,,,,,,xmy,m,22,2024_Apr_11_1536,mian,2021.2.3,60.026027285428036,
F3,2,2,3.0,a,"[0.2, -0.2]",,,,,,,,,,,,,,,,,,,,0,79,79,79,,,,,,,,,,,,,,,,,a,1,0.9786884999999756,,,,,,,,,,,,xmy,m,22,2024_Apr_11_1536,mian,2021.2.3,60.026027285428036,
,,,,,,0,1,pic/flanker5.png,pic/flanker1.png,s,k,,,,,,,,,,,,,,,,,,0,0,0,0,0,0,0,0,,,,,,,,,,,,509.40653100000003,None,508.21588119999996,509.4232616,None,0,充裕,k,1,1.2244288000000552,,xmy,m,22,2024_Apr_11_1536,mian,2021.2.3,60.026027285428036,
,,,,,,1,1,pic/flanker5.png,pic/flanker3.png,a,k,,,,,,,,,,,,,,,,,,0,0,0,0,0,1,1,4,,,,,,,,,,,,514.0563847000001,None,512.8730764,514.0730539000001,a,1,秀丽,k,1,0.9352880999999797,0.6069753999998966,xmy,m,22,2024_Apr_11_1536,mian,2021.2.3,60.026027285428036,
,,,,,,1,0,pic/flanker5.png,pic/flanker3.png,a,l,,,,,,,,,,,,,,,,,,0,0,0,0,0,2,2,7,,,,,,,,,,,,517.4896948999999,None,516.3063775999999,517.5063584,a,1,慌忙,l,1,0.7476682999999866,0.5466835999999375,xmy,m,22,2024_Apr_11_1536,mian,2021.2.3,60.026027285428036,
,,,,,,1,1,pic/flanker6.png,pic/flanker4.png,s,k,,,,,,,,,,,,,,,,,,0,0,0,0,0,3,3,6,,,,,,,,,,,,520.8065902999999,None,519.6230125,520.8225674,s,1,永恒,k,1,1.0313629000000901,0.49006099999996877,xmy,m,22,2024_Apr_11_1536,mian,2021.2.3,60.026027285428036,
,,,,,,1,0,pic/flanker6.png,pic/flanker4.png,s,l,,,,,,,,,,,,,,,,,,0,0,0,0,0,4,4,5,,,,,,,,,,,,524.2565831,None,523.0733502,524.2734304999999,s,1,争吵,l,1,0.7160090000000991,0.568120199999953,xmy,m,22,2024_Apr_11_1536,mian,2021.2.3,60.026027285428036,
,,,,,,0,0,pic/flanker5.png,pic/flanker1.png,s,l,,,,,,,,,,,,,,,,,,0,0,0,0,0,5,5,3,,,,,,,,,,,,527.5732109,None,526.3897079999999,527.5899537,s,1,排斥,l,1,0.7171466000000919,0.5211098000000902,xmy,m,22,2024_Apr_11_1536,mian,2021.2.3,60.026027285428036,
,,,,,,0,0,pic/flanker6.png,pic/flanker2.png,a,l,,,,,,,,,,,,,,,,,,0,0,0,0,0,6,6,1,,,,,,,,,,,,530.8725107,None,529.6897789,530.8899042999999,a,1,失意,l,1,0.673678099999961,0.41501899999991565,xmy,m,22,2024_Apr_11_1536,mian,2021.2.3,60.026027285428036,
,,,,,,0,1,pic/flanker6.png,pic/flanker2.png,a,k,,,,,,,,,,,,,,,,,,0,0,0,0,0,7,7,2,,,,,,,,,,,,533.9400892000001,None,532.7567022000001,533.9564843,a,1,旺盛,k,1,0.7682095999999774,0.5505452999999534,xmy,m,22,2024_Apr_11_1536,mian,2021.2.3,60.026027285428036,
,,,,,,,,,,,,,,,,,,,,,,,,,,,,,0,0,0,0,,,,,,,,,,,,,,,,,,,,,,,,,,,xmy,m,22,2024_Apr_11_1536,mian,2021.2.3,60.026027285428036,
,,,,,,0,0,pic/flanker5.png,pic/flanker1.png,s,l,pic/AffRest1.png,,,,,,,,,,,,,,,,,,,,,,,,,0,0,0,0,0,0,0,43,,,,544.7567572,None,543.5656736000001,544.7733108,s,1,假冒,l,1,0.8273121000000856,0.4044368999999506,xmy,m,22,2024_Apr_11_1536,mian,2021.2.3,60.026027285428036,
,,,,,,1,0,pic/flanker6.png,pic/flanker4.png,s,l,pic/AffRest1.png,,,,,,,,,,,,,,,,,,,,,,,,,0,0,0,0,0,1,1,53,,,,547.8732286,None,546.6900936,547.8898974000001,s,1,排斥,l,1,0.5612760999999864,0.5028358999999227,xmy,m,22,2024_Apr_11_1536,mian,2021.2.3,60.026027285428036,
,,,,,,0,0,pic/flanker5.png,pic/flanker1.png,s,l,pic/AffRest1.png,,,,,,,,,,,,,,,,,,,,,,,,,0,0,0,0,0,2,2,51,,,,550.9733085,None,549.7899208000001,550.9898774999999,s,1,撒谎,l,1,0.5834646999999222,0.3913942000000361,xmy,m,22,2024_Apr_11_1536,mian,2021.2.3,60.026027285428036,
,,,,,,0,1,pic/flanker6.png,pic/flanker2.png,a,k,pic/AffRest1.png,,,,,,,,,,,,,,,,,,,,,,,,,0,0,0,0,0,3,3,50,,,,553.8731565999999,None,552.6899312999999,553.8899478999999,a,1,卓越,k,1,0.6076185000000578,0.37962000000004537,xmy,m,22,2024_Apr_11_1536,mian,2021.2.3,60.026027285428036,
,,,,,,0,0,pic/flanker5.png,pic/flanker1.png,s,l,pic/AffRest1.png,,,,,,,,,,,,,,,,,,,,,,,,,0,0,0,0,0,4,4,59,,,,556.7566635999999,None,555.5732938000001,556.7732621,s,1,禁止,l,1,0.6394281999999976,0.352890900000034,xmy,m,22,2024_Apr_11_1536,mian,2021.2.3,60.026027285428036,
,,,,,,1,0,pic/flanker6.png,pic/flanker4.png,s,l,pic/AffRest1.png,,,,,,,,,,,,,,,,,,,,,,,,,0,0,0,0,0,5,5,21,,,,559.6730461,None,558.4896357,559.6895646,s,1,消沉,l,1,0.5882838999999649,0.42536500000005617,xmy,m,22,2024_Apr_11_1536,mian,2021.2.3,60.026027285428036,
,,,,,,1,0,pic/flanker5.png,pic/flanker3.png,a,l,pic/AffRest1.png,,,,,,,,,,,,,,,,,,,,,,,,,0,0,0,0,0,6,6,23,,,,562.6399217999999,None,561.4566368000001,562.6566548999999,a,1,懒惰,l,1,0.5880769999999984,0.4209058000000141,xmy,m,22,2024_Apr_11_1536,mian,2021.2.3,60.026027285428036,
,,,,,,1,0,pic/flanker6.png,pic/flanker4.png,s,l,pic/AffRest1.png,,,,,,,,,,,,,,,,,,,,,,,,,0,0,0,0,0,7,7,45,,,,565.6566237,None,564.4732749,565.6732064,s,1,杂乱,l,1,0.512331099999983,0.4209222999999156,xmy,m,22,2024_Apr_11_1536,mian,2021.2.3,60.026027285428036,
,,,,,,0,0,pic/flanker5.png,pic/flanker1.png,s,l,pic/AffRest1.png,,,,,,,,,,,,,,,,,,,,,,,,,0,0,0,0,0,8,8,27,,,,568.5066227,None,567.3232516,568.5233731000001,s,1,忧虑,k,0,0.8157962999999882,0.39868699999999535,xmy,m,22,2024_Apr_11_1536,mian,2021.2.3,60.026027285428036,
,,,,,,1,0,pic/flanker6.png,pic/flanker4.png,s,l,pic/AffRest1.png,,,,,,,,,,,,,,,,,,,,,,,,,0,0,0,0,0,9,9,13,,,,571.789871,None,570.6066705000001,571.8066965999999,s,1,穷苦,l,1,0.6544674000000441,0.49269459999993614,xmy,m,22,2024_Apr_11_1536,mian,2021.2.3,60.026027285428036,
,,,,,,0,0,pic/flanker5.png,pic/flanker1.png,s,l,pic/AffRest1.png,,,,,,,,,,,,,,,,,,,,,,,,,0,0,0,0,0,10,10,75,,,,575.0066933999999,None,573.8231154,575.0233312,s,1,丢失,l,1,0.5860686999999416,0.38991889999999785,xmy,m,22,2024_Apr_11_1536,mian,2021.2.3,60.026027285428036,
,,,,,,0,0,pic/flanker6.png,pic/flanker2.png,a,l,pic/AffRest1.png,,,,,,,,,,,,,,,,,,,,,,,,,0,0,0,0,0,11,11,65,,,,578.0399761000001,None,576.8567163,578.0565249000001,a,1,沮丧,l,1,0.5505531999999675,0.38750790000005964,xmy,m,22,2024_Apr_11_1536,mian,2021.2.3,60.026027285428036,
,,,,,,1,1,pic/flanker5.png,pic/flanker3.png,a,k,pic/AffRest1.png,,,,,,,,,,,,,,,,,,,,,,,,,0,0,0,0,0,12,12,4,,,,580.9067609000001,None,579.7232988000001,580.9232552999999,a,1,振作,k,1,0.603414399999906,0.5187379999999848,xmy,m,22,2024_Apr_11_1536,mian,2021.2.3,60.026027285428036,
,,,,,,1,1,pic/flanker6.png,pic/flanker4.png,s,k,pic/AffRest1.png,,,,,,,,,,,,,,,,,,,,,,,,,0,0,0,0,0,13,13,38,,,,583.9900207999999,None,582.8066423,584.0064602,s,1,鲜艳,k,1,0.614381000000094,0.381655300000034,xmy,m,22,2024_Apr_11_1536,mian,2021.2.3,60.026027285428036,
,,,,,,1,1,pic/flanker5.png,pic/flanker3.png,a,k,pic/AffRest1.png,,,,,,,,,,,,,,,,,,,,,,,,,0,0,0,0,0,14,14,44,,,,586.8566564,None,585.6732459,586.8732440000001,a,1,留恋,k,1,0.9041208999999526,0.3895667000000458,xmy,m,22,2024_Apr_11_1536,mian,2021.2.3,60.026027285428036,
,,,,,,0,0,pic/flanker6.png,pic/flanker2.png,a,l,pic/AffRest1.png,,,,,,,,,,,,,,,,,,,,,,,,,0,0,0,0,0,15,15,73,,,,590.0733686000001,None,588.8899234999999,590.0900501000001,a,1,损害,l,1,0.5875528000000259,0.3982297000000017,xmy,m,22,2024_Apr_11_1536,mian,2021.2.3,60.026027285428036,
,,,,,,1,0,pic/flanker5.png,pic/flanker3.png,a,l,pic/AffRest1.png,,,,,,,,,,,,,,,,,,,,,,,,,0,0,0,0,0,16,16,39,,,,592.9564459999999,None,591.7729460999999,592.9732131000001,a,1,浪费,l,1,0.6032381999999643,0.4463091999999733,xmy,m,22,2024_Apr_11_1536,mian,2021.2.3,60.026027285428036,
,,,,,,0,1,pic/flanker5.png,pic/flanker1.png,s,k,pic/AffRest1.png,,,,,,,,,,,,,,,,,,,,,,,,,0,0,0,0,0,17,17,64,,,,595.8732388999999,None,594.6899532,595.8899114000001,s,1,舒畅,k,1,0.6937931999999591,0.35466569999994135,xmy,m,22,2024_Apr_11_1536,mian,2021.2.3,60.026027285428036,
,,,,,,1,0,pic/flanker5.png,pic/flanker3.png,a,l,pic/AffRest1.png,,,,,,,,,,,,,,,,,,,,,,,,,0,0,0,0,0,18,18,7,,,,598.8894247999999,None,597.7061776,598.9067603999999,a,1,闷热,l,1,0.6841091999999662,0.3983256999999867,xmy,m,22,2024_Apr_11_1536,mian,2021.2.3,60.026027285428036,
,,,,,,0,1,pic/flanker5.png,pic/flanker1.png,s,k,pic/AffRest1.png,,,,,,,,,,,,,,,,,,,,,,,,,0,0,0,0,0,19,19,48,,,,602.0395771999999,None,600.8567338,602.0568261999999,s,1,豪放,k,1,1.276052199999981,0.38828269999999065,xmy,m,22,2024_Apr_11_1536,mian,2021.2.3,60.026027285428036,
,,,,,,0,1,pic/flanker6.png,pic/flanker2.png,a,k,pic/AffRest1.png,,,,,,,,,,,,,,,,,,,,,,,,,0,0,0,0,0,20,20,10,,,,605.6733074000001,None,604.4899868,605.6900296000001,a,1,前进,k,1,0.685765100000026,0.37674359999994067,xmy,m,22,2024_Apr_11_1536,mian,2021.2.3,60.026027285428036,
,,,,,,1,1,pic/flanker5.png,pic/flanker3.png,a,k,pic/AffRest1.png,,,,,,,,,,,,,,,,,,,,,,,,,0,0,0,0,0,21,21,76,,,,608.5733263,None,607.3899011000001,608.5899936999999,a,1,瑰丽,k,1,0.5670877000000019,0.4275354999999763,xmy,m,22,2024_Apr_11_1536,mian,2021.2.3,60.026027285428036,
,,,,,,1,0,pic/flanker5.png,pic/flanker3.png,a,l,pic/AffRest1.png,,,,,,,,,,,,,,,,,,,,,,,,,0,0,0,0,0,22,22,55,,,,611.4066818000001,None,610.2232555999999,611.4233789,a,1,失意,l,1,0.6446450999999342,0.43139819999998963,xmy,m,22,2024_Apr_11_1536,mian,2021.2.3,60.026027285428036,
,,,,,,0,1,pic/flanker6.png,pic/flanker2.png,a,k,pic/AffRest1.png,,,,,,,,,,,,,,,,,,,,,,,,,0,0,0,0,0,23,23,66,,,,614.3067470000001,None,613.1232514999999,614.3232664,a,1,有利,k,1,0.6688647000000856,0.4032941000000392,xmy,m,22,2024_Apr_11_1536,mian,2021.2.3,60.026027285428036,
,,,,,,1,0,pic/flanker6.png,pic/flanker4.png,s,l,pic/AffRest1.png,,,,,,,,,,,,,,,,,,,,,,,,,0,0,0,0,0,24,24,29,,,,617.3899472999999,None,616.2066145000001,617.4066049999999,s,1,怀疑,l,1,0.8927551000000449,0.4365968999999268,xmy,m,22,2024_Apr_11_1536,mian,2021.2.3,60.026027285428036,
,,,,,,1,1,pic/flanker6.png,pic/flanker4.png,s,k,pic/AffRest1.png,,,,,,,,,,,,,,,,,,,,,,,,,0,0,0,0,0,25,25,78,,,,620.6733872,None,619.4898703000001,620.6900201999999,s,1,生动,k,1,0.6070971999999983,0.4879039999999577,xmy,m,22,2024_Apr_11_1536,mian,2021.2.3,60.026027285428036,
,,,,,,0,0,pic/flanker6.png,pic/flanker2.png,a,l,pic/AffRest1.png,,,,,,,,,,,,,,,,,,,,,,,,,0,0,0,0,0,26,26,17,,,,623.6900217,None,622.5066400999999,623.7068022000001,a,1,轻率,l,1,0.7047248000000081,0.4131742999999233,xmy,m,22,2024_Apr_11_1536,mian,2021.2.3,60.026027285428036,
,,,,,,1,1,pic/flanker5.png,pic/flanker3.png,a,k,pic/AffRest1.png,,,,,,,,,,,,,,,,,,,,,,,,,0,0,0,0,0,27,27,28,,,,626.8564872,None,625.6733022000001,626.8733104,a,1,清秀,k,1,0.5893136999999342,0.47773019999999633,xmy,m,22,2024_Apr_11_1536,mian,2021.2.3,60.026027285428036,
,,,,,,1,0,pic/flanker6.png,pic/flanker4.png,s,l,pic/AffRest1.png,,,,,,,,,,,,,,,,,,,,,,,,,0,0,0,0,0,28,28,37,,,,629.7900128000001,None,628.6065430000001,629.8066598,s,1,嘲笑,l,1,0.6029758000000811,0.4411959000000252,xmy,m,22,2024_Apr_11_1536,mian,2021.2.3,60.026027285428036,
,,,,,,0,0,pic/flanker6.png,pic/flanker2.png,a,l,pic/AffRest1.png,,,,,,,,,,,,,,,,,,,,,,,,,0,0,0,0,0,29,29,33,,,,632.8394952000001,None,631.6559632999999,632.8561234000001,a,1,黑暗,l,1,0.5197898000000123,0.3985113999999612,xmy,m,22,2024_Apr_11_1536,mian,2021.2.3,60.026027285428036,
,,,,,,0,1,pic/flanker6.png,pic/flanker2.png,a,k,pic/AffRest1.png,,,,,,,,,,,,,,,,,,,,,,,,,0,0,0,0,0,30,30,42,,,,635.6393333999999,None,634.4567248999999,635.6561512999999,a,1,享受,k,1,0.5533597999999529,0.39113479999991796,xmy,m,22,2024_Apr_11_1536,mian,2021.2.3,60.026027285428036,
,,,,,,1,0,pic/flanker6.png,pic/flanker4.png,s,l,pic/AffRest1.png,,,,,,,,,,,,,,,,,,,,,,,,,0,0,0,0,0,31,31,5,,,,638.4235481000001,None,637.2394340000001,638.4401736,s,1,郁闷,l,1,0.7654129000000012,0.41025009999998474,xmy,m,22,2024_Apr_11_1536,mian,2021.2.3,60.026027285428036,
,,,,,,1,1,pic/flanker6.png,pic/flanker4.png,s,k,pic/AffRest1.png,,,,,,,,,,,,,,,,,,,,,,,,,0,0,0,0,0,32,32,46,,,,641.6060671,None,640.4235334,641.6227162,s,1,顽强,k,1,0.8835302999999612,0.4681644999999435,xmy,m,22,2024_Apr_11_1536,mian,2021.2.3,60.026027285428036,
,,,,,,1,1,pic/flanker5.png,pic/flanker3.png,a,k,pic/AffRest1.png,,,,,,,,,,,,,,,,,,,,,,,,,0,0,0,0,0,33,33,12,,,,644.9899955999999,None,643.8063827000001,645.0066678000001,a,1,旺盛,k,1,0.565505900000062,0.4651066000000128,xmy,m,22,2024_Apr_11_1536,mian,2021.2.3,60.026027285428036,
,,,,,,0,0,pic/flanker6.png,pic/flanker2.png,a,l,pic/AffRest1.png,,,,,,,,,,,,,,,,,,,,,,,,,0,0,0,0,0,34,34,25,,,,648.0067415000001,None,646.8232035000001,648.023434,a,1,逃避,l,1,0.5873617999999396,0.43574439999997594,xmy,m,22,2024_Apr_11_1536,mian,2021.2.3,60.026027285428036,
,,,,,,1,1,pic/flanker5.png,pic/flanker3.png,a,k,pic/AffRest1.png,,,,,,,,,,,,,,,,,,,,,,,,,0,0,0,0,0,35,35,36,,,,651.0562514000001,None,649.8734383999999,651.0728681999999,a,1,俊秀,k,1,0.5760515999999143,0.5939911000000393,xmy,m,22,2024_Apr_11_1536,mian,2021.2.3,60.026027285428036,
,,,,,,1,0,pic/flanker6.png,pic/flanker4.png,s,l,pic/AffRest1.png,,,,,,,,,,,,,,,,,,,,,,,,,0,0,0,0,0,36,36,77,,,,654.123351,None,652.9401368000001,654.1394654000001,s,1,缺乏,l,1,0.6865810000000465,0.42599459999996725,xmy,m,22,2024_Apr_11_1536,mian,2021.2.3,60.026027285428036,
,,,,,,1,0,pic/flanker5.png,pic/flanker3.png,a,l,pic/AffRest1.png,,,,,,,,,,,,,,,,,,,,,,,,,0,0,0,0,0,37,37,15,,,,657.156716,None,655.9733481000001,657.1734102,a,1,落后,l,1,0.669394699999998,0.47422449999999117,xmy,m,22,2024_Apr_11_1536,mian,2021.2.3,60.026027285428036,
,,,,,,1,1,pic/flanker5.png,pic/flanker3.png,a,k,pic/AffRest1.png,,,,,,,,,,,,,,,,,,,,,,,,,0,0,0,0,0,38,38,60,,,,660.3394085,None,659.1565555,660.3560468000001,a,1,吉祥,k,1,0.5437566000000515,0.50836060000006,xmy,m,22,2024_Apr_11_1536,mian,2021.2.3,60.026027285428036,
,,,,,,0,1,pic/flanker5.png,pic/flanker1.png,s,k,pic/AffRest1.png,,,,,,,,,,,,,,,,,,,,,,,,,0,0,0,0,0,39,39,24,,,,663.3068003000001,None,662.1232043,663.3234436,s,1,圣洁,k,1,0.6085458000000017,0.38486839999995937,xmy,m,22,2024_Apr_11_1536,mian,2021.2.3,60.026027285428036,
,,,,,,1,0,pic/flanker5.png,pic/flanker3.png,a,l,pic/AffRest1.png,,,,,,,,,,,,,,,,,,,,,,,,,0,0,0,0,0,40,40,79,,,,666.3401478000001,None,665.1567379999999,666.3567323,a,1,伤心,l,1,0.5767020000000684,0.4571854999999232,xmy,m,22,2024_Apr_11_1536,mian,2021.2.3,60.026027285428036,
,,,,,,0,0,pic/flanker5.png,pic/flanker1.png,s,l,pic/AffRest1.png,,,,,,,,,,,,,,,,,,,,,,,,,0,0,0,0,0,41,41,67,,,,669.3401841,None,668.1566952000001,669.3567327999999,s,1,心慌,l,1,0.5948597999999947,0.35004140000000916,xmy,m,22,2024_Apr_11_1536,mian,2021.2.3,60.026027285428036,
,,,,,,0,0,pic/flanker6.png,pic/flanker2.png,a,l,pic/AffRest1.png,,,,,,,,,,,,,,,,,,,,,,,,,0,0,0,0,0,42,42,41,,,,672.1400140999999,None,670.9566324,672.1566574000001,a,1,处罚,l,1,0.70606429999998,0.36599420000004557,xmy,m,22,2024_Apr_11_1536,mian,2021.2.3,60.026027285428036,
,,,,,,1,0,pic/flanker5.png,pic/flanker3.png,a,l,pic/AffRest1.png,,,,,,,,,,,,,,,,,,,,,,,,,0,0,0,0,0,43,43,71,,,,675.1733471,None,673.9900279999999,675.1900091,a,1,烦恼,l,1,0.6853492000000188,0.5426391999999396,xmy,m,22,2024_Apr_11_1536,mian,2021.2.3,60.026027285428036,
,,,,,,1,0,pic/flanker5.png,pic/flanker3.png,a,l,pic/AffRest1.png,,,,,,,,,,,,,,,,,,,,,,,,,0,0,0,0,0,44,44,63,,,,678.2567921,None,677.0734084999999,678.273459,a,1,罚款,l,1,0.7123209000000088,0.5290937000000895,xmy,m,22,2024_Apr_11_1536,mian,2021.2.3,60.026027285428036,
,,,,,,0,1,pic/flanker5.png,pic/flanker1.png,s,k,pic/AffRest1.png,,,,,,,,,,,,,,,,,,,,,,,,,0,0,0,0,0,45,45,72,,,,681.5567265,None,680.3731169,681.5734216999999,s,1,赞成,k,1,0.6045953999999938,0.3876133999999638,xmy,m,22,2024_Apr_11_1536,mian,2021.2.3,60.026027285428036,
,,,,,,1,1,pic/flanker6.png,pic/flanker4.png,s,k,pic/AffRest1.png,,,,,,,,,,,,,,,,,,,,,,,,,0,0,0,0,0,46,46,62,,,,684.4400998000001,None,683.2567131999999,684.4568131999999,s,1,富丽,k,1,0.9674318999999514,0.5128280000000132,xmy,m,22,2024_Apr_11_1536,mian,2021.2.3,60.026027285428036,
,,,,,,0,1,pic/flanker6.png,pic/flanker2.png,a,k,pic/AffRest1.png,,,,,,,,,,,,,,,,,,,,,,,,,0,0,0,0,0,47,47,74,,,,687.8401343999999,None,686.6567087999999,687.8566194,a,1,精致,k,1,0.5643196000000898,0.33563489999994545,xmy,m,22,2024_Apr_11_1536,mian,2021.2.3,60.026027285428036,
,,,,,,0,0,pic/flanker6.png,pic/flanker2.png,a,l,pic/AffRest1.png,,,,,,,,,,,,,,,,,,,,,,,,,0,0,0,0,0,48,48,1,,,,690.6901292,None,689.5068593000001,690.7068353,a,1,鲁莽,l,1,0.6496110999999019,0.3514609000000064,xmy,m,22,2024_Apr_11_1536,mian,2021.2.3,60.026027285428036,
,,,,,,0,0,pic/flanker5.png,pic/flanker1.png,s,l,pic/AffRest1.png,,,,,,,,,,,,,,,,,,,,,,,,,0,0,0,0,0,49,49,3,,,,693.6567032,None,692.47333,693.6734710999999,s,1,堵塞,l,1,0.5957747999999583,0.37665240000001177,xmy,m,22,2024_Apr_11_1536,mian,2021.2.3,60.026027285428036,
,,,,,,0,0,pic/flanker6.png,pic/flanker2.png,a,l,pic/AffRest1.png,,,,,,,,,,,,,,,,,,,,,,,,,0,0,0,0,0,50,50,49,,,,696.5401519,None,695.3567406,696.5566498000001,a,1,自卑,l,1,0.5850691000000552,0.3325663999999051,xmy,m,22,2024_Apr_11_1536,mian,2021.2.3,60.026027285428036,
,,,,,,0,0,pic/flanker6.png,pic/flanker2.png,a,l,pic/AffRest1.png,,,,,,,,,,,,,,,,,,,,,,,,,0,0,0,0,0,51,51,9,,,,699.4067958999999,None,698.2234822,699.4233595000001,a,1,冷笑,l,1,0.5398784999999862,0.36846890000003896,xmy,m,22,2024_Apr_11_1536,mian,2021.2.3,60.026027285428036,
,,,,,,1,0,pic/flanker5.png,pic/flanker3.png,a,l,pic/AffRest1.png,,,,,,,,,,,,,,,,,,,,,,,,,0,0,0,0,0,52,52,47,,,,702.323423,None,701.1401125,702.3401289000001,a,1,焦躁,l,1,0.9536488999999619,0.4716913999999406,xmy,m,22,2024_Apr_11_1536,mian,2021.2.3,60.026027285428036,
,,,,,,0,1,pic/flanker6.png,pic/flanker2.png,a,k,pic/AffRest1.png,,,,,,,,,,,,,,,,,,,,,,,,,0,0,0,0,0,53,53,26,,,,705.7401508,None,704.5568731000001,705.756858,a,1,爽朗,k,1,0.5822440000000597,0.406804999999963,xmy,m,22,2024_Apr_11_1536,mian,2021.2.3,60.026027285428036,
,,,,,,0,0,pic/flanker5.png,pic/flanker1.png,s,l,pic/AffRest1.png,,,,,,,,,,,,,,,,,,,,,,,,,0,0,0,0,0,54,54,35,,,,708.8068387999999,None,707.6235012,708.8234397000001,s,1,慌忙,l,1,0.5788548000000446,0.3353488999999854,xmy,m,22,2024_Apr_11_1536,mian,2021.2.3,60.026027285428036,
,,,,,,1,1,pic/flanker5.png,pic/flanker3.png,a,k,pic/AffRest1.png,,,,,,,,,,,,,,,,,,,,,,,,,0,0,0,0,0,55,55,52,,,,711.6234445,None,710.4391224999999,711.64012,a,1,丰满,k,1,0.8507087000000411,0.392585199999985,xmy,m,22,2024_Apr_11_1536,mian,2021.2.3,60.026027285428036,
,,,,,,0,1,pic/flanker6.png,pic/flanker2.png,a,k,pic/AffRest1.png,,,,,,,,,,,,,,,,,,,,,,,,,0,0,0,0,0,56,56,18,,,,714.8069121000001,None,713.6232901000001,714.8235935,a,1,富足,k,1,0.5749356000000034,0.32389839999996184,xmy,m,22,2024_Apr_11_1536,mian,2021.2.3,60.026027285428036,
,,,,,,0,0,pic/flanker5.png,pic/flanker1.png,s,l,pic/AffRest1.png,,,,,,,,,,,,,,,,,,,,,,,,,0,0,0,0,0,57,57,11,,,,717.5732760999999,None,716.3915852,717.6068471000001,s,1,胡涂,l,1,0.49478429999999207,0.3542380000000094,xmy,m,22,2024_Apr_11_1536,mian,2021.2.3,60.026027285428036,
,,,,,,1,1,pic/flanker6.png,pic/flanker4.png,s,k,pic/AffRest1.png,,,,,,,,,,,,,,,,,,,,,,,,,0,0,0,0,0,58,58,22,,,,720.3736165,None,719.189991,720.3902854,s,1,优雅,k,1,0.7124337999999852,0.5844464000000471,xmy,m,22,2024_Apr_11_1536,mian,2021.2.3,60.026027285428036,
,,,,,,1,1,pic/flanker6.png,pic/flanker4.png,s,k,pic/AffRest1.png,,,,,,,,,,,,,,,,,,,,,,,,,0,0,0,0,0,59,59,14,,,,723.6067046999999,None,722.4234504000001,723.6234125000001,s,1,雄厚,k,1,0.6748483000000078,0.4600176000000147,xmy,m,22,2024_Apr_11_1536,mian,2021.2.3,60.026027285428036,
,,,,,,0,1,pic/flanker5.png,pic/flanker1.png,s,k,pic/AffRest1.png,,,,,,,,,,,,,,,,,,,,,,,,,0,0,0,0,0,60,60,56,,,,726.7900486000001,None,725.6068035000001,726.8067349,s,1,廉洁,k,1,0.6847669999999653,0.3854034999999385,xmy,m,22,2024_Apr_11_1536,mian,2021.2.3,60.026027285428036,
,,,,,,0,1,pic/flanker5.png,pic/flanker1.png,s,k,pic/AffRest1.png,,,,,,,,,,,,,,,,,,,,,,,,,0,0,0,0,0,61,61,16,,,,729.7735906,None,728.5900816000001,729.7902753999999,s,1,敬佩,k,1,0.5409467000000632,0.38723400000003494,xmy,m,22,2024_Apr_11_1536,mian,2021.2.3,60.026027285428036,
,,,,,,0,0,pic/flanker6.png,pic/flanker2.png,a,l,pic/AffRest1.png,,,,,,,,,,,,,,,,,,,,,,,,,0,0,0,0,0,62,62,57,,,,732.7402935,None,731.5569330999999,732.7569785000001,a,1,悲观,l,1,0.5623309999999719,0.376071799999977,xmy,m,22,2024_Apr_11_1536,mian,2021.2.3,60.026027285428036,
,,,,,,0,1,pic/flanker5.png,pic/flanker1.png,s,k,pic/AffRest1.png,,,,,,,,,,,,,,,,,,,,,,,,,0,0,0,0,0,63,63,32,,,,735.6401464,None,734.4568214999999,735.6568087,s,1,畅销,k,1,0.6017838000000211,0.4147609999999986,xmy,m,22,2024_Apr_11_1536,mian,2021.2.3,60.026027285428036,
,,,,,,0,1,pic/flanker5.png,pic/flanker1.png,s,k,pic/AffRest1.png,,,,,,,,,,,,,,,,,,,,,,,,,0,0,0,0,0,64,64,8,,,,738.6900991,None,737.5067294,738.7067768,s,1,羡慕,k,1,0.5760132999999996,0.3697285999999167,xmy,m,22,2024_Apr_11_1536,mian,2021.2.3,60.026027285428036,
,,,,,,1,1,pic/flanker5.png,pic/flanker3.png,a,k,pic/AffRest1.png,,,,,,,,,,,,,,,,,,,,,,,,,0,0,0,0,0,65,65,68,,,,741.5234519999999,None,740.3403421999999,741.5402108999999,a,1,珍藏,k,1,0.5101958999999852,0.40585699999996905,xmy,m,22,2024_Apr_11_1536,mian,2021.2.3,60.026027285428036,
,,,,,,1,1,pic/flanker5.png,pic/flanker3.png,a,k,pic/AffRest1.png,,,,,,,,,,,,,,,,,,,,,,,,,0,0,0,0,0,66,66,20,,,,744.456815,None,743.2733396000001,744.4735668999999,a,1,如愿,k,1,0.49862980000000334,0.48629809999999907,xmy,m,22,2024_Apr_11_1536,mian,2021.2.3,60.026027285428036,
,,,,,,1,0,pic/flanker5.png,pic/flanker3.png,a,l,pic/AffRest1.png,,,,,,,,,,,,,,,,,,,,,,,,,0,0,0,0,0,67,67,31,,,,747.3231932000001,None,746.1401596999999,747.3399314000001,a,1,孤单,l,1,0.5408423999999741,0.4417320000000018,xmy,m,22,2024_Apr_11_1536,mian,2021.2.3,60.026027285428036,
,,,,,,1,1,pic/flanker6.png,pic/flanker4.png,s,k,pic/AffRest1.png,,,,,,,,,,,,,,,,,,,,,,,,,0,0,0,0,0,68,68,30,,,,750.1895910000001,None,749.0066294999999,750.206158,s,1,奉献,k,1,0.7861484999999675,0.4564404000000195,xmy,m,22,2024_Apr_11_1536,mian,2021.2.3,60.026027285428036,
,,,,,,0,1,pic/flanker5.png,pic/flanker1.png,s,k,pic/AffRest1.png,,,,,,,,,,,,,,,,,,,,,,,,,0,0,0,0,0,69,69,0,,,,753.4901593,None,752.3067072000001,753.5067207,s,1,诚恳,k,1,0.6695250999999871,0.4453254999999672,xmy,m,22,2024_Apr_11_1536,mian,2021.2.3,60.026027285428036,
,,,,,,0,1,pic/flanker5.png,pic/flanker1.png,s,k,pic/AffRest1.png,,,,,,,,,,,,,,,,,,,,,,,,,0,0,0,0,0,70,70,40,,,,756.5565380999999,None,755.3733296,756.5733387,s,1,充裕,k,1,0.5293331999999964,0.4467651999999589,xmy,m,22,2024_Apr_11_1536,mian,2021.2.3,60.026027285428036,
,,,,,,0,1,pic/flanker6.png,pic/flanker2.png,a,k,pic/AffRest1.png,,,,,,,,,,,,,,,,,,,,,,,,,0,0,0,0,0,71,71,58,,,,759.5401483,None,758.3567802,759.5566285,a,1,公平,k,1,0.5535782000000609,0.37789310000005116,xmy,m,22,2024_Apr_11_1536,mian,2021.2.3,60.026027285428036,
,,,,,,1,0,pic/flanker6.png,pic/flanker4.png,s,l,pic/AffRest1.png,,,,,,,,,,,,,,,,,,,,,,,,,0,0,0,0,0,72,72,61,,,,762.4567836000001,None,761.2734184000001,762.4735069000001,s,1,厌恶,l,1,0.576219100000003,0.4166499999998905,xmy,m,22,2024_Apr_11_1536,mian,2021.2.3,60.026027285428036,
,,,,,,1,1,pic/flanker6.png,pic/flanker4.png,s,k,pic/AffRest1.png,,,,,,,,,,,,,,,,,,,,,,,,,0,0,0,0,0,73,73,54,,,,765.4902551,None,764.3067140999999,765.5069201000001,s,1,热切,k,1,0.6909618999999338,0.4327154000000064,xmy,m,22,2024_Apr_11_1536,mian,2021.2.3,60.026027285428036,
,,,,,,0,1,pic/flanker6.png,pic/flanker2.png,a,k,pic/AffRest1.png,,,,,,,,,,,,,,,,,,,,,,,,,0,0,0,0,0,74,74,2,,,,768.5401465,None,767.3568468999999,768.5563574,a,1,典雅,k,1,0.8853655000000344,0.38313029999994797,xmy,m,22,2024_Apr_11_1536,mian,2021.2.3,60.026027285428036,
,,,,,,1,1,pic/flanker6.png,pic/flanker4.png,s,k,pic/AffRest1.png,,,,,,,,,,,,,,,,,,,,,,,,,0,0,0,0,0,75,75,6,,,,771.6731618000001,None,770.4898562000001,771.6897558000001,s,1,永恒,k,1,0.8637244999999893,0.4065357000000631,xmy,m,22,2024_Apr_11_1536,mian,2021.2.3,60.026027285428036,
,,,,,,0,1,pic/flanker6.png,pic/flanker2.png,a,k,pic/AffRest1.png,,,,,,,,,,,,,,,,,,,,,,,,,0,0,0,0,0,76,76,34,,,,774.8234353,None,773.6402092999999,774.8402097999999,a,1,秀丽,k,1,0.8358577999999852,0.42394579999995585,xmy,m,22,2024_Apr_11_1536,mian,2021.2.3,60.026027285428036,
,,,,,,1,1,pic/flanker6.png,pic/flanker4.png,s,k,pic/AffRest1.png,,,,,,,,,,,,,,,,,,,,,,,,,0,0,0,0,0,77,77,70,,,,778.0897593,None,776.9068746,778.1064054999999,s,1,正直,k,1,1.8784483000000591,0.4191891000000396,xmy,m,22,2024_Apr_11_1536,mian,2021.2.3,60.026027285428036,
,,,,,,0,0,pic/flanker5.png,pic/flanker1.png,s,l,pic/AffRest1.png,,,,,,,,,,,,,,,,,,,,,,,,,0,0,0,0,0,78,78,19,,,,782.4236507999999,None,781.2401113999999,782.4403331000001,s,1,争吵,l,1,0.6932869999999411,0.4647700000000441,xmy,m,22,2024_Apr_11_1536,mian,2021.2.3,60.026027285428036,
,,,,,,1,0,pic/flanker6.png,pic/flanker4.png,s,l,pic/AffRest1.png,,,,,,,,,,,,,,,,,,,,,,,,,0,0,0,0,0,79,79,69,,,,785.5402357,None,784.3568602,785.556785,s,1,别扭,k,0,0.8695047999999588,0.45129469999994853,xmy,m,22,2024_Apr_11_1536,mian,2021.2.3,60.026027285428036,
,,,,,,,,,,,,pic/AffRest1.png,,,,,,,,,,,,,,,,,,,,,,,,,0,0,0,0,,,,,,,,,,,,,,,,,,,xmy,m,22,2024_Apr_11_1536,mian,2021.2.3,60.026027285428036,
,,,,,,0,0,pic/flanker6.png,pic/flanker2.png,a,l,pic/AffRest2.png,,,,,,,,,,,,,,,,,,,,,,,,,0,1,1,1,0,0,0,9,,,,813.2562539999999,None,812.0641912000001,813.273557,a,1,伤心,l,1,0.6794290000000274,0.5314108000000033,xmy,m,22,2024_Apr_11_1536,mian,2021.2.3,60.026027285428036,
,,,,,,0,1,pic/flanker6.png,pic/flanker2.png,a,k,pic/AffRest2.png,,,,,,,,,,,,,,,,,,,,,,,,,0,1,1,1,0,1,1,10,,,,816.4068698000001,None,815.2234373000001,816.4235490000001,a,1,珍藏,k,1,0.7472633999999516,0.38703850000001694,xmy,m,22,2024_Apr_11_1536,mian,2021.2.3,60.026027285428036,
,,,,,,0,0,pic/flanker5.png,pic/flanker1.png,s,l,pic/AffRest2.png,,,,,,,,,,,,,,,,,,,,,,,,,0,1,1,1,0,2,2,27,,,,819.5235577000001,None,818.3401567000001,819.5402065000001,s,1,丢失,l,1,0.593782899999951,0.3443712000000687,xmy,m,22,2024_Apr_11_1536,mian,2021.2.3,60.026027285428036,
,,,,,,0,0,pic/flanker6.png,pic/flanker2.png,a,l,pic/AffRest2.png,,,,,,,,,,,,,,,,,,,,,,,,,0,1,1,1,0,3,3,33,,,,822.4234425,None,821.2401742,822.4401304,a,1,杂乱,l,1,0.586604100000045,0.36943780000001425,xmy,m,22,2024_Apr_11_1536,mian,2021.2.3,60.026027285428036,
,,,,,,1,0,pic/flanker5.png,pic/flanker3.png,a,l,pic/AffRest2.png,,,,,,,,,,,,,,,,,,,,,,,,,0,1,1,1,0,4,4,39,,,,825.3228916999999,None,824.1397426999999,825.3393884,a,1,鲁莽,l,1,0.5499439999999822,0.47574919999999565,xmy,m,22,2024_Apr_11_1536,mian,2021.2.3,60.026027285428036,
,,,,,,0,0,pic/flanker5.png,pic/flanker1.png,s,l,pic/AffRest2.png,,,,,,,,,,,,,,,,,,,,,,,,,0,1,1,1,0,5,5,35,,,,828.3233378,None,827.1395097,828.3400265,s,1,缺乏,l,1,0.4728086999999732,0.37088519999997516,xmy,m,22,2024_Apr_11_1536,mian,2021.2.3,60.026027285428036,
,,,,,,0,0,pic/flanker6.png,pic/flanker2.png,a,l,pic/AffRest2.png,,,,,,,,,,,,,,,,,,,,,,,,,0,1,1,1,0,6,6,17,,,,831.1062901,None,829.9235779,831.1231379000001,a,1,懒惰,l,1,0.5477706000000353,0.5315864000000374,xmy,m,22,2024_Apr_11_1536,mian,2021.2.3,60.026027285428036,
,,,,,,0,1,pic/flanker5.png,pic/flanker1.png,s,k,pic/AffRest2.png,,,,,,,,,,,,,,,,,,,,,,,,,0,1,1,1,0,7,7,32,,,,834.1401347999999,None,832.9562238999999,834.1562421000001,s,1,卓越,k,1,0.712253799999985,0.36249710000004143,xmy,m,22,2024_Apr_11_1536,mian,2021.2.3,60.026027285428036,
,,,,,,0,1,pic/flanker5.png,pic/flanker1.png,s,k,pic/AffRest2.png,,,,,,,,,,,,,,,,,,,,,,,,,0,1,1,1,0,8,8,0,,,,837.1903431000001,None,836.0062299000001,837.2066675000001,s,1,奉献,k,1,0.5733801999999741,0.4055946999999378,xmy,m,22,2024_Apr_11_1536,mian,2021.2.3,60.026027285428036,
,,,,,,1,1,pic/flanker5.png,pic/flanker3.png,a,k,pic/AffRest2.png,,,,,,,,,,,,,,,,,,,,,,,,,0,1,1,1,0,9,9,20,,,,840.0068348,None,838.8234119000001,840.0234344999999,a,1,廉洁,k,1,0.5665738999999803,0.4003808999999592,xmy,m,22,2024_Apr_11_1536,mian,2021.2.3,60.026027285428036,
,,,,,,1,1,pic/flanker5.png,pic/flanker3.png,a,k,pic/AffRest2.png,,,,,,,,,,,,,,,,,,,,,,,,,0,1,1,1,0,10,10,12,,,,842.9394399,None,841.7568226999999,842.9561553000001,a,1,俊秀,k,1,0.7814460000000736,0.5794909999999618,xmy,m,22,2024_Apr_11_1536,mian,2021.2.3,60.026027285428036,
,,,,,,1,0,pic/flanker5.png,pic/flanker3.png,a,l,pic/AffRest2.png,,,,,,,,,,,,,,,,,,,,,,,,,0,1,1,1,0,11,11,23,,,,846.1734940000001,None,844.9901397000001,846.1900739,a,1,胡涂,l,1,0.580662899999993,0.5251943999999185,xmy,m,22,2024_Apr_11_1536,mian,2021.2.3,60.026027285428036,
,,,,,,1,0,pic/flanker5.png,pic/flanker3.png,a,l,pic/AffRest2.png,,,,,,,,,,,,,,,,,,,,,,,,,0,1,1,1,0,12,12,79,,,,849.1734035,None,847.9895262,849.1900338,a,1,自卑,l,1,0.6215823,0.4934688000000733,xmy,m,22,2024_Apr_11_1536,mian,2021.2.3,60.026027285428036,
,,,,,,1,1,pic/flanker5.png,pic/flanker3.png,a,k,pic/AffRest2.png,,,,,,,,,,,,,,,,,,,,,,,,,0,1,1,1,0,13,13,4,,,,852.1568189,None,850.9735066999999,852.1736082,a,1,羡慕,k,1,0.5116795000000138,0.4074155000000701,xmy,m,22,2024_Apr_11_1536,mian,2021.2.3,60.026027285428036,
,,,,,,1,1,pic/flanker6.png,pic/flanker4.png,s,k,pic/AffRest2.png,,,,,,,,,,,,,,,,,,,,,,,,,0,1,1,1,0,14,14,54,,,,855.0901151999999,None,853.9061907,855.1068823999999,s,1,诚恳,k,1,0.7278534000000718,0.4609959000000572,xmy,m,22,2024_Apr_11_1536,mian,2021.2.3,60.026027285428036,
,,,,,,0,1,pic/flanker5.png,pic/flanker1.png,s,k,pic/AffRest2.png,,,,,,,,,,,,,,,,,,,,,,,,,0,1,1,1,0,15,15,56,,,,858.2729291,None,857.0900766,858.2895290000001,s,1,畅销,k,1,0.6886693999999807,0.4322663000000375,xmy,m,22,2024_Apr_11_1536,mian,2021.2.3,60.026027285428036,
,,,,,,1,1,pic/flanker6.png,pic/flanker4.png,s,k,pic/AffRest2.png,,,,,,,,,,,,,,,,,,,,,,,,,0,1,1,1,0,16,16,6,,,,861.4060919000001,None,860.2233049000001,861.4228175000001,s,1,旺盛,k,1,0.52492129999996,0.48277490000009493,xmy,m,22,2024_Apr_11_1536,mian,2021.2.3,60.026027285428036,
,,,,,,1,0,pic/flanker6.png,pic/flanker4.png,s,l,pic/AffRest2.png,,,,,,,,,,,,,,,,,,,,,,,,,0,1,1,1,0,17,17,29,,,,864.3229721,None,863.1400677000001,864.3396285000001,s,1,罚款,l,1,0.4930844000000434,0.4725922999998602,xmy,m,22,2024_Apr_11_1536,mian,2021.2.3,60.026027285428036,
,,,,,,0,0,pic/flanker6.png,pic/flanker2.png,a,l,pic/AffRest2.png,,,,,,,,,,,,,,,,,,,,,,,,,0,1,1,1,0,18,18,41,,,,867.1902115,None,866.0066757,867.2068184,a,1,冷笑,l,1,0.7323482000001604,0.48156059999996614,xmy,m,22,2024_Apr_11_1536,mian,2021.2.3,60.026027285428036,
,,,,,,1,0,pic/flanker6.png,pic/flanker4.png,s,l,pic/AffRest2.png,,,,,,,,,,,,,,,,,,,,,,,,,0,1,1,1,0,19,19,77,,,,870.2236201000001,None,869.0402269000001,870.2402241,s,1,逃避,l,1,0.649400999999898,0.44473500000003696,xmy,m,22,2024_Apr_11_1536,mian,2021.2.3,60.026027285428036,
,,,,,,0,0,pic/flanker5.png,pic/flanker1.png,s,l,pic/AffRest2.png,,,,,,,,,,,,,,,,,,,,,,,,,0,1,1,1,0,20,20,51,,,,873.3070271000001,None,872.1236021,873.3235929,s,1,怀疑,l,1,0.8673604999999043,0.40955060000010235,xmy,m,22,2024_Apr_11_1536,mian,2021.2.3,60.026027285428036,
,,,,,,1,0,pic/flanker6.png,pic/flanker4.png,s,l,pic/AffRest2.png,,,,,,,,,,,,,,,,,,,,,,,,,0,1,1,1,0,21,21,13,,,,876.4402553,None,875.2568740000002,876.4569244000002,s,1,失意,l,1,0.7921148000000358,0.4472776000000067,xmy,m,22,2024_Apr_11_1536,mian,2021.2.3,60.026027285428036,
,,,,,,0,0,pic/flanker5.png,pic/flanker1.png,s,l,pic/AffRest2.png,,,,,,,,,,,,,,,,,,,,,,,,,0,1,1,1,0,22,22,43,,,,879.5235562,None,878.3402649,879.5402054000001,s,1,沮丧,l,1,0.49866560000009486,0.38451499999996486,xmy,m,22,2024_Apr_11_1536,mian,2021.2.3,60.026027285428036,
,,,,,,0,1,pic/flanker6.png,pic/flanker2.png,a,k,pic/AffRest2.png,,,,,,,,,,,,,,,,,,,,,,,,,0,1,1,1,0,23,23,66,,,,882.2403617,None,881.0569858000001,882.2569528000001,a,1,秀丽,k,1,0.41813569999999345,0.3493344999999408,xmy,m,22,2024_Apr_11_1536,mian,2021.2.3,60.026027285428036,
,,,,,,0,0,pic/flanker5.png,pic/flanker1.png,s,l,pic/AffRest2.png,,,,,,,,,,,,,,,,,,,,,,,,,0,1,1,1,0,24,24,67,,,,884.8901523,None,883.7069007,884.9068618000001,s,1,孤单,l,1,0.5206223999998656,0.354388500000141,xmy,m,22,2024_Apr_11_1536,mian,2021.2.3,60.026027285428036,
,,,,,,0,0,pic/flanker5.png,pic/flanker1.png,s,l,pic/AffRest2.png,,,,,,,,,,,,,,,,,,,,,,,,,0,1,1,1,0,25,25,3,,,,887.7069597,None,886.5235572000001,887.7236841000001,s,1,假冒,l,1,0.6156106999999338,0.39707849999990685,xmy,m,22,2024_Apr_11_1536,mian,2021.2.3,60.026027285428036,
,,,,,,0,0,pic/flanker6.png,pic/flanker2.png,a,l,pic/AffRest2.png,,,,,,,,,,,,,,,,,,,,,,,,,0,1,1,1,0,26,26,73,,,,890.7062186,None,889.5233844000002,890.7234766000001,a,1,排斥,l,1,0.4779200000000401,0.3319728999999825,xmy,m,22,2024_Apr_11_1536,mian,2021.2.3,60.026027285428036,
,,,,,,1,0,pic/flanker6.png,pic/flanker4.png,s,l,pic/AffRest2.png,,,,,,,,,,,,,,,,,,,,,,,,,0,1,1,1,0,27,27,37,,,,893.5402706,None,892.3568033000001,893.5570191000002,s,1,消沉,l,1,0.5141301999999541,0.4326803999999811,xmy,m,22,2024_Apr_11_1536,mian,2021.2.3,60.026027285428036,
,,,,,,1,0,pic/flanker5.png,pic/flanker3.png,a,l,pic/AffRest2.png,,,,,,,,,,,,,,,,,,,,,,,,,0,1,1,1,0,28,28,55,,,,896.5235779,None,895.3402465000001,896.5401848000001,a,1,郁闷,l,1,0.5383985000000848,0.3974450999999135,xmy,m,22,2024_Apr_11_1536,mian,2021.2.3,60.026027285428036,
,,,,,,0,1,pic/flanker5.png,pic/flanker1.png,s,k,pic/AffRest2.png,,,,,,,,,,,,,,,,,,,,,,,,,0,1,1,1,0,29,29,8,,,,899.4401795000001,None,898.2569425000002,899.456878,s,1,丰满,k,1,0.5300932000000103,0.3477761999999984,xmy,m,22,2024_Apr_11_1536,mian,2021.2.3,60.026027285428036,
,,,,,,0,1,pic/flanker5.png,pic/flanker1.png,s,k,pic/AffRest2.png,,,,,,,,,,,,,,,,,,,,,,,,,0,1,1,1,0,30,30,24,,,,902.3567776,None,901.1735326,902.3735157000001,s,1,爽朗,k,1,0.5872797999998056,0.401511199999959,xmy,m,22,2024_Apr_11_1536,mian,2021.2.3,60.026027285428036,
,,,,,,1,1,pic/flanker6.png,pic/flanker4.png,s,k,pic/AffRest2.png,,,,,,,,,,,,,,,,,,,,,,,,,0,1,1,1,0,31,31,62,,,,905.2735636,None,904.0903350000001,905.2902399,s,1,圣洁,k,1,0.46819589999995515,0.4555032000000665,xmy,m,22,2024_Apr_11_1536,mian,2021.2.3,60.026027285428036,
,,,,,,0,1,pic/flanker6.png,pic/flanker2.png,a,k,pic/AffRest2.png,,,,,,,,,,,,,,,,,,,,,,,,,0,1,1,1,0,32,32,50,,,,908.1402215,None,906.9569028000001,908.156921,a,1,顽强,l,0,0.43577479999999014,0.3934789999998429,xmy,m,22,2024_Apr_11_1536,mian,2021.2.3,60.026027285428036,
,,,,,,0,0,pic/flanker6.png,pic/flanker2.png,a,l,pic/AffRest2.png,,,,,,,,,,,,,,,,,,,,,,,,,0,1,1,1,0,33,33,49,,,,910.9233514,None,909.7398066000001,910.9400993000002,a,1,悲观,l,1,0.6858876000001146,0.4041614000000209,xmy,m,22,2024_Apr_11_1536,mian,2021.2.3,60.026027285428036,
,,,,,,0,1,pic/flanker5.png,pic/flanker1.png,s,k,pic/AffRest2.png,,,,,,,,,,,,,,,,,,,,,,,,,0,1,1,1,0,34,34,64,,,,913.8569487,None,912.6736325000002,913.8735676000001,s,1,公平,k,1,0.7610325000000557,0.3902855000001182,xmy,m,22,2024_Apr_11_1536,mian,2021.2.3,60.026027285428036,
,,,,,,1,1,pic/flanker6.png,pic/flanker4.png,s,k,pic/AffRest2.png,,,,,,,,,,,,,,,,,,,,,,,,,0,1,1,1,0,35,35,46,,,,917.0569527,None,915.8736025000001,917.0735558000001,s,1,赞成,k,1,0.5282280999999784,0.73774370000001,xmy,m,22,2024_Apr_11_1536,mian,2021.2.3,60.026027285428036,
,,,,,,0,0,pic/flanker5.png,pic/flanker1.png,s,l,pic/AffRest2.png,,,,,,,,,,,,,,,,,,,,,,,,,0,1,1,1,0,36,36,75,,,,920.3569907000001,None,919.1736224000001,920.3736157000001,s,1,心慌,l,1,0.9601526999999805,0.44764920000011443,xmy,m,22,2024_Apr_11_1536,mian,2021.2.3,60.026027285428036,
,,,,,,1,1,pic/flanker5.png,pic/flanker3.png,a,k,pic/AffRest2.png,,,,,,,,,,,,,,,,,,,,,,,,,0,1,1,1,0,37,37,36,,,,923.7404370000002,None,922.5569009000001,923.7570436000001,a,1,瑰丽,k,1,0.8240607999998701,0.48552159999985633,xmy,m,22,2024_Apr_11_1536,mian,2021.2.3,60.026027285428036,
,,,,,,0,1,pic/flanker6.png,pic/flanker2.png,a,k,pic/AffRest2.png,,,,,,,,,,,,,,,,,,,,,,,,,0,1,1,1,0,38,38,26,,,,927.1069492000001,None,925.9233380000001,927.1236185,a,1,正直,k,1,0.6083455999998932,0.39827339999988,xmy,m,22,2024_Apr_11_1536,mian,2021.2.3,60.026027285428036,
,,,,,,0,1,pic/flanker6.png,pic/flanker2.png,a,k,pic/AffRest2.png,,,,,,,,,,,,,,,,,,,,,,,,,0,1,1,1,0,39,39,42,,,,930.0568447,None,928.8736075000002,930.0734901000001,a,1,富足,k,1,0.5744449999999688,0.4729687000001377,xmy,m,22,2024_Apr_11_1536,mian,2021.2.3,60.026027285428036,
,,,,,,1,0,pic/flanker5.png,pic/flanker3.png,a,l,pic/AffRest2.png,,,,,,,,,,,,,,,,,,,,,,,,,0,1,1,1,0,40,40,63,,,,932.9571733,None,931.7736918,932.9737913000001,a,1,焦躁,l,1,0.9319316000000981,0.5366038999998182,xmy,m,22,2024_Apr_11_1536,mian,2021.2.3,60.026027285428036,
,,,,,,1,0,pic/flanker6.png,pic/flanker4.png,s,l,pic/AffRest2.png,,,,,,,,,,,,,,,,,,,,,,,,,0,1,1,1,0,41,41,69,,,,936.3402666000002,None,935.1569276,936.3569024000001,s,1,损害,l,1,0.704664399999956,0.6383574999999837,xmy,m,22,2024_Apr_11_1536,mian,2021.2.3,60.026027285428036,
,,,,,,0,1,pic/flanker6.png,pic/flanker2.png,a,k,pic/AffRest2.png,,,,,,,,,,,,,,,,,,,,,,,,,0,1,1,1,0,42,42,34,,,,939.5735621000001,None,938.3901515,939.5902450000001,a,1,热切,k,1,0.8529349000000366,0.447068199999876,xmy,m,22,2024_Apr_11_1536,mian,2021.2.3,60.026027285428036,
,,,,,,1,1,pic/flanker6.png,pic/flanker4.png,s,k,pic/AffRest2.png,,,,,,,,,,,,,,,,,,,,,,,,,0,1,1,1,0,43,43,14,,,,942.7736688,None,941.5898634,942.7902866000002,s,1,鲜艳,k,1,0.5666100000000824,0.5062388999999712,xmy,m,22,2024_Apr_11_1536,mian,2021.2.3,60.026027285428036,
,,,,,,1,1,pic/flanker5.png,pic/flanker3.png,a,k,pic/AffRest2.png,,,,,,,,,,,,,,,,,,,,,,,,,0,1,1,1,0,44,44,76,,,,945.7902265,None,944.6068433,945.8069928,a,1,豪放,k,1,0.5627332999999908,0.7363643000001048,xmy,m,22,2024_Apr_11_1536,mian,2021.2.3,60.026027285428036,
,,,,,,0,0,pic/flanker6.png,pic/flanker2.png,a,l,pic/AffRest2.png,,,,,,,,,,,,,,,,,,,,,,,,,0,1,1,1,0,45,45,1,,,,948.9736290000001,None,947.7902577,948.990264,a,1,黑暗,l,1,0.5410821999998916,0.5417182000001048,xmy,m,22,2024_Apr_11_1536,mian,2021.2.3,60.026027285428036,
,,,,,,0,1,pic/flanker5.png,pic/flanker1.png,s,k,pic/AffRest2.png,,,,,,,,,,,,,,,,,,,,,,,,,0,1,1,1,0,46,46,48,,,,951.9736275,None,950.7903040000001,951.9903715,s,1,典雅,k,1,0.6660997000001316,0.42701549999992494,xmy,m,22,2024_Apr_11_1536,mian,2021.2.3,60.026027285428036,
,,,,,,1,0,pic/flanker6.png,pic/flanker4.png,s,l,pic/AffRest2.png,,,,,,,,,,,,,,,,,,,,,,,,,0,1,1,1,0,47,47,21,,,,954.8904036000001,None,953.7071624,954.9069771000002,s,1,厌恶,l,1,0.6227304999999888,0.5412678000000142,xmy,m,22,2024_Apr_11_1536,mian,2021.2.3,60.026027285428036,
,,,,,,1,1,pic/flanker5.png,pic/flanker3.png,a,k,pic/AffRest2.png,,,,,,,,,,,,,,,,,,,,,,,,,0,1,1,1,0,48,48,28,,,,958.0403655,None,956.8570388,958.057018,a,1,吉祥,k,1,0.8022143999999116,0.5401108000000931,xmy,m,22,2024_Apr_11_1536,mian,2021.2.3,60.026027285428036,
,,,,,,1,0,pic/flanker5.png,pic/flanker3.png,a,l,pic/AffRest2.png,,,,,,,,,,,,,,,,,,,,,,,,,0,1,1,1,0,49,49,71,,,,961.3068918000001,None,960.1236722000001,961.3236819000001,a,1,闷热,l,1,0.6380828000001202,0.5825070999999298,xmy,m,22,2024_Apr_11_1536,mian,2021.2.3,60.026027285428036,
,,,,,,0,1,pic/flanker6.png,pic/flanker2.png,a,k,pic/AffRest2.png,,,,,,,,,,,,,,,,,,,,,,,,,0,1,1,1,0,50,50,18,,,,964.4236256000002,None,963.2402729,964.4403242000001,a,1,如愿,k,1,0.79446269999994,0.5155419000000165,xmy,m,22,2024_Apr_11_1536,mian,2021.2.3,60.026027285428036,
,,,,,,0,0,pic/flanker5.png,pic/flanker1.png,s,l,pic/AffRest2.png,,,,,,,,,,,,,,,,,,,,,,,,,0,1,1,1,0,51,51,11,,,,967.6404228000001,None,966.4569343000001,967.6569352000001,s,1,别扭,l,1,0.7006372999999257,0.39900600000009945,xmy,m,22,2024_Apr_11_1536,mian,2021.2.3,60.026027285428036,
,,,,,,0,0,pic/flanker5.png,pic/flanker1.png,s,l,pic/AffRest2.png,,,,,,,,,,,,,,,,,,,,,,,,,0,1,1,1,0,52,52,19,,,,970.8070777,None,969.6232546000001,970.8232327000001,s,1,嘲笑,l,1,0.9014216000000488,0.40152390000002924,xmy,m,22,2024_Apr_11_1536,mian,2021.2.3,60.026027285428036,
,,,,,,0,1,pic/flanker5.png,pic/flanker1.png,s,k,pic/AffRest2.png,,,,,,,,,,,,,,,,,,,,,,,,,0,1,1,1,0,53,53,40,,,,974.1402372,None,972.9569639000001,974.1571175000001,s,1,留恋,k,1,1.1947384000000056,0.46949850000009974,xmy,m,22,2024_Apr_11_1536,mian,2021.2.3,60.026027285428036,
,,,,,,1,1,pic/flanker6.png,pic/flanker4.png,s,k,pic/AffRest2.png,,,,,,,,,,,,,,,,,,,,,,,,,0,1,1,1,0,54,54,22,,,,977.7070384000001,None,976.5232197,977.7236574000001,s,1,前进,k,1,0.7404117999999471,0.502656800000068,xmy,m,22,2024_Apr_11_1536,mian,2021.2.3,60.026027285428036,
,,,,,,0,0,pic/flanker6.png,pic/flanker2.png,a,l,pic/AffRest2.png,,,,,,,,,,,,,,,,,,,,,,,,,0,1,1,1,0,55,55,65,,,,980.9569425,None,979.7738064,980.973604,a,1,浪费,l,1,0.6172621999999137,0.4295437000000675,xmy,m,22,2024_Apr_11_1536,mian,2021.2.3,60.026027285428036,
,,,,,,1,1,pic/flanker6.png,pic/flanker4.png,s,k,pic/AffRest2.png,,,,,,,,,,,,,,,,,,,,,,,,,0,1,1,1,0,56,56,70,,,,983.9730743,None,982.7902893,983.9898064000001,s,1,雄厚,k,1,0.7422231000000465,0.4678222999998525,xmy,m,22,2024_Apr_11_1536,mian,2021.2.3,60.026027285428036,
,,,,,,1,0,pic/flanker5.png,pic/flanker3.png,a,l,pic/AffRest2.png,,,,,,,,,,,,,,,,,,,,,,,,,0,1,1,1,0,57,57,31,,,,987.0731168,None,985.8903309,987.0898010000001,a,1,忧虑,k,0,0.9728187999999136,0.5511741000000256,xmy,m,22,2024_Apr_11_1536,mian,2021.2.3,60.026027285428036,
,,,,,,1,1,pic/flanker5.png,pic/flanker3.png,a,k,pic/AffRest2.png,,,,,,,,,,,,,,,,,,,,,,,,,0,1,1,1,0,58,58,52,,,,990.4405098,None,989.257063,990.4571789000001,a,1,永恒,k,1,0.717357100000072,0.7174411999999393,xmy,m,22,2024_Apr_11_1536,mian,2021.2.3,60.026027285428036,
,,,,,,0,1,pic/flanker5.png,pic/flanker1.png,s,k,pic/AffRest2.png,,,,,,,,,,,,,,,,,,,,,,,,,0,1,1,1,0,59,59,16,,,,993.7563675000001,None,992.5738896,993.7730352000001,s,1,优雅,k,1,0.6477491000000555,0.3960076000000754,xmy,m,22,2024_Apr_11_1536,mian,2021.2.3,60.026027285428036,
,,,,,,0,0,pic/flanker6.png,pic/flanker2.png,a,l,pic/AffRest2.png,,,,,,,,,,,,,,,,,,,,,,,,,0,1,1,1,0,60,60,57,,,,996.8069878000001,None,995.6233557,996.8235869,a,1,轻率,l,1,1.2311675999999352,0.4055025000000114,xmy,m,22,2024_Apr_11_1536,mian,2021.2.3,60.026027285428036,
,,,,,,1,1,pic/flanker6.png,pic/flanker4.png,s,k,pic/AffRest2.png,,,,,,,,,,,,,,,,,,,,,,,,,0,1,1,1,0,61,61,78,,,,1000.3403453000001,None,999.1570863000002,1000.3571153,s,1,振作,k,1,0.914266299999781,0.46250979999990705,xmy,m,22,2024_Apr_11_1536,mian,2021.2.3,60.026027285428036,
,,,,,,1,1,pic/flanker6.png,pic/flanker4.png,s,k,pic/AffRest2.png,,,,,,,,,,,,,,,,,,,,,,,,,0,1,1,1,0,62,62,38,,,,1003.5903734000001,None,1002.4070260000001,1003.6069426000001,s,1,精致,k,1,0.7193955000000187,0.6016170000000329,xmy,m,22,2024_Apr_11_1536,mian,2021.2.3,60.026027285428036,
,,,,,,1,0,pic/flanker6.png,pic/flanker4.png,s,l,pic/AffRest2.png,,,,,,,,,,,,,,,,,,,,,,,,,0,1,1,1,0,63,63,5,,,,1006.7730992000002,None,1005.5903202,1006.7903262,s,1,穷苦,l,1,0.5535560000000714,0.5133100999998987,xmy,m,22,2024_Apr_11_1536,mian,2021.2.3,60.026027285428036,
,,,,,,0,1,pic/flanker6.png,pic/flanker2.png,a,k,pic/AffRest2.png,,,,,,,,,,,,,,,,,,,,,,,,,0,1,1,1,0,64,64,2,,,,1009.6731298,None,1008.4904114000001,1009.6903766,a,1,有利,k,1,0.6364398999999139,0.3906366999999591,xmy,m,22,2024_Apr_11_1536,mian,2021.2.3,60.026027285428036,
,,,,,,1,0,pic/flanker6.png,pic/flanker4.png,s,l,pic/AffRest2.png,,,,,,,,,,,,,,,,,,,,,,,,,0,1,1,1,0,65,65,53,,,,1012.6403373,None,1011.4570197,1012.6570356,s,1,堵塞,l,1,0.6064563999998427,0.41929770000001554,xmy,m,22,2024_Apr_11_1536,mian,2021.2.3,60.026027285428036,
,,,,,,1,0,pic/flanker5.png,pic/flanker3.png,a,l,pic/AffRest2.png,,,,,,,,,,,,,,,,,,,,,,,,,0,1,1,1,0,66,66,7,,,,1015.6236586,None,1014.4403216000001,1015.6404124000001,a,1,烦恼,l,1,0.7691571999998814,0.47511599999984355,xmy,m,22,2024_Apr_11_1536,mian,2021.2.3,60.026027285428036,
,,,,,,1,0,pic/flanker5.png,pic/flanker3.png,a,l,pic/AffRest2.png,,,,,,,,,,,,,,,,,,,,,,,,,0,1,1,1,0,67,67,47,,,,1018.8067907,None,1017.6231832000001,1018.8231481,a,1,撒谎,l,1,0.5926330999998299,0.5221516000001429,xmy,m,22,2024_Apr_11_1536,mian,2021.2.3,60.026027285428036,
,,,,,,1,1,pic/flanker5.png,pic/flanker3.png,a,k,pic/AffRest2.png,,,,,,,,,,,,,,,,,,,,,,,,,0,1,1,1,0,68,68,60,,,,1021.9738758000001,None,1020.7905382000001,1021.9906013,a,1,充裕,k,1,0.5909735999998702,0.5303974999999355,xmy,m,22,2024_Apr_11_1536,mian,2021.2.3,60.026027285428036,
,,,,,,1,0,pic/flanker6.png,pic/flanker4.png,s,l,pic/AffRest2.png,,,,,,,,,,,,,,,,,,,,,,,,,0,1,1,1,0,69,69,45,,,,1025.0571809,None,1023.8745611000002,1025.0737653,s,1,禁止,l,1,0.7254205000001548,0.5587178000000677,xmy,m,22,2024_Apr_11_1536,mian,2021.2.3,60.026027285428036,
,,,,,,0,0,pic/flanker6.png,pic/flanker2.png,a,l,pic/AffRest2.png,,,,,,,,,,,,,,,,,,,,,,,,,0,1,1,1,0,70,70,25,,,,1028.1903704000001,None,1027.0068843000001,1028.2071031,a,1,落后,l,1,0.544157099999893,0.41174580000006245,xmy,m,22,2024_Apr_11_1536,mian,2021.2.3,60.026027285428036,
,,,,,,1,1,pic/flanker5.png,pic/flanker3.png,a,k,pic/AffRest2.png,,,,,,,,,,,,,,,,,,,,,,,,,0,1,1,1,0,71,71,44,,,,1030.9904021,None,1029.8070252,1031.0070131,a,1,生动,k,1,0.6576574999999139,0.5352850000001581,xmy,m,22,2024_Apr_11_1536,mian,2021.2.3,60.026027285428036,
,,,,,,0,1,pic/flanker6.png,pic/flanker2.png,a,k,pic/AffRest2.png,,,,,,,,,,,,,,,,,,,,,,,,,0,1,1,1,0,72,72,58,,,,1034.1737661,None,1032.9903257,1034.1904060000002,a,1,舒畅,k,1,0.6023129000000154,0.39053839999996853,xmy,m,22,2024_Apr_11_1536,mian,2021.2.3,60.026027285428036,
,,,,,,1,0,pic/flanker6.png,pic/flanker4.png,s,l,pic/AffRest2.png,,,,,,,,,,,,,,,,,,,,,,,,,0,1,1,1,0,73,73,61,,,,1037.1570247,None,1035.9736349,1037.1736139,s,1,慌忙,l,1,0.6403059000001576,0.4602500000000873,xmy,m,22,2024_Apr_11_1536,mian,2021.2.3,60.026027285428036,
,,,,,,0,0,pic/flanker5.png,pic/flanker1.png,s,l,pic/AffRest2.png,,,,,,,,,,,,,,,,,,,,,,,,,0,1,1,1,0,74,74,59,,,,1040.1572164000002,None,1038.9730591,1040.1738968,s,1,处罚,l,1,0.6382026999999653,0.4173748999999134,xmy,m,22,2024_Apr_11_1536,mian,2021.2.3,60.026027285428036,
,,,,,,0,1,pic/flanker6.png,pic/flanker2.png,a,k,pic/AffRest2.png,,,,,,,,,,,,,,,,,,,,,,,,,0,1,1,1,0,75,75,74,,,,1043.2404433000002,None,1042.0570631,1043.2570956,a,1,富丽,k,1,0.578074499999957,0.38671659999999974,xmy,m,22,2024_Apr_11_1536,mian,2021.2.3,60.026027285428036,
,,,,,,1,1,pic/flanker5.png,pic/flanker3.png,a,k,pic/AffRest2.png,,,,,,,,,,,,,,,,,,,,,,,,,0,1,1,1,0,76,76,68,,,,1046.2737702000002,None,1045.0902885,1046.2902595,a,1,清秀,k,1,0.5111830000000737,0.6802907000001142,xmy,m,22,2024_Apr_11_1536,mian,2021.2.3,60.026027285428036,
,,,,,,1,1,pic/flanker6.png,pic/flanker4.png,s,k,pic/AffRest2.png,,,,,,,,,,,,,,,,,,,,,,,,,0,1,1,1,0,77,77,30,,,,1049.3571817,None,1048.1736162,1049.3738055000001,s,1,敬佩,k,1,0.567162400000143,0.4271355999999287,xmy,m,22,2024_Apr_11_1536,mian,2021.2.3,60.026027285428036,
,,,,,,0,1,pic/flanker5.png,pic/flanker1.png,s,k,pic/AffRest2.png,,,,,,,,,,,,,,,,,,,,,,,,,0,1,1,1,0,78,78,72,,,,1052.4237145,None,1051.2404079,1052.4404009,s,1,享受,k,1,0.6123320000001513,0.45921160000011696,xmy,m,22,2024_Apr_11_1536,mian,2021.2.3,60.026027285428036,
,,,,,,1,0,pic/flanker5.png,pic/flanker3.png,a,l,pic/AffRest2.png,,,,,,,,,,,,,,,,,,,,,,,,,0,1,1,1,0,79,79,15,,,,1055.5404551000001,None,1054.3571325,1055.5571503,a,1,争吵,l,1,0.8877112000000125,0.44099099999993996,xmy,m,22,2024_Apr_11_1536,mian,2021.2.3,60.026027285428036,
,,,,,,,,,,,,pic/AffRest2.png,,,,,,,,,,,,,,,,,,,,,,,,,0,1,1,1,,,,,,,,,,,,,,,,,,,xmy,m,22,2024_Apr_11_1536,mian,2021.2.3,60.026027285428036,
,,,,,,1,1,pic/flanker5.png,pic/flanker3.png,a,k,pic/AffRest3.png,,,,,,,,,,,,,,,,,,,,,,,,,0,2,2,2,0,0,0,68,,,,1065.5737561,None,1064.3820222000002,1065.5903541,a,1,珍藏,k,1,0.628393300000198,0.432162500000004,xmy,m,22,2024_Apr_11_1536,mian,2021.2.3,60.026027285428036,
,,,,,,0,1,pic/flanker5.png,pic/flanker1.png,s,k,pic/AffRest3.png,,,,,,,,,,,,,,,,,,,,,,,,,0,2,2,2,0,1,1,40,,,,1068.6904154000001,None,1067.5069919,1068.7070418,s,1,典雅,k,1,0.5102625999998054,0.4610992999998871,xmy,m,22,2024_Apr_11_1536,mian,2021.2.3,60.026027285428036,
,,,,,,1,0,pic/flanker5.png,pic/flanker3.png,a,l,pic/AffRest3.png,,,,,,,,,,,,,,,,,,,,,,,,,0,2,2,2,0,2,2,63,,,,1071.6904951000001,None,1070.5065281,1071.7070011,a,1,心慌,l,1,0.5638022999999066,0.44788840000001073,xmy,m,22,2024_Apr_11_1536,mian,2021.2.3,60.026027285428036,
,,,,,,1,0,pic/flanker6.png,pic/flanker4.png,s,l,pic/AffRest3.png,,,,,,,,,,,,,,,,,,,,,,,,,0,2,2,2,0,3,3,21,,,,1074.5906117,None,1073.4071556000001,1074.6071819000001,s,1,轻率,l,1,0.58875809999995,0.4363106999999218,xmy,m,22,2024_Apr_11_1536,mian,2021.2.3,60.026027285428036,
,,,,,,1,1,pic/flanker5.png,pic/flanker3.png,a,k,pic/AffRest3.png,,,,,,,,,,,,,,,,,,,,,,,,,0,2,2,2,0,4,4,52,,,,1077.5070493,None,1076.3237009000002,1077.5237671,a,1,如愿,k,1,0.879741999999851,0.4709305999999742,xmy,m,22,2024_Apr_11_1536,mian,2021.2.3,60.026027285428036,
,,,,,,1,0,pic/flanker6.png,pic/flanker4.png,s,l,pic/AffRest3.png,,,,,,,,,,,,,,,,,,,,,,,,,0,2,2,2,0,5,5,61,,,,1080.9071115000002,None,1079.7236886,1080.923817,s,1,忧虑,l,1,0.8069067999999788,0.48604569999997693,xmy,m,22,2024_Apr_11_1536,mian,2021.2.3,60.026027285428036,
,,,,,,0,0,pic/flanker5.png,pic/flanker1.png,s,l,pic/AffRest3.png,,,,,,,,,,,,,,,,,,,,,,,,,0,2,2,2,0,6,6,11,,,,1084.0571366000001,None,1082.8736473000001,1084.0735977000002,s,1,穷苦,l,1,0.6318301999999676,0.4207828999999492,xmy,m,22,2024_Apr_11_1536,mian,2021.2.3,60.026027285428036,
,,,,,,0,0,pic/flanker6.png,pic/flanker2.png,a,l,pic/AffRest3.png,,,,,,,,,,,,,,,,,,,,,,,,,0,2,2,2,0,7,7,1,,,,1087.0071562,None,1085.8237344000001,1087.0238137000001,a,1,消沉,l,1,0.6323130000000674,0.4324064999998427,xmy,m,22,2024_Apr_11_1536,mian,2021.2.3,60.026027285428036,
,,,,,,0,1,pic/flanker6.png,pic/flanker2.png,a,k,pic/AffRest3.png,,,,,,,,,,,,,,,,,,,,,,,,,0,2,2,2,0,8,8,10,,,,1090.1570833,None,1088.9736981,1090.1738009,a,1,永恒,k,1,0.6785295999998198,0.4224130000000059,xmy,m,22,2024_Apr_11_1536,mian,2021.2.3,60.026027285428036,
,,,,,,0,1,pic/flanker5.png,pic/flanker1.png,s,k,pic/AffRest3.png,,,,,,,,,,,,,,,,,,,,,,,,,0,2,2,2,0,9,9,24,,,,1093.2404075000002,None,1092.0573234,1093.2571189,s,1,赞成,k,1,0.5974149000001034,0.3535360999999284,xmy,m,22,2024_Apr_11_1536,mian,2021.2.3,60.026027285428036,
,,,,,,1,0,pic/flanker5.png,pic/flanker3.png,a,l,pic/AffRest3.png,,,,,,,,,,,,,,,,,,,,,,,,,0,2,2,2,0,10,10,7,,,,1096.2071658,None,1095.0238094000001,1096.2238756000002,a,1,嘲笑,l,1,0.6353014999999687,0.6802683000000798,xmy,m,22,2024_Apr_11_1536,mian,2021.2.3,60.026027285428036,
,,,,,,1,0,pic/flanker5.png,pic/flanker3.png,a,l,pic/AffRest3.png,,,,,,,,,,,,,,,,,,,,,,,,,0,2,2,2,0,11,11,15,,,,1099.5072246,None,1098.3237131,1099.5238033,a,1,闷热,l,1,0.7812291999998706,0.7281654999999319,xmy,m,22,2024_Apr_11_1536,mian,2021.2.3,60.026027285428036,
,,,,,,0,0,pic/flanker5.png,pic/flanker1.png,s,l,pic/AffRest3.png,,,,,,,,,,,,,,,,,,,,,,,,,0,2,2,2,0,12,12,67,,,,1102.8740019000002,None,1101.6905745000001,1102.8905732,s,1,胡涂,l,1,0.5057366999999431,0.36555879999991703,xmy,m,22,2024_Apr_11_1536,mian,2021.2.3,60.026027285428036,
,,,,,,0,0,pic/flanker6.png,pic/flanker2.png,a,l,pic/AffRest3.png,,,,,,,,,,,,,,,,,,,,,,,,,0,2,2,2,0,13,13,65,,,,1105.7903389,None,1104.6071076,1105.8071069,a,1,浪费,l,1,0.5461047000001145,0.3804038999999193,xmy,m,22,2024_Apr_11_1536,mian,2021.2.3,60.026027285428036,
,,,,,,0,1,pic/flanker5.png,pic/flanker1.png,s,k,pic/AffRest3.png,,,,,,,,,,,,,,,,,,,,,,,,,0,2,2,2,0,14,14,48,,,,1108.6904328,None,1107.5069455,1108.7071662,s,1,留恋,k,1,0.7791471999998976,0.41710200000011355,xmy,m,22,2024_Apr_11_1536,mian,2021.2.3,60.026027285428036,
,,,,,,0,1,pic/flanker6.png,pic/flanker2.png,a,k,pic/AffRest3.png,,,,,,,,,,,,,,,,,,,,,,,,,0,2,2,2,0,15,15,58,,,,1111.9237865,None,1110.7404181000002,1111.9404804,a,1,清秀,k,1,0.5810705999999755,0.35482360000014523,xmy,m,22,2024_Apr_11_1536,mian,2021.2.3,60.026027285428036,
,,,,,,0,1,pic/flanker5.png,pic/flanker1.png,s,k,pic/AffRest3.png,,,,,,,,,,,,,,,,,,,,,,,,,0,2,2,2,0,16,16,16,,,,1114.8904935,None,1113.7071804,1114.9069968000001,s,1,廉洁,k,1,0.6733495999999377,0.3753353999998126,xmy,m,22,2024_Apr_11_1536,mian,2021.2.3,60.026027285428036,
,,,,,,1,0,pic/flanker6.png,pic/flanker4.png,s,l,pic/AffRest3.png,,,,,,,,,,,,,,,,,,,,,,,,,0,2,2,2,0,17,17,77,,,,1117.990459,None,1116.8069869,1118.0069999,s,1,厌恶,l,1,0.5957455999998729,0.5240128999998888,xmy,m,22,2024_Apr_11_1536,mian,2021.2.3,60.026027285428036,
,,,,,,0,0,pic/flanker6.png,pic/flanker2.png,a,l,pic/AffRest3.png,,,,,,,,,,,,,,,,,,,,,,,,,0,2,2,2,0,18,18,49,,,,1120.973361,None,1119.7906621,1120.9899704000002,a,1,悲观,l,1,0.5615228999999999,0.3620564000000286,xmy,m,22,2024_Apr_11_1536,mian,2021.2.3,60.026027285428036,
,,,,,,1,1,pic/flanker6.png,pic/flanker4.png,s,k,pic/AffRest3.png,,,,,,,,,,,,,,,,,,,,,,,,,0,2,2,2,0,19,19,78,,,,1123.7571405,None,1122.573617,1123.7738531,s,1,正直,k,1,0.5656510999999682,0.520958999999948,xmy,m,22,2024_Apr_11_1536,mian,2021.2.3,60.026027285428036,
,,,,,,0,0,pic/flanker5.png,pic/flanker1.png,s,l,pic/AffRest3.png,,,,,,,,,,,,,,,,,,,,,,,,,0,2,2,2,0,20,20,59,,,,1126.9069732,None,1125.7233956,1126.9236273000001,s,1,假冒,l,1,0.5425513000000137,0.368712799999912,xmy,m,22,2024_Apr_11_1536,mian,2021.2.3,60.026027285428036,
,,,,,,1,1,pic/flanker6.png,pic/flanker4.png,s,k,pic/AffRest3.png,,,,,,,,,,,,,,,,,,,,,,,,,0,2,2,2,0,21,21,54,,,,1129.7404841,None,1128.5572247,1129.7572049,s,1,羡慕,k,1,0.6435254000000441,0.5526882999999998,xmy,m,22,2024_Apr_11_1536,mian,2021.2.3,60.026027285428036,
,,,,,,1,0,pic/flanker6.png,pic/flanker4.png,s,l,pic/AffRest3.png,,,,,,,,,,,,,,,,,,,,,,,,,0,2,2,2,0,22,22,29,,,,1132.7904193000002,None,1131.6071685000002,1132.8072115,s,1,自卑,l,1,0.6089518000001135,0.48858180000001994,xmy,m,22,2024_Apr_11_1536,mian,2021.2.3,60.026027285428036,
,,,,,,1,1,pic/flanker5.png,pic/flanker3.png,a,k,pic/AffRest3.png,,,,,,,,,,,,,,,,,,,,,,,,,0,2,2,2,0,23,23,44,,,,1135.8904145000001,None,1134.7071411000002,1135.9072396000001,a,1,俊秀,k,1,0.6190099999998893,0.5074035000000094,xmy,m,22,2024_Apr_11_1536,mian,2021.2.3,60.026027285428036,
,,,,,,1,0,pic/flanker5.png,pic/flanker3.png,a,l,pic/AffRest3.png,,,,,,,,,,,,,,,,,,,,,,,,,0,2,2,2,0,24,24,39,,,,1139.0238590000001,None,1137.8404461,1139.0404744,a,1,怀疑,l,1,0.6558683000000656,0.6000678999998854,xmy,m,22,2024_Apr_11_1536,mian,2021.2.3,60.026027285428036,
,,,,,,0,0,pic/flanker5.png,pic/flanker1.png,s,l,pic/AffRest3.png,,,,,,,,,,,,,,,,,,,,,,,,,0,2,2,2,0,25,25,43,,,,1142.1733370000002,None,1140.990595,1142.1900293,s,1,缺乏,l,1,0.5664386000000832,0.49191220000011526,xmy,m,22,2024_Apr_11_1536,mian,2021.2.3,60.026027285428036,
,,,,,,0,1,pic/flanker5.png,pic/flanker1.png,s,k,pic/AffRest3.png,,,,,,,,,,,,,,,,,,,,,,,,,0,2,2,2,0,26,26,72,,,,1145.2899200000002,None,1144.1069907,1145.3064586,s,1,前进,k,1,0.5787051000002066,0.3779331999999158,xmy,m,22,2024_Apr_11_1536,mian,2021.2.3,60.026027285428036,
,,,,,,1,1,pic/flanker6.png,pic/flanker4.png,s,k,pic/AffRest3.png,,,,,,,,,,,,,,,,,,,,,,,,,0,2,2,2,0,27,27,6,,,,1148.1404839000002,None,1146.9570165,1148.1570454,s,1,诚恳,k,1,0.9473276000001079,0.4603428000000349,xmy,m,22,2024_Apr_11_1536,mian,2021.2.3,60.026027285428036,
,,,,,,0,1,pic/flanker6.png,pic/flanker2.png,a,k,pic/AffRest3.png,,,,,,,,,,,,,,,,,,,,,,,,,0,2,2,2,0,28,28,42,,,,1151.423792,None,1150.239976,1151.4402909,a,1,敬佩,k,1,0.6211640999999872,0.409688499999902,xmy,m,22,2024_Apr_11_1536,mian,2021.2.3,60.026027285428036,
,,,,,,0,0,pic/flanker6.png,pic/flanker2.png,a,l,pic/AffRest3.png,,,,,,,,,,,,,,,,,,,,,,,,,0,2,2,2,0,29,29,33,,,,1154.3404273,None,1153.1572308,1154.3569679,a,1,郁闷,l,1,0.5164099999999507,0.3338779999999133,xmy,m,22,2024_Apr_11_1536,mian,2021.2.3,60.026027285428036,
,,,,,,0,1,pic/flanker5.png,pic/flanker1.png,s,k,pic/AffRest3.png,,,,,,,,,,,,,,,,,,,,,,,,,0,2,2,2,0,30,30,56,,,,1157.1570736,None,1155.9738502,1157.1738984,s,1,旺盛,k,1,0.5555890000000545,0.3903063000000202,xmy,m,22,2024_Apr_11_1536,mian,2021.2.3,60.026027285428036,
,,,,,,0,1,pic/flanker6.png,pic/flanker2.png,a,k,pic/AffRest3.png,,,,,,,,,,,,,,,,,,,,,,,,,0,2,2,2,0,31,31,34,,,,1160.0904247,None,1158.9071421,1160.1071188,a,1,享受,k,1,0.5885960000000523,0.4144229000000905,xmy,m,22,2024_Apr_11_1536,mian,2021.2.3,60.026027285428036,
,,,,,,0,1,pic/flanker6.png,pic/flanker2.png,a,k,pic/AffRest3.png,,,,,,,,,,,,,,,,,,,,,,,,,0,2,2,2,0,32,32,26,,,,1162.9738643,None,1161.7904262,1162.9899534,a,1,充裕,k,1,0.5436301000002004,0.34824650000018664,xmy,m,22,2024_Apr_11_1536,mian,2021.2.3,60.026027285428036,
,,,,,,1,1,pic/flanker6.png,pic/flanker4.png,s,k,pic/AffRest3.png,,,,,,,,,,,,,,,,,,,,,,,,,0,2,2,2,0,33,33,14,,,,1165.7234419000001,None,1164.5400690000001,1165.740095,s,1,卓越,k,1,0.6267645999998877,0.5566702999999507,xmy,m,22,2024_Apr_11_1536,mian,2021.2.3,60.026027285428036,
,,,,,,1,0,pic/flanker5.png,pic/flanker3.png,a,l,pic/AffRest3.png,,,,,,,,,,,,,,,,,,,,,,,,,0,2,2,2,0,34,34,47,,,,1168.8898802,None,1167.70722,1168.9072303,a,1,烦恼,k,0,0.8495700000000852,0.47501629999987927,xmy,m,22,2024_Apr_11_1536,mian,2021.2.3,60.026027285428036,
,,,,,,1,0,pic/flanker6.png,pic/flanker4.png,s,l,pic/AffRest3.png,,,,,,,,,,,,,,,,,,,,,,,,,0,2,2,2,0,35,35,45,,,,1172.0899627000001,None,1170.9071233,1172.1072184,s,1,懒惰,l,1,0.6489297999999053,0.5524264000000585,xmy,m,22,2024_Apr_11_1536,mian,2021.2.3,60.026027285428036,
,,,,,,0,0,pic/flanker5.png,pic/flanker1.png,s,l,pic/AffRest3.png,,,,,,,,,,,,,,,,,,,,,,,,,0,2,2,2,0,36,36,51,,,,1175.3399743,None,1174.1565738000002,1175.3567431000001,s,1,罚款,l,1,0.5176257000000533,0.4546680999999353,xmy,m,22,2024_Apr_11_1536,mian,2021.2.3,60.026027285428036,
,,,,,,1,1,pic/flanker6.png,pic/flanker4.png,s,k,pic/AffRest3.png,,,,,,,,,,,,,,,,,,,,,,,,,0,2,2,2,0,37,37,22,,,,1178.1573068,None,1176.9737525,1178.1740112,s,1,秀丽,k,1,0.5128477000000657,0.5514121999999588,xmy,m,22,2024_Apr_11_1536,mian,2021.2.3,60.026027285428036,
,,,,,,1,0,pic/flanker6.png,pic/flanker4.png,s,l,pic/AffRest3.png,,,,,,,,,,,,,,,,,,,,,,,,,0,2,2,2,0,38,38,5,,,,1181.2065118,None,1180.0238495,1181.2231832,s,1,争吵,l,1,0.5253135999998904,0.6141256000000794,xmy,m,22,2024_Apr_11_1536,mian,2021.2.3,60.026027285428036,
,,,,,,1,0,pic/flanker5.png,pic/flanker3.png,a,l,pic/AffRest3.png,,,,,,,,,,,,,,,,,,,,,,,,,0,2,2,2,0,39,39,23,,,,1184.190691,None,1183.0067852,1184.2073741000002,a,1,杂乱,l,1,0.5422816000000239,0.6178658000001178,xmy,m,22,2024_Apr_11_1536,mian,2021.2.3,60.026027285428036,
,,,,,,1,0,pic/flanker5.png,pic/flanker3.png,a,l,pic/AffRest3.png,,,,,,,,,,,,,,,,,,,,,,,,,0,2,2,2,0,40,40,31,,,,1187.2239922,None,1186.0400724,1187.240659,a,1,堵塞,l,1,0.5501988999999412,1.2757093000000168,xmy,m,22,2024_Apr_11_1536,mian,2021.2.3,60.026027285428036,
,,,,,,0,1,pic/flanker6.png,pic/flanker2.png,a,k,pic/AffRest3.png,,,,,,,,,,,,,,,,,,,,,,,,,0,2,2,2,0,41,41,74,,,,1190.9571614000001,None,1189.7739269,1190.9738045000001,a,1,瑰丽,k,1,0.6908151999998609,0.47726620000003095,xmy,m,22,2024_Apr_11_1536,mian,2021.2.3,60.026027285428036,
,,,,,,1,1,pic/flanker5.png,pic/flanker3.png,a,k,pic/AffRest3.png,,,,,,,,,,,,,,,,,,,,,,,,,0,2,2,2,0,42,42,36,,,,1194.0571144,None,1192.8737403,1194.0738746,a,1,豪放,k,1,0.6403722000000016,0.6017471000000114,xmy,m,22,2024_Apr_11_1536,mian,2021.2.3,60.026027285428036,
,,,,,,1,1,pic/flanker5.png,pic/flanker3.png,a,k,pic/AffRest3.png,,,,,,,,,,,,,,,,,,,,,,,,,0,2,2,2,0,43,43,20,,,,1197.2733713,None,1196.0904862,1197.2898599,a,1,鲜艳,k,1,0.603679800000009,0.7349345000000085,xmy,m,22,2024_Apr_11_1536,mian,2021.2.3,60.026027285428036,
,,,,,,0,0,pic/flanker5.png,pic/flanker1.png,s,l,pic/AffRest3.png,,,,,,,,,,,,,,,,,,,,,,,,,0,2,2,2,0,44,44,75,,,,1200.6073743000002,None,1199.4239243,1200.6240258,s,1,伤心,l,1,0.7731137000000672,0.8784018000001197,xmy,m,22,2024_Apr_11_1536,mian,2021.2.3,60.026027285428036,
,,,,,,1,1,pic/flanker6.png,pic/flanker4.png,s,k,pic/AffRest3.png,,,,,,,,,,,,,,,,,,,,,,,,,0,2,2,2,0,45,45,46,,,,1204.2399403000002,None,1203.0565534,1204.2568868,s,1,舒畅,k,1,0.8680303000001004,0.6983527999998387,xmy,m,22,2024_Apr_11_1536,mian,2021.2.3,60.026027285428036,
,,,,,,0,0,pic/flanker5.png,pic/flanker1.png,s,l,pic/AffRest3.png,,,,,,,,,,,,,,,,,,,,,,,,,0,2,2,2,0,46,46,19,,,,1207.6736132,None,1206.4898669000002,1207.6902889,s,1,处罚,l,1,0.6128251000000091,0.5349453999999696,xmy,m,22,2024_Apr_11_1536,mian,2021.2.3,60.026027285428036,
,,,,,,1,0,pic/flanker6.png,pic/flanker4.png,s,l,pic/AffRest3.png,,,,,,,,,,,,,,,,,,,,,,,,,0,2,2,2,0,47,47,69,,,,1210.6905337,None,1209.5070258,1210.7072393,s,1,禁止,l,1,0.4481247999999596,0.5870540000000801,xmy,m,22,2024_Apr_11_1536,mian,2021.2.3,60.026027285428036,
,,,,,,0,1,pic/flanker6.png,pic/flanker2.png,a,k,pic/AffRest3.png,,,,,,,,,,,,,,,,,,,,,,,,,0,2,2,2,0,48,48,66,,,,1213.6572764,None,1212.4738128000001,1213.6738002,a,1,奉献,k,1,0.9502447999998367,0.5633737999999084,xmy,m,22,2024_Apr_11_1536,mian,2021.2.3,60.026027285428036,
,,,,,,1,1,pic/flanker6.png,pic/flanker4.png,s,k,pic/AffRest3.png,,,,,,,,,,,,,,,,,,,,,,,,,0,2,2,2,0,49,49,38,,,,1217.107045,None,1215.9231222,1217.1236894,s,1,畅销,k,1,1.2424848999999085,0.6242256000000452,xmy,m,22,2024_Apr_11_1536,mian,2021.2.3,60.026027285428036,
,,,,,,0,0,pic/flanker5.png,pic/flanker1.png,s,l,pic/AffRest3.png,,,,,,,,,,,,,,,,,,,,,,,,,0,2,2,2,0,50,50,27,,,,1221.0400221,None,1219.8572242,1221.0567442000001,s,1,撒谎,l,1,0.5064015000000381,0.44197959999996783,xmy,m,22,2024_Apr_11_1536,mian,2021.2.3,60.026027285428036,
,,,,,,1,0,pic/flanker5.png,pic/flanker3.png,a,l,pic/AffRest3.png,,,,,,,,,,,,,,,,,,,,,,,,,0,2,2,2,0,51,51,71,,,,1223.8905203000002,None,1222.7072513,1223.9072058000002,a,1,冷笑,l,1,0.5458638000000064,1.2131357999999182,xmy,m,22,2024_Apr_11_1536,mian,2021.2.3,60.026027285428036,
,,,,,,0,0,pic/flanker6.png,pic/flanker2.png,a,l,pic/AffRest3.png,,,,,,,,,,,,,,,,,,,,,,,,,0,2,2,2,0,52,52,9,,,,1227.5898645,None,1226.4071894,1227.6071446,a,1,逃避,l,1,0.7099594000001161,0.8851384000001872,xmy,m,22,2024_Apr_11_1536,mian,2021.2.3,60.026027285428036,
,,,,,,1,1,pic/flanker5.png,pic/flanker3.png,a,k,pic/AffRest3.png,,,,,,,,,,,,,,,,,,,,,,,,,0,2,2,2,0,53,53,28,,,,1231.1238991,None,1229.9405191,1231.1406024,a,1,富丽,k,1,0.6614207000000079,0.6293989000000693,xmy,m,22,2024_Apr_11_1536,mian,2021.2.3,60.026027285428036,
,,,,,,1,1,pic/flanker5.png,pic/flanker3.png,a,k,pic/AffRest3.png,,,,,,,,,,,,,,,,,,,,,,,,,0,2,2,2,0,54,54,4,,,,1234.3738732000002,None,1233.1904712,1234.3903,a,1,吉祥,k,1,0.53464340000005,0.6240264999998999,xmy,m,22,2024_Apr_11_1536,mian,2021.2.3,60.026027285428036,
,,,,,,1,0,pic/flanker6.png,pic/flanker4.png,s,l,pic/AffRest3.png,,,,,,,,,,,,,,,,,,,,,,,,,0,2,2,2,0,55,55,13,,,,1237.5404359000001,None,1236.3572577,1237.5570438,s,1,黑暗,l,1,0.7009921999999733,0.6651806000002125,xmy,m,22,2024_Apr_11_1536,mian,2021.2.3,60.026027285428036,
,,,,,,0,0,pic/flanker5.png,pic/flanker1.png,s,l,pic/AffRest3.png,,,,,,,,,,,,,,,,,,,,,,,,,0,2,2,2,0,56,56,35,,,,1240.9400595,None,1239.7570246,1240.9566343000001,s,1,丢失,l,1,0.6793367999998736,0.42295419999982187,xmy,m,22,2024_Apr_11_1536,mian,2021.2.3,60.026027285428036,
,,,,,,0,1,pic/flanker6.png,pic/flanker2.png,a,k,pic/AffRest3.png,,,,,,,,,,,,,,,,,,,,,,,,,0,2,2,2,0,57,57,18,,,,1243.990502,None,1242.8071938,1244.0072715000001,a,1,精致,k,1,0.5816615000001093,0.9597023999999692,xmy,m,22,2024_Apr_11_1536,mian,2021.2.3,60.026027285428036,
,,,,,,0,0,pic/flanker5.png,pic/flanker1.png,s,l,pic/AffRest3.png,,,,,,,,,,,,,,,,,,,,,,,,,0,2,2,2,0,58,58,3,,,,1247.3738676,None,1246.1904871000002,1247.3905816000001,s,1,孤单,l,1,0.5730697000001328,0.4146502999999484,xmy,m,22,2024_Apr_11_1536,mian,2021.2.3,60.026027285428036,
,,,,,,1,0,pic/flanker6.png,pic/flanker4.png,s,l,pic/AffRest3.png,,,,,,,,,,,,,,,,,,,,,,,,,0,2,2,2,0,59,59,37,,,,1250.2239853,None,1249.0405441,1250.2406229,a,0,焦躁,l,1,0.6657729000000927,0.7851402999999664,xmy,m,22,2024_Apr_11_1536,mian,2021.2.3,60.026027285428036,
,,,,,,1,1,pic/flanker6.png,pic/flanker4.png,s,k,pic/AffRest3.png,,,,,,,,,,,,,,,,,,,,,,,,,0,2,2,2,0,60,60,30,,,,1253.6238272,None,1252.4400934,1253.6404696,s,1,丰满,k,1,0.7132323000000724,1.062468200000012,xmy,m,22,2024_Apr_11_1536,mian,2021.2.3,60.026027285428036,
,,,,,,1,1,pic/flanker6.png,pic/flanker4.png,s,k,pic/AffRest3.png,,,,,,,,,,,,,,,,,,,,,,,,,0,2,2,2,0,61,61,70,,,,1257.3237983000001,None,1256.1407851000001,1257.3405561,s,1,雄厚,k,1,0.6682766000001266,0.7370034999999007,xmy,m,22,2024_Apr_11_1536,mian,2021.2.3,60.026027285428036,
,,,,,,1,1,pic/flanker5.png,pic/flanker3.png,a,k,pic/AffRest3.png,,,,,,,,,,,,,,,,,,,,,,,,,0,2,2,2,0,62,62,12,,,,1260.6739055,None,1259.4904694000002,1260.6905899,a,1,有利,k,1,0.9565827000001264,0.6687610000001314,xmy,m,22,2024_Apr_11_1536,mian,2021.2.3,60.026027285428036,
,,,,,,0,1,pic/flanker5.png,pic/flanker1.png,s,k,pic/AffRest3.png,,,,,,,,,,,,,,,,,,,,,,,,,0,2,2,2,0,63,63,0,,,,1264.1905551,None,1263.0071366,1264.2072512,s,1,热切,k,1,0.6047172999999475,0.6188836999999694,xmy,m,22,2024_Apr_11_1536,mian,2021.2.3,60.026027285428036,
,,,,,,1,1,pic/flanker5.png,pic/flanker3.png,a,k,pic/AffRest3.png,,,,,,,,,,,,,,,,,,,,,,,,,0,2,2,2,0,64,64,76,,,,1267.2572659,None,1266.0737823000002,1267.2739144,a,1,顽强,k,1,0.87141859999997,0.6217662999999902,xmy,m,22,2024_Apr_11_1536,mian,2021.2.3,60.026027285428036,
,,,,,,0,1,pic/flanker5.png,pic/flanker1.png,s,k,pic/AffRest3.png,,,,,,,,,,,,,,,,,,,,,,,,,0,2,2,2,0,65,65,8,,,,1270.6570565,None,1269.4738730000001,1270.6737589000002,s,1,圣洁,k,1,0.6821465000000444,0.5265671999998176,xmy,m,22,2024_Apr_11_1536,mian,2021.2.3,60.026027285428036,
,,,,,,0,0,pic/flanker6.png,pic/flanker2.png,a,l,pic/AffRest3.png,,,,,,,,,,,,,,,,,,,,,,,,,0,2,2,2,0,66,66,41,,,,1273.7906569000002,None,1272.6072331,1273.8074301000001,a,1,失意,l,1,0.6174760999999762,1.0970674000000145,xmy,m,22,2024_Apr_11_1536,mian,2021.2.3,60.026027285428036,
,,,,,,0,0,pic/flanker6.png,pic/flanker2.png,a,l,pic/AffRest3.png,,,,,,,,,,,,,,,,,,,,,,,,,0,2,2,2,0,67,67,25,,,,1277.3906227,None,1276.2073444,1277.4073365000002,a,1,排斥,l,1,0.7402204999998503,0.5378470000000561,xmy,m,22,2024_Apr_11_1536,mian,2021.2.3,60.026027285428036,
,,,,,,0,1,pic/flanker5.png,pic/flanker1.png,s,k,pic/AffRest3.png,,,,,,,,,,,,,,,,,,,,,,,,,0,2,2,2,0,68,68,64,,,,1280.6072633,None,1279.4239176,1280.6239229,s,1,振作,k,1,1.1868074999999862,0.3991823999999724,xmy,m,22,2024_Apr_11_1536,mian,2021.2.3,60.026027285428036,
,,,,,,0,1,pic/flanker5.png,pic/flanker1.png,s,k,pic/AffRest3.png,,,,,,,,,,,,,,,,,,,,,,,,,0,2,2,2,0,69,69,32,,,,1284.1907636,None,1283.0074102,1284.2073941,s,1,生动,k,1,0.6242260999999871,0.4051612999999179,xmy,m,22,2024_Apr_11_1536,mian,2021.2.3,60.026027285428036,
,,,,,,0,0,pic/flanker6.png,pic/flanker2.png,a,l,pic/AffRest3.png,,,,,,,,,,,,,,,,,,,,,,,,,0,2,2,2,0,70,70,17,,,,1287.1073291,None,1285.9234191,1287.1239721000002,a,1,别扭,l,1,0.6675127000000884,0.5286389000000327,xmy,m,22,2024_Apr_11_1536,mian,2021.2.3,60.026027285428036,
,,,,,,0,0,pic/flanker6.png,pic/flanker2.png,a,l,pic/AffRest3.png,,,,,,,,,,,,,,,,,,,,,,,,,0,2,2,2,0,71,71,73,,,,1290.2573422,None,1289.0737965,1290.2739721,a,1,落后,l,1,0.5384905999999319,0.6725360999998884,xmy,m,22,2024_Apr_11_1536,mian,2021.2.3,60.026027285428036,
,,,,,,1,1,pic/flanker6.png,pic/flanker4.png,s,k,pic/AffRest3.png,,,,,,,,,,,,,,,,,,,,,,,,,0,2,2,2,0,72,72,62,,,,1293.4239132,None,1292.2405593,1293.4406826000002,s,1,公平,k,1,0.9127771000000848,0.5630074999999124,xmy,m,22,2024_Apr_11_1536,mian,2021.2.3,60.026027285428036,
,,,,,,0,0,pic/flanker6.png,pic/flanker2.png,a,l,pic/AffRest3.png,,,,,,,,,,,,,,,,,,,,,,,,,0,2,2,2,0,73,73,57,,,,1296.8405178,None,1295.6571524,1296.8572278000001,a,1,慌忙,l,1,0.5307144999999309,0.5632656000000225,xmy,m,22,2024_Apr_11_1536,mian,2021.2.3,60.026027285428036,
,,,,,,1,0,pic/flanker5.png,pic/flanker3.png,a,l,pic/AffRest3.png,,,,,,,,,,,,,,,,,,,,,,,,,0,2,2,2,0,74,74,55,,,,1299.8741387,None,1298.6907491000002,1299.8907762000001,a,1,沮丧,l,1,0.5904748999998901,0.8787694999998621,xmy,m,22,2024_Apr_11_1536,mian,2021.2.3,60.026027285428036,
,,,,,,1,0,pic/flanker5.png,pic/flanker3.png,a,l,pic/AffRest3.png,,,,,,,,,,,,,,,,,,,,,,,,,0,2,2,2,0,75,75,79,,,,1303.3240526,None,1302.1415494,1303.3407,a,1,损害,k,0,0.5576717999999801,0.5707801000000927,xmy,m,22,2024_Apr_11_1536,mian,2021.2.3,60.026027285428036,
,,,,,,0,1,pic/flanker6.png,pic/flanker2.png,a,k,pic/AffRest3.png,,,,,,,,,,,,,,,,,,,,,,,,,0,2,2,2,0,76,76,2,,,,1306.4074129,None,1305.2240498,1306.4240992,a,1,富足,k,1,0.5947336999997788,0.8085147000001598,xmy,m,22,2024_Apr_11_1536,mian,2021.2.3,60.026027285428036,
,,,,,,1,0,pic/flanker6.png,pic/flanker4.png,s,l,pic/AffRest3.png,,,,,,,,,,,,,,,,,,,,,,,,,0,2,2,2,0,77,77,53,,,,1309.7739665000001,None,1308.5905474,1309.7906822,s,1,鲁莽,l,1,0.6038663000001634,0.6384637999999541,xmy,m,22,2024_Apr_11_1536,mian,2021.2.3,60.026027285428036,
,,,,,,1,1,pic/flanker5.png,pic/flanker3.png,a,k,pic/AffRest3.png,,,,,,,,,,,,,,,,,,,,,,,,,0,2,2,2,0,78,78,60,,,,1312.957339,None,1311.7741133,1312.9739894000002,a,1,爽朗,k,1,0.5104589000000033,0.5415803999999298,xmy,m,22,2024_Apr_11_1536,mian,2021.2.3,60.026027285428036,
,,,,,,0,1,pic/flanker6.png,pic/flanker2.png,a,k,pic/AffRest3.png,,,,,,,,,,,,,,,,,,,,,,,,,0,2,2,2,0,79,79,50,,,,1315.8401431,None,1314.6565709000001,1315.8569045000002,s,0,优雅,k,1,1.384057299999995,0.5322865000000547,xmy,m,22,2024_Apr_11_1536,mian,2021.2.3,60.026027285428036,
,,,,,,,,,,,,pic/AffRest3.png,,,,,,,,,,,,,,,,,,,,,,,,,0,2,2,2,,,,,,,,,,,,,,,,,,,xmy,m,22,2024_Apr_11_1536,mian,2021.2.3,60.026027285428036,
,,,,,,1,0,pic/flanker6.png,pic/flanker4.png,s,l,pic/EndExp.PNG,,,,,,,,,,,,,,,,,,,,,,,,,0,3,3,3,0,0,0,29,,,,1337.6740277000001,None,1336.4839907,1337.6905606,s,1,忧虑,k,0,0.6716624999999112,0.7348363999999492,xmy,m,22,2024_Apr_11_1536,mian,2021.2.3,60.026027285428036,
,,,,,,0,1,pic/flanker6.png,pic/flanker2.png,a,k,pic/EndExp.PNG,,,,,,,,,,,,,,,,,,,,,,,,,0,3,3,3,0,1,1,26,,,,1341.0573274,None,1339.8739626000001,1341.0740077,a,1,富足,k,1,1.0745018000000073,1.3529868000000533,xmy,m,22,2024_Apr_11_1536,mian,2021.2.3,60.026027285428036,
,,,,,,0,1,pic/flanker6.png,pic/flanker2.png,a,k,pic/EndExp.PNG,,,,,,,,,,,,,,,,,,,,,,,,,0,3,3,3,0,2,2,2,,,,1345.3905964,None,1344.2072596,1345.4073237,a,1,顽强,k,1,0.9490988000000016,0.8035516999998435,xmy,m,22,2024_Apr_11_1536,mian,2021.2.3,60.026027285428036,
,,,,,,0,0,pic/flanker6.png,pic/flanker2.png,a,l,pic/EndExp.PNG,,,,,,,,,,,,,,,,,,,,,,,,,0,3,3,3,0,3,3,65,,,,1349.0067331,None,1347.8239795,1349.0238947,a,1,禁止,l,1,0.5356477999998788,0.577962399999933,xmy,m,22,2024_Apr_11_1536,mian,2021.2.3,60.026027285428036,
,,,,,,0,0,pic/flanker5.png,pic/flanker1.png,s,l,pic/EndExp.PNG,,,,,,,,,,,,,,,,,,,,,,,,,0,3,3,3,0,4,4,3,,,,1352.0071597,None,1350.8233472000002,1352.0238377,s,1,排斥,l,1,0.9204330999998547,0.55277430000001,xmy,m,22,2024_Apr_11_1536,mian,2021.2.3,60.026027285428036,
,,,,,,0,0,pic/flanker5.png,pic/flanker1.png,s,l,pic/EndExp.PNG,,,,,,,,,,,,,,,,,,,,,,,,,0,3,3,3,0,5,5,19,,,,1355.4740809,None,1354.290677,1355.4906468000001,s,1,鲁莽,l,1,0.5953475999999682,0.4933843999999681,xmy,m,22,2024_Apr_11_1536,mian,2021.2.3,60.026027285428036,
