target,反应类型,条件,truetarget,CorAns,Position,congruency,AffValue,flankerPic,targetPic,corAnsF,corAnsA,RestPic,returnPractice.thisRepN,returnPractice.thisTrialN,returnPractice.thisN,returnPractice.thisIndex,pracNum.thisRepN,pracNum.thisTrialN,pracNum.thisN,pracNum.thisIndex,NumBlock1.thisRepN,NumBlock1.thisTrialN,NumBlock1.thisN,NumBlock1.thisIndex,NumBlock2.thisRepN,NumBlock2.thisTrialN,NumBlock2.thisN,NumBlock2.thisIndex,returnPrac.thisRepN,returnPrac.thisTrialN,returnPrac.thisN,returnPrac.thisIndex,PracAff.thisRepN,PracAff.thisTrialN,PracAff.thisN,PracAff.thisIndex,AffBlocks.thisRepN,AffBlocks.thisTrialN,AffBlocks.thisN,AffBlocks.thisIndex,AffBlock1.thisRepN,AffBlock1.thisTrialN,AffBlock1.thisN,AffBlock1.thisIndex,respNum2word.keys,respNum2word.corr,respNum2word.rt,text.started,text.stopped,blank.started,blank.stopped,respFlanker.keys,respFlanker.corr,thisWord,respAffWord.keys,respAffWord.corr,respFlanker.rt,respAffWord.rt,姓名,性别,年龄（周岁）,date,expName,psychopyVersion,frameRate,
2A,1,1,A,a,"[0.2, 0.2]",,,,,,,,0,0,0,0,0,0,0,0,,,,,,,,,,,,,,,,,,,,,,,,,a,1,3.714496699999927,,,,,,,,,,,,xw,m,19,2024_Apr_21_1445,mian,2021.2.3,60.020118743823105,
A9,1,2,A,a,"[-0.2, 0.2]",,,,,,,,0,0,0,0,0,1,1,1,,,,,,,,,,,,,,,,,,,,,,,,,a,1,2.1284778999997798,,,,,,,,,,,,xw,m,19,2024_Apr_21_1445,mian,2021.2.3,60.020118743823105,
7e,2,1,7.0,a,"[-0.2, -0.2]",,,,,,,,0,0,0,0,0,2,2,2,,,,,,,,,,,,,,,,,,,,,,,,,a,1,2.772534700000051,,,,,,,,,,,,xw,m,19,2024_Apr_21_1445,mian,2021.2.3,60.020118743823105,
9H,2,2,9.0,a,"[0.2, -0.2]",,,,,,,,0,0,0,0,0,3,3,3,,,,,,,,,,,,,,,,,,,,,,,,,a,1,1.3524325999997018,,,,,,,,,,,,xw,m,19,2024_Apr_21_1445,mian,2021.2.3,60.020118743823105,
h4,1,1,h,l,"[0.2, 0.2]",,,,,,,,0,0,0,0,0,4,4,4,,,,,,,,,,,,,,,,,,,,,,,,,l,1,1.892690500000299,,,,,,,,,,,,xw,m,19,2024_Apr_21_1445,mian,2021.2.3,60.020118743823105,
4H,1,2,H,a,"[-0.2, 0.2]",,,,,,,,0,0,0,0,0,5,5,5,,,,,,,,,,,,,,,,,,,,,,,,,a,1,0.9345008000000234,,,,,,,,,,,,xw,m,19,2024_Apr_21_1445,mian,2021.2.3,60.020118743823105,
F8,2,1,8.0,l,"[-0.2, -0.2]",,,,,,,,0,0,0,0,0,6,6,6,,,,,,,,,,,,,,,,,,,,,,,,,a,0,1.055755599999884,,,,,,,,,,,,xw,m,19,2024_Apr_21_1445,mian,2021.2.3,60.020118743823105,
h7,2,2,7.0,a,"[0.2, -0.2]",,,,,,,,0,0,0,0,0,7,7,7,,,,,,,,,,,,,,,,,,,,,,,,,a,1,1.320389299999988,,,,,,,,,,,,xw,m,19,2024_Apr_21_1445,mian,2021.2.3,60.020118743823105,
5e,1,1,e,l,"[0.2, 0.2]",,,,,,,,0,0,0,0,0,8,8,8,,,,,,,,,,,,,,,,,,,,,,,,,l,1,2.962576899999931,,,,,,,,,,,,xw,m,19,2024_Apr_21_1445,mian,2021.2.3,60.020118743823105,
e8,1,2,e,l,"[-0.2, 0.2]",,,,,,,,0,0,0,0,0,9,9,9,,,,,,,,,,,,,,,,,,,,,,,,,l,1,3.6720123999998577,,,,,,,,,,,,xw,m,19,2024_Apr_21_1445,mian,2021.2.3,60.020118743823105,
4E,2,1,4.0,l,"[-0.2, -0.2]",,,,,,,,0,0,0,0,0,10,10,10,,,,,,,,,,,,,,,,,,,,,,,,,None,0,,,,,,,,,,,,,xw,m,19,2024_Apr_21_1445,mian,2021.2.3,60.020118743823105,
5H,2,2,5.0,a,"[0.2, -0.2]",,,,,,,,0,0,0,0,0,11,11,11,,,,,,,,,,,,,,,,,,,,,,,,,a,1,2.2126399999997375,,,,,,,,,,,,xw,m,19,2024_Apr_21_1445,mian,2021.2.3,60.020118743823105,
9E,1,1,E,a,"[0.2, 0.2]",,,,,,,,0,0,0,0,0,12,12,12,,,,,,,,,,,,,,,,,,,,,,,,,a,1,1.944521999999779,,,,,,,,,,,,xw,m,19,2024_Apr_21_1445,mian,2021.2.3,60.020118743823105,
h9,1,2,h,l,"[-0.2, 0.2]",,,,,,,,0,0,0,0,0,13,13,13,,,,,,,,,,,,,,,,,,,,,,,,,l,1,0.9341536000001724,,,,,,,,,,,,xw,m,19,2024_Apr_21_1445,mian,2021.2.3,60.020118743823105,
2a,2,1,2.0,l,"[-0.2, -0.2]",,,,,,,,0,0,0,0,0,14,14,14,,,,,,,,,,,,,,,,,,,,,,,,,l,1,1.9257553999996162,,,,,,,,,,,,xw,m,19,2024_Apr_21_1445,mian,2021.2.3,60.020118743823105,
e5,2,2,5.0,a,"[0.2, -0.2]",,,,,,,,0,0,0,0,0,15,15,15,,,,,,,,,,,,,,,,,,,,,,,,,a,1,0.8685637999997198,,,,,,,,,,,,xw,m,19,2024_Apr_21_1445,mian,2021.2.3,60.020118743823105,
A5,1,1,A,a,"[0.2, 0.2]",,,,,,,,0,0,0,0,0,16,16,16,,,,,,,,,,,,,,,,,,,,,,,,,a,1,1.8641993999999613,,,,,,,,,,,,xw,m,19,2024_Apr_21_1445,mian,2021.2.3,60.020118743823105,
a6,1,2,a,l,"[-0.2, 0.2]",,,,,,,,0,0,0,0,0,17,17,17,,,,,,,,,,,,,,,,,,,,,,,,,l,1,1.3805168000008052,,,,,,,,,,,,xw,m,19,2024_Apr_21_1445,mian,2021.2.3,60.020118743823105,
2F,2,1,2.0,l,"[-0.2, -0.2]",,,,,,,,0,0,0,0,0,18,18,18,,,,,,,,,,,,,,,,,,,,,,,,,l,1,1.8333278000000064,,,,,,,,,,,,xw,m,19,2024_Apr_21_1445,mian,2021.2.3,60.020118743823105,
e4,2,2,4.0,l,"[0.2, -0.2]",,,,,,,,0,0,0,0,0,19,19,19,,,,,,,,,,,,,,,,,,,,,,,,,l,1,1.52819240000008,,,,,,,,,,,,xw,m,19,2024_Apr_21_1445,mian,2021.2.3,60.020118743823105,
,,,,,,,,,,,,,0,0,0,0,,,,,,,,,,,,,,,,,,,,,,,,,,,,,,,,,,,,,,,,,,,xw,m,19,2024_Apr_21_1445,mian,2021.2.3,60.020118743823105,
7h,1,1,h,l,"[0.2, 0.2]",,,,,,,,,,,,,,,,0,0,0,0,,,,,,,,,,,,,,,,,,,,,l,1,1.4461427999995067,,,,,,,,,,,,xw,m,19,2024_Apr_21_1445,mian,2021.2.3,60.020118743823105,
8F,1,2,F,a,"[-0.2, 0.2]",,,,,,,,,,,,,,,,0,1,1,1,,,,,,,,,,,,,,,,,,,,,a,1,0.9405418000005739,,,,,,,,,,,,xw,m,19,2024_Apr_21_1445,mian,2021.2.3,60.020118743823105,
8h,2,1,8.0,l,"[-0.2, -0.2]",,,,,,,,,,,,,,,,0,2,2,2,,,,,,,,,,,,,,,,,,,,,l,1,2.414754299999913,,,,,,,,,,,,xw,m,19,2024_Apr_21_1445,mian,2021.2.3,60.020118743823105,
a2,2,2,2.0,l,"[0.2, -0.2]",,,,,,,,,,,,,,,,0,3,3,3,,,,,,,,,,,,,,,,,,,,,l,1,1.321854799999528,,,,,,,,,,,,xw,m,19,2024_Apr_21_1445,mian,2021.2.3,60.020118743823105,
8f,1,1,f,l,"[0.2, 0.2]",,,,,,,,,,,,,,,,0,4,4,4,,,,,,,,,,,,,,,,,,,,,l,1,1.362608999999793,,,,,,,,,,,,xw,m,19,2024_Apr_21_1445,mian,2021.2.3,60.020118743823105,
6a,1,2,a,l,"[-0.2, 0.2]",,,,,,,,,,,,,,,,0,5,5,5,,,,,,,,,,,,,,,,,,,,,l,1,0.6706395000001066,,,,,,,,,,,,xw,m,19,2024_Apr_21_1445,mian,2021.2.3,60.020118743823105,
h6,2,1,6.0,l,"[-0.2, -0.2]",,,,,,,,,,,,,,,,0,6,6,6,,,,,,,,,,,,,,,,,,,,,l,1,1.7736018999994485,,,,,,,,,,,,xw,m,19,2024_Apr_21_1445,mian,2021.2.3,60.020118743823105,
f9,2,2,9.0,a,"[0.2, -0.2]",,,,,,,,,,,,,,,,0,7,7,7,,,,,,,,,,,,,,,,,,,,,a,1,0.8941752999999153,,,,,,,,,,,,xw,m,19,2024_Apr_21_1445,mian,2021.2.3,60.020118743823105,
E4,1,1,E,a,"[0.2, 0.2]",,,,,,,,,,,,,,,,0,8,8,8,,,,,,,,,,,,,,,,,,,,,a,1,1.7313491000004433,,,,,,,,,,,,xw,m,19,2024_Apr_21_1445,mian,2021.2.3,60.020118743823105,
6e,1,2,e,l,"[-0.2, 0.2]",,,,,,,,,,,,,,,,0,9,9,9,,,,,,,,,,,,,,,,,,,,,l,1,0.8379979000001185,,,,,,,,,,,,xw,m,19,2024_Apr_21_1445,mian,2021.2.3,60.020118743823105,
5G,2,1,5.0,a,"[-0.2, -0.2]",,,,,,,,,,,,,,,,0,10,10,10,,,,,,,,,,,,,,,,,,,,,a,1,1.2534641000002011,,,,,,,,,,,,xw,m,19,2024_Apr_21_1445,mian,2021.2.3,60.020118743823105,
h3,2,2,3.0,a,"[0.2, -0.2]",,,,,,,,,,,,,,,,0,11,11,11,,,,,,,,,,,,,,,,,,,,,a,1,0.7962306999997963,,,,,,,,,,,,xw,m,19,2024_Apr_21_1445,mian,2021.2.3,60.020118743823105,
9e,1,1,e,l,"[0.2, 0.2]",,,,,,,,,,,,,,,,0,12,12,12,,,,,,,,,,,,,,,,,,,,,l,1,1.7871100000002116,,,,,,,,,,,,xw,m,19,2024_Apr_21_1445,mian,2021.2.3,60.020118743823105,
a8,1,2,a,l,"[-0.2, 0.2]",,,,,,,,,,,,,,,,0,13,13,13,,,,,,,,,,,,,,,,,,,,,l,1,1.112691399999676,,,,,,,,,,,,xw,m,19,2024_Apr_21_1445,mian,2021.2.3,60.020118743823105,
e8,2,1,8.0,l,"[-0.2, -0.2]",,,,,,,,,,,,,,,,0,14,14,14,,,,,,,,,,,,,,,,,,,,,l,1,1.846519900000203,,,,,,,,,,,,xw,m,19,2024_Apr_21_1445,mian,2021.2.3,60.020118743823105,
3f,2,2,3.0,a,"[0.2, -0.2]",,,,,,,,,,,,,,,,0,15,15,15,,,,,,,,,,,,,,,,,,,,,a,1,0.9266485000007378,,,,,,,,,,,,xw,m,19,2024_Apr_21_1445,mian,2021.2.3,60.020118743823105,
7f,1,1,f,l,"[0.2, 0.2]",,,,,,,,,,,,,,,,0,16,16,16,,,,,,,,,,,,,,,,,,,,,l,1,1.1295595999999932,,,,,,,,,,,,xw,m,19,2024_Apr_21_1445,mian,2021.2.3,60.020118743823105,
a7,1,2,a,l,"[-0.2, 0.2]",,,,,,,,,,,,,,,,0,17,17,17,,,,,,,,,,,,,,,,,,,,,l,1,0.8523994999995921,,,,,,,,,,,,xw,m,19,2024_Apr_21_1445,mian,2021.2.3,60.020118743823105,
5A,2,1,5.0,a,"[-0.2, -0.2]",,,,,,,,,,,,,,,,0,18,18,18,,,,,,,,,,,,,,,,,,,,,a,1,1.6328818000001775,,,,,,,,,,,,xw,m,19,2024_Apr_21_1445,mian,2021.2.3,60.020118743823105,
8g,2,2,8.0,l,"[0.2, -0.2]",,,,,,,,,,,,,,,,0,19,19,19,,,,,,,,,,,,,,,,,,,,,l,1,0.9752987999991092,,,,,,,,,,,,xw,m,19,2024_Apr_21_1445,mian,2021.2.3,60.020118743823105,
9a,1,1,a,l,"[0.2, 0.2]",,,,,,,,,,,,,,,,0,20,20,20,,,,,,,,,,,,,,,,,,,,,l,1,1.2755033000003095,,,,,,,,,,,,xw,m,19,2024_Apr_21_1445,mian,2021.2.3,60.020118743823105,
f7,1,2,f,l,"[-0.2, 0.2]",,,,,,,,,,,,,,,,0,21,21,21,,,,,,,,,,,,,,,,,,,,,l,1,1.8674490000003061,,,,,,,,,,,,xw,m,19,2024_Apr_21_1445,mian,2021.2.3,60.020118743823105,
g9,2,1,9.0,a,"[-0.2, -0.2]",,,,,,,,,,,,,,,,0,22,22,22,,,,,,,,,,,,,,,,,,,,,a,1,1.522786300000007,,,,,,,,,,,,xw,m,19,2024_Apr_21_1445,mian,2021.2.3,60.020118743823105,
3h,2,2,3.0,a,"[0.2, -0.2]",,,,,,,,,,,,,,,,0,23,23,23,,,,,,,,,,,,,,,,,,,,,a,1,1.405513400000018,,,,,,,,,,,,xw,m,19,2024_Apr_21_1445,mian,2021.2.3,60.020118743823105,
E6,1,1,E,a,"[0.2, 0.2]",,,,,,,,,,,,,,,,0,24,24,24,,,,,,,,,,,,,,,,,,,,,a,1,1.0340523000004396,,,,,,,,,,,,xw,m,19,2024_Apr_21_1445,mian,2021.2.3,60.020118743823105,
F6,1,2,F,a,"[-0.2, 0.2]",,,,,,,,,,,,,,,,0,25,25,25,,,,,,,,,,,,,,,,,,,,,a,1,0.7074657000002844,,,,,,,,,,,,xw,m,19,2024_Apr_21_1445,mian,2021.2.3,60.020118743823105,
3A,2,1,3.0,a,"[-0.2, -0.2]",,,,,,,,,,,,,,,,0,26,26,26,,,,,,,,,,,,,,,,,,,,,a,1,1.3771365000002334,,,,,,,,,,,,xw,m,19,2024_Apr_21_1445,mian,2021.2.3,60.020118743823105,
8H,2,2,8.0,l,"[0.2, -0.2]",,,,,,,,,,,,,,,,0,27,27,27,,,,,,,,,,,,,,,,,,,,,l,1,1.5506212999998752,,,,,,,,,,,,xw,m,19,2024_Apr_21_1445,mian,2021.2.3,60.020118743823105,
5a,1,1,a,l,"[0.2, 0.2]",,,,,,,,,,,,,,,,0,28,28,28,,,,,,,,,,,,,,,,,,,,,l,1,1.6406709000002593,,,,,,,,,,,,xw,m,19,2024_Apr_21_1445,mian,2021.2.3,60.020118743823105,
2h,1,2,h,l,"[-0.2, 0.2]",,,,,,,,,,,,,,,,0,29,29,29,,,,,,,,,,,,,,,,,,,,,l,1,2.1084488000005877,,,,,,,,,,,,xw,m,19,2024_Apr_21_1445,mian,2021.2.3,60.020118743823105,
e5,2,1,5.0,a,"[-0.2, -0.2]",,,,,,,,,,,,,,,,0,30,30,30,,,,,,,,,,,,,,,,,,,,,a,1,1.2035194000000047,,,,,,,,,,,,xw,m,19,2024_Apr_21_1445,mian,2021.2.3,60.020118743823105,
a3,2,2,3.0,a,"[0.2, -0.2]",,,,,,,,,,,,,,,,0,31,31,31,,,,,,,,,,,,,,,,,,,,,a,1,0.7057752999999138,,,,,,,,,,,,xw,m,19,2024_Apr_21_1445,mian,2021.2.3,60.020118743823105,
f3,1,1,f,l,"[0.2, 0.2]",,,,,,,,,,,,,,,,0,32,32,32,,,,,,,,,,,,,,,,,,,,,l,1,1.5340347999999722,,,,,,,,,,,,xw,m,19,2024_Apr_21_1445,mian,2021.2.3,60.020118743823105,
2E,1,2,E,a,"[-0.2, 0.2]",,,,,,,,,,,,,,,,0,33,33,33,,,,,,,,,,,,,,,,,,,,,a,1,0.8046669999994265,,,,,,,,,,,,xw,m,19,2024_Apr_21_1445,mian,2021.2.3,60.020118743823105,
2H,2,1,2.0,l,"[-0.2, -0.2]",,,,,,,,,,,,,,,,0,34,34,34,,,,,,,,,,,,,,,,,,,,,l,1,2.0450433000005432,,,,,,,,,,,,xw,m,19,2024_Apr_21_1445,mian,2021.2.3,60.020118743823105,
H8,2,2,8.0,l,"[0.2, -0.2]",,,,,,,,,,,,,,,,0,35,35,35,,,,,,,,,,,,,,,,,,,,,l,1,0.7258333999998285,,,,,,,,,,,,xw,m,19,2024_Apr_21_1445,mian,2021.2.3,60.020118743823105,
9g,1,1,g,l,"[0.2, 0.2]",,,,,,,,,,,,,,,,0,36,36,36,,,,,,,,,,,,,,,,,,,,,l,1,1.304581500000495,,,,,,,,,,,,xw,m,19,2024_Apr_21_1445,mian,2021.2.3,60.020118743823105,
5h,1,2,h,l,"[-0.2, 0.2]",,,,,,,,,,,,,,,,0,37,37,37,,,,,,,,,,,,,,,,,,,,,l,1,1.6563578000004782,,,,,,,,,,,,xw,m,19,2024_Apr_21_1445,mian,2021.2.3,60.020118743823105,
e4,2,1,4.0,l,"[-0.2, -0.2]",,,,,,,,,,,,,,,,0,38,38,38,,,,,,,,,,,,,,,,,,,,,l,1,1.2407277999991493,,,,,,,,,,,,xw,m,19,2024_Apr_21_1445,mian,2021.2.3,60.020118743823105,
9h,2,2,9.0,a,"[0.2, -0.2]",,,,,,,,,,,,,,,,0,39,39,39,,,,,,,,,,,,,,,,,,,,,a,1,1.288931400000365,,,,,,,,,,,,xw,m,19,2024_Apr_21_1445,mian,2021.2.3,60.020118743823105,
G3,1,1,G,a,"[0.2, 0.2]",,,,,,,,,,,,,,,,0,40,40,40,,,,,,,,,,,,,,,,,,,,,a,1,4.266641999999592,,,,,,,,,,,,xw,m,19,2024_Apr_21_1445,mian,2021.2.3,60.020118743823105,
9A,1,2,A,a,"[-0.2, 0.2]",,,,,,,,,,,,,,,,0,41,41,41,,,,,,,,,,,,,,,,,,,,,a,1,0.6365921999995408,,,,,,,,,,,,xw,m,19,2024_Apr_21_1445,mian,2021.2.3,60.020118743823105,
H5,2,1,5.0,a,"[-0.2, -0.2]",,,,,,,,,,,,,,,,0,42,42,42,,,,,,,,,,,,,,,,,,,,,a,1,1.105424899999889,,,,,,,,,,,,xw,m,19,2024_Apr_21_1445,mian,2021.2.3,60.020118743823105,
4e,2,2,4.0,l,"[0.2, -0.2]",,,,,,,,,,,,,,,,0,43,43,43,,,,,,,,,,,,,,,,,,,,,l,1,2.636563999999453,,,,,,,,,,,,xw,m,19,2024_Apr_21_1445,mian,2021.2.3,60.020118743823105,
E2,1,1,E,a,"[0.2, 0.2]",,,,,,,,,,,,,,,,0,44,44,44,,,,,,,,,,,,,,,,,,,,,a,1,0.8518420999998852,,,,,,,,,,,,xw,m,19,2024_Apr_21_1445,mian,2021.2.3,60.020118743823105,
A5,1,2,A,a,"[-0.2, 0.2]",,,,,,,,,,,,,,,,0,45,45,45,,,,,,,,,,,,,,,,,,,,,a,1,1.2681772999994791,,,,,,,,,,,,xw,m,19,2024_Apr_21_1445,mian,2021.2.3,60.020118743823105,
2A,2,1,2.0,l,"[-0.2, -0.2]",,,,,,,,,,,,,,,,0,46,46,46,,,,,,,,,,,,,,,,,,,,,l,1,1.7425013000001854,,,,,,,,,,,,xw,m,19,2024_Apr_21_1445,mian,2021.2.3,60.020118743823105,
6G,2,2,6.0,l,"[0.2, -0.2]",,,,,,,,,,,,,,,,0,47,47,47,,,,,,,,,,,,,,,,,,,,,l,1,0.8457396000003428,,,,,,,,,,,,xw,m,19,2024_Apr_21_1445,mian,2021.2.3,60.020118743823105,
H3,1,1,H,a,"[0.2, 0.2]",,,,,,,,,,,,,,,,0,48,48,48,,,,,,,,,,,,,,,,,,,,,a,1,1.2642980999999054,,,,,,,,,,,,xw,m,19,2024_Apr_21_1445,mian,2021.2.3,60.020118743823105,
H2,1,2,H,a,"[-0.2, 0.2]",,,,,,,,,,,,,,,,0,49,49,49,,,,,,,,,,,,,,,,,,,,,a,1,0.5588068000006388,,,,,,,,,,,,xw,m,19,2024_Apr_21_1445,mian,2021.2.3,60.020118743823105,
e9,2,1,9.0,a,"[-0.2, -0.2]",,,,,,,,,,,,,,,,0,50,50,50,,,,,,,,,,,,,,,,,,,,,a,1,2.2526928999996017,,,,,,,,,,,,xw,m,19,2024_Apr_21_1445,mian,2021.2.3,60.020118743823105,
2G,2,2,2.0,l,"[0.2, -0.2]",,,,,,,,,,,,,,,,0,51,51,51,,,,,,,,,,,,,,,,,,,,,l,1,0.7374572999997326,,,,,,,,,,,,xw,m,19,2024_Apr_21_1445,mian,2021.2.3,60.020118743823105,
4f,1,1,f,l,"[0.2, 0.2]",,,,,,,,,,,,,,,,0,52,52,52,,,,,,,,,,,,,,,,,,,,,l,1,1.0876342999999906,,,,,,,,,,,,xw,m,19,2024_Apr_21_1445,mian,2021.2.3,60.020118743823105,
H6,1,2,H,a,"[-0.2, 0.2]",,,,,,,,,,,,,,,,0,53,53,53,,,,,,,,,,,,,,,,,,,,,a,1,0.5272230000000491,,,,,,,,,,,,xw,m,19,2024_Apr_21_1445,mian,2021.2.3,60.020118743823105,
A4,2,1,4.0,l,"[-0.2, -0.2]",,,,,,,,,,,,,,,,0,54,54,54,,,,,,,,,,,,,,,,,,,,,l,1,2.626332900000307,,,,,,,,,,,,xw,m,19,2024_Apr_21_1445,mian,2021.2.3,60.020118743823105,
3F,2,2,3.0,a,"[0.2, -0.2]",,,,,,,,,,,,,,,,0,55,55,55,,,,,,,,,,,,,,,,,,,,,a,1,0.9536073999997825,,,,,,,,,,,,xw,m,19,2024_Apr_21_1445,mian,2021.2.3,60.020118743823105,
7e,1,1,e,l,"[0.2, 0.2]",,,,,,,,,,,,,,,,0,56,56,56,,,,,,,,,,,,,,,,,,,,,l,1,0.7630705999999918,,,,,,,,,,,,xw,m,19,2024_Apr_21_1445,mian,2021.2.3,60.020118743823105,
F9,1,2,F,a,"[-0.2, 0.2]",,,,,,,,,,,,,,,,0,57,57,57,,,,,,,,,,,,,,,,,,,,,a,1,1.2786192000003211,,,,,,,,,,,,xw,m,19,2024_Apr_21_1445,mian,2021.2.3,60.020118743823105,
e2,2,1,2.0,l,"[-0.2, -0.2]",,,,,,,,,,,,,,,,0,58,58,58,,,,,,,,,,,,,,,,,,,,,l,1,1.4034025999999358,,,,,,,,,,,,xw,m,19,2024_Apr_21_1445,mian,2021.2.3,60.020118743823105,
5F,2,2,5.0,a,"[0.2, -0.2]",,,,,,,,,,,,,,,,0,59,59,59,,,,,,,,,,,,,,,,,,,,,a,1,0.5257924999996249,,,,,,,,,,,,xw,m,19,2024_Apr_21_1445,mian,2021.2.3,60.020118743823105,
f6,1,1,f,l,"[0.2, 0.2]",,,,,,,,,,,,,,,,0,60,60,60,,,,,,,,,,,,,,,,,,,,,l,1,0.49912750000021333,,,,,,,,,,,,xw,m,19,2024_Apr_21_1445,mian,2021.2.3,60.020118743823105,
7G,1,2,G,a,"[-0.2, 0.2]",,,,,,,,,,,,,,,,0,61,61,61,,,,,,,,,,,,,,,,,,,,,a,1,0.6670873000002757,,,,,,,,,,,,xw,m,19,2024_Apr_21_1445,mian,2021.2.3,60.020118743823105,
e6,2,1,6.0,l,"[-0.2, -0.2]",,,,,,,,,,,,,,,,0,62,62,62,,,,,,,,,,,,,,,,,,,,,l,1,1.0703767999993943,,,,,,,,,,,,xw,m,19,2024_Apr_21_1445,mian,2021.2.3,60.020118743823105,
3G,2,2,3.0,a,"[0.2, -0.2]",,,,,,,,,,,,,,,,0,63,63,63,,,,,,,,,,,,,,,,,,,,,a,1,0.46398539999972854,,,,,,,,,,,,xw,m,19,2024_Apr_21_1445,mian,2021.2.3,60.020118743823105,
5E,1,1,E,a,"[0.2, 0.2]",,,,,,,,,,,,,,,,0,64,64,64,,,,,,,,,,,,,,,,,,,,,a,1,0.8752434999996694,,,,,,,,,,,,xw,m,19,2024_Apr_21_1445,mian,2021.2.3,60.020118743823105,
A6,1,2,A,a,"[-0.2, 0.2]",,,,,,,,,,,,,,,,0,65,65,65,,,,,,,,,,,,,,,,,,,,,a,1,0.4727431000001161,,,,,,,,,,,,xw,m,19,2024_Apr_21_1445,mian,2021.2.3,60.020118743823105,
E3,2,1,3.0,a,"[-0.2, -0.2]",,,,,,,,,,,,,,,,0,66,66,66,,,,,,,,,,,,,,,,,,,,,a,1,2.33832429999984,,,,,,,,,,,,xw,m,19,2024_Apr_21_1445,mian,2021.2.3,60.020118743823105,
2f,2,2,2.0,l,"[0.2, -0.2]",,,,,,,,,,,,,,,,0,67,67,67,,,,,,,,,,,,,,,,,,,,,l,1,0.6658413999994082,,,,,,,,,,,,xw,m,19,2024_Apr_21_1445,mian,2021.2.3,60.020118743823105,
g3,1,1,g,l,"[0.2, 0.2]",,,,,,,,,,,,,,,,0,68,68,68,,,,,,,,,,,,,,,,,,,,,l,1,1.306939500000226,,,,,,,,,,,,xw,m,19,2024_Apr_21_1445,mian,2021.2.3,60.020118743823105,
E8,1,2,E,a,"[-0.2, 0.2]",,,,,,,,,,,,,,,,0,69,69,69,,,,,,,,,,,,,,,,,,,,,a,1,1.345396400000027,,,,,,,,,,,,xw,m,19,2024_Apr_21_1445,mian,2021.2.3,60.020118743823105,
6g,2,1,6.0,l,"[-0.2, -0.2]",,,,,,,,,,,,,,,,0,70,70,70,,,,,,,,,,,,,,,,,,,,,l,1,1.5432932000003348,,,,,,,,,,,,xw,m,19,2024_Apr_21_1445,mian,2021.2.3,60.020118743823105,
5H,2,2,5.0,a,"[0.2, -0.2]",,,,,,,,,,,,,,,,0,71,71,71,,,,,,,,,,,,,,,,,,,,,a,1,0.6151328000005378,,,,,,,,,,,,xw,m,19,2024_Apr_21_1445,mian,2021.2.3,60.020118743823105,
4A,1,1,A,a,"[0.2, 0.2]",,,,,,,,,,,,,,,,0,72,72,72,,,,,,,,,,,,,,,,,,,,,a,1,0.529171099999985,,,,,,,,,,,,xw,m,19,2024_Apr_21_1445,mian,2021.2.3,60.020118743823105,
7F,1,2,F,a,"[-0.2, 0.2]",,,,,,,,,,,,,,,,0,73,73,73,,,,,,,,,,,,,,,,,,,,,a,1,0.6242025000001377,,,,,,,,,,,,xw,m,19,2024_Apr_21_1445,mian,2021.2.3,60.020118743823105,
6H,2,1,6.0,l,"[-0.2, -0.2]",,,,,,,,,,,,,,,,0,74,74,74,,,,,,,,,,,,,,,,,,,,,l,1,0.9078251999999338,,,,,,,,,,,,xw,m,19,2024_Apr_21_1445,mian,2021.2.3,60.020118743823105,
3a,2,2,3.0,a,"[0.2, -0.2]",,,,,,,,,,,,,,,,0,75,75,75,,,,,,,,,,,,,,,,,,,,,a,1,0.6120309999996607,,,,,,,,,,,,xw,m,19,2024_Apr_21_1445,mian,2021.2.3,60.020118743823105,
9F,1,1,F,a,"[0.2, 0.2]",,,,,,,,,,,,,,,,0,76,76,76,,,,,,,,,,,,,,,,,,,,,a,1,1.5146446999997352,,,,,,,,,,,,xw,m,19,2024_Apr_21_1445,mian,2021.2.3,60.020118743823105,
G7,1,2,G,a,"[-0.2, 0.2]",,,,,,,,,,,,,,,,0,77,77,77,,,,,,,,,,,,,,,,,,,,,a,1,0.574063500000193,,,,,,,,,,,,xw,m,19,2024_Apr_21_1445,mian,2021.2.3,60.020118743823105,
a6,2,1,6.0,l,"[-0.2, -0.2]",,,,,,,,,,,,,,,,0,78,78,78,,,,,,,,,,,,,,,,,,,,,l,1,0.6954839999998512,,,,,,,,,,,,xw,m,19,2024_Apr_21_1445,mian,2021.2.3,60.020118743823105,
4h,2,2,4.0,l,"[0.2, -0.2]",,,,,,,,,,,,,,,,0,79,79,79,,,,,,,,,,,,,,,,,,,,,l,1,0.7545485999999073,,,,,,,,,,,,xw,m,19,2024_Apr_21_1445,mian,2021.2.3,60.020118743823105,
6A,1,1,A,a,"[0.2, 0.2]",,,,,,,,,,,,,,,,,,,,0,0,0,0,,,,,,,,,,,,,,,,,a,1,2.353896800000257,,,,,,,,,,,,xw,m,19,2024_Apr_21_1445,mian,2021.2.3,60.020118743823105,
4H,1,2,H,a,"[-0.2, 0.2]",,,,,,,,,,,,,,,,,,,,0,1,1,1,,,,,,,,,,,,,,,,,a,1,0.5832105999998021,,,,,,,,,,,,xw,m,19,2024_Apr_21_1445,mian,2021.2.3,60.020118743823105,
3H,2,1,3.0,a,"[-0.2, -0.2]",,,,,,,,,,,,,,,,,,,,0,2,2,2,,,,,,,,,,,,,,,,,a,1,1.6653781000004528,,,,,,,,,,,,xw,m,19,2024_Apr_21_1445,mian,2021.2.3,60.020118743823105,
a9,2,2,9.0,a,"[0.2, -0.2]",,,,,,,,,,,,,,,,,,,,0,3,3,3,,,,,,,,,,,,,,,,,a,1,0.8784564999996292,,,,,,,,,,,,xw,m,19,2024_Apr_21_1445,mian,2021.2.3,60.020118743823105,
E7,1,1,E,a,"[0.2, 0.2]",,,,,,,,,,,,,,,,,,,,0,4,4,4,,,,,,,,,,,,,,,,,a,1,0.7890213999999105,,,,,,,,,,,,xw,m,19,2024_Apr_21_1445,mian,2021.2.3,60.020118743823105,
6h,1,2,h,l,"[-0.2, 0.2]",,,,,,,,,,,,,,,,,,,,0,5,5,5,,,,,,,,,,,,,,,,,l,1,1.692004999999881,,,,,,,,,,,,xw,m,19,2024_Apr_21_1445,mian,2021.2.3,60.020118743823105,
8A,2,1,8.0,l,"[-0.2, -0.2]",,,,,,,,,,,,,,,,,,,,0,6,6,6,,,,,,,,,,,,,,,,,l,1,1.1802439000002778,,,,,,,,,,,,xw,m,19,2024_Apr_21_1445,mian,2021.2.3,60.020118743823105,
f5,2,2,5.0,a,"[0.2, -0.2]",,,,,,,,,,,,,,,,,,,,0,7,7,7,,,,,,,,,,,,,,,,,a,1,0.6707356000006257,,,,,,,,,,,,xw,m,19,2024_Apr_21_1445,mian,2021.2.3,60.020118743823105,
2a,1,1,a,l,"[0.2, 0.2]",,,,,,,,,,,,,,,,,,,,0,8,8,8,,,,,,,,,,,,,,,,,l,1,1.18570869999985,,,,,,,,,,,,xw,m,19,2024_Apr_21_1445,mian,2021.2.3,60.020118743823105,
F7,1,2,F,a,"[-0.2, 0.2]",,,,,,,,,,,,,,,,,,,,0,9,9,9,,,,,,,,,,,,,,,,,a,1,0.6351972000002206,,,,,,,,,,,,xw,m,19,2024_Apr_21_1445,mian,2021.2.3,60.020118743823105,
h2,2,1,2.0,l,"[-0.2, -0.2]",,,,,,,,,,,,,,,,,,,,0,10,10,10,,,,,,,,,,,,,,,,,l,1,1.3577384000000166,,,,,,,,,,,,xw,m,19,2024_Apr_21_1445,mian,2021.2.3,60.020118743823105,
F5,2,2,5.0,a,"[0.2, -0.2]",,,,,,,,,,,,,,,,,,,,0,11,11,11,,,,,,,,,,,,,,,,,a,1,0.7430140999995274,,,,,,,,,,,,xw,m,19,2024_Apr_21_1445,mian,2021.2.3,60.020118743823105,
A9,1,1,A,a,"[0.2, 0.2]",,,,,,,,,,,,,,,,,,,,0,12,12,12,,,,,,,,,,,,,,,,,a,1,0.5459092999999484,,,,,,,,,,,,xw,m,19,2024_Apr_21_1445,mian,2021.2.3,60.020118743823105,
3e,1,2,e,l,"[-0.2, 0.2]",,,,,,,,,,,,,,,,,,,,0,13,13,13,,,,,,,,,,,,,,,,,l,1,1.3731729999999516,,,,,,,,,,,,xw,m,19,2024_Apr_21_1445,mian,2021.2.3,60.020118743823105,
f8,2,1,8.0,l,"[-0.2, -0.2]",,,,,,,,,,,,,,,,,,,,0,14,14,14,,,,,,,,,,,,,,,,,l,1,0.7297293000001446,,,,,,,,,,,,xw,m,19,2024_Apr_21_1445,mian,2021.2.3,60.020118743823105,
G2,2,2,2.0,l,"[0.2, -0.2]",,,,,,,,,,,,,,,,,,,,0,15,15,15,,,,,,,,,,,,,,,,,l,1,0.9392754000000423,,,,,,,,,,,,xw,m,19,2024_Apr_21_1445,mian,2021.2.3,60.020118743823105,
F2,1,1,F,a,"[0.2, 0.2]",,,,,,,,,,,,,,,,,,,,0,16,16,16,,,,,,,,,,,,,,,,,a,1,0.9918926000000283,,,,,,,,,,,,xw,m,19,2024_Apr_21_1445,mian,2021.2.3,60.020118743823105,
5e,1,2,e,l,"[-0.2, 0.2]",,,,,,,,,,,,,,,,,,,,0,17,17,17,,,,,,,,,,,,,,,,,l,1,0.8914052000000083,,,,,,,,,,,,xw,m,19,2024_Apr_21_1445,mian,2021.2.3,60.020118743823105,
A3,2,1,3.0,a,"[-0.2, -0.2]",,,,,,,,,,,,,,,,,,,,0,18,18,18,,,,,,,,,,,,,,,,,a,1,0.9571531999999934,,,,,,,,,,,,xw,m,19,2024_Apr_21_1445,mian,2021.2.3,60.020118743823105,
4g,2,2,4.0,l,"[0.2, -0.2]",,,,,,,,,,,,,,,,,,,,0,19,19,19,,,,,,,,,,,,,,,,,l,1,0.6577964999996766,,,,,,,,,,,,xw,m,19,2024_Apr_21_1445,mian,2021.2.3,60.020118743823105,
h7,1,1,h,l,"[0.2, 0.2]",,,,,,,,,,,,,,,,,,,,0,20,20,20,,,,,,,,,,,,,,,,,l,1,2.007980299999872,,,,,,,,,,,,xw,m,19,2024_Apr_21_1445,mian,2021.2.3,60.020118743823105,
3g,1,2,g,l,"[-0.2, 0.2]",,,,,,,,,,,,,,,,,,,,0,21,21,21,,,,,,,,,,,,,,,,,l,1,0.6382347999997364,,,,,,,,,,,,xw,m,19,2024_Apr_21_1445,mian,2021.2.3,60.020118743823105,
8a,2,1,8.0,l,"[-0.2, -0.2]",,,,,,,,,,,,,,,,,,,,0,22,22,22,,,,,,,,,,,,,,,,,l,1,1.0685276000003796,,,,,,,,,,,,xw,m,19,2024_Apr_21_1445,mian,2021.2.3,60.020118743823105,
4E,2,2,4.0,l,"[0.2, -0.2]",,,,,,,,,,,,,,,,,,,,0,23,23,23,,,,,,,,,,,,,,,,,l,1,0.740986800000428,,,,,,,,,,,,xw,m,19,2024_Apr_21_1445,mian,2021.2.3,60.020118743823105,
E5,1,1,E,a,"[0.2, 0.2]",,,,,,,,,,,,,,,,,,,,0,24,24,24,,,,,,,,,,,,,,,,,a,1,1.2729101999993873,,,,,,,,,,,,xw,m,19,2024_Apr_21_1445,mian,2021.2.3,60.020118743823105,
g6,1,2,g,l,"[-0.2, 0.2]",,,,,,,,,,,,,,,,,,,,0,25,25,25,,,,,,,,,,,,,,,,,l,1,0.6066516000000775,,,,,,,,,,,,xw,m,19,2024_Apr_21_1445,mian,2021.2.3,60.020118743823105,
2e,2,1,2.0,l,"[-0.2, -0.2]",,,,,,,,,,,,,,,,,,,,0,26,26,26,,,,,,,,,,,,,,,,,l,1,0.8031313000001319,,,,,,,,,,,,xw,m,19,2024_Apr_21_1445,mian,2021.2.3,60.020118743823105,
h8,2,2,8.0,l,"[0.2, -0.2]",,,,,,,,,,,,,,,,,,,,0,27,27,27,,,,,,,,,,,,,,,,,l,1,0.6775527999998303,,,,,,,,,,,,xw,m,19,2024_Apr_21_1445,mian,2021.2.3,60.020118743823105,
G6,1,1,G,a,"[0.2, 0.2]",,,,,,,,,,,,,,,,,,,,0,28,28,28,,,,,,,,,,,,,,,,,a,1,0.5972564000003331,,,,,,,,,,,,xw,m,19,2024_Apr_21_1445,mian,2021.2.3,60.020118743823105,
a4,1,2,a,l,"[-0.2, 0.2]",,,,,,,,,,,,,,,,,,,,0,29,29,29,,,,,,,,,,,,,,,,,l,1,0.5267076000000088,,,,,,,,,,,,xw,m,19,2024_Apr_21_1445,mian,2021.2.3,60.020118743823105,
9H,2,1,9.0,a,"[-0.2, -0.2]",,,,,,,,,,,,,,,,,,,,0,30,30,30,,,,,,,,,,,,,,,,,a,1,1.7318561000001864,,,,,,,,,,,,xw,m,19,2024_Apr_21_1445,mian,2021.2.3,60.020118743823105,
7H,2,2,7.0,a,"[0.2, -0.2]",,,,,,,,,,,,,,,,,,,,0,31,31,31,,,,,,,,,,,,,,,,,a,1,0.5584460000000036,,,,,,,,,,,,xw,m,19,2024_Apr_21_1445,mian,2021.2.3,60.020118743823105,
9f,1,1,f,l,"[0.2, 0.2]",,,,,,,,,,,,,,,,,,,,0,32,32,32,,,,,,,,,,,,,,,,,l,1,0.9198117999994793,,,,,,,,,,,,xw,m,19,2024_Apr_21_1445,mian,2021.2.3,60.020118743823105,
8E,1,2,E,a,"[-0.2, 0.2]",,,,,,,,,,,,,,,,,,,,0,33,33,33,,,,,,,,,,,,,,,,,a,1,0.5084594999998444,,,,,,,,,,,,xw,m,19,2024_Apr_21_1445,mian,2021.2.3,60.020118743823105,
A2,2,1,2.0,l,"[-0.2, -0.2]",,,,,,,,,,,,,,,,,,,,0,34,34,34,,,,,,,,,,,,,,,,,l,1,1.8398846999998568,,,,,,,,,,,,xw,m,19,2024_Apr_21_1445,mian,2021.2.3,60.020118743823105,
H7,2,2,7.0,a,"[0.2, -0.2]",,,,,,,,,,,,,,,,,,,,0,35,35,35,,,,,,,,,,,,,,,,,a,1,0.6036789999998291,,,,,,,,,,,,xw,m,19,2024_Apr_21_1445,mian,2021.2.3,60.020118743823105,
h9,1,1,h,l,"[0.2, 0.2]",,,,,,,,,,,,,,,,,,,,0,36,36,36,,,,,,,,,,,,,,,,,l,1,1.3042759999998452,,,,,,,,,,,,xw,m,19,2024_Apr_21_1445,mian,2021.2.3,60.020118743823105,
8G,1,2,G,a,"[-0.2, 0.2]",,,,,,,,,,,,,,,,,,,,0,37,37,37,,,,,,,,,,,,,,,,,a,1,0.48938060000000405,,,,,,,,,,,,xw,m,19,2024_Apr_21_1445,mian,2021.2.3,60.020118743823105,
H4,2,1,4.0,l,"[-0.2, -0.2]",,,,,,,,,,,,,,,,,,,,0,38,38,38,,,,,,,,,,,,,,,,,l,1,1.1888552999998865,,,,,,,,,,,,xw,m,19,2024_Apr_21_1445,mian,2021.2.3,60.020118743823105,
A8,2,2,8.0,l,"[0.2, -0.2]",,,,,,,,,,,,,,,,,,,,0,39,39,39,,,,,,,,,,,,,,,,,l,1,0.7632181999997556,,,,,,,,,,,,xw,m,19,2024_Apr_21_1445,mian,2021.2.3,60.020118743823105,
g7,1,1,g,l,"[0.2, 0.2]",,,,,,,,,,,,,,,,,,,,0,40,40,40,,,,,,,,,,,,,,,,,l,1,0.6796865999995134,,,,,,,,,,,,xw,m,19,2024_Apr_21_1445,mian,2021.2.3,60.020118743823105,
H9,1,2,H,a,"[-0.2, 0.2]",,,,,,,,,,,,,,,,,,,,0,41,41,41,,,,,,,,,,,,,,,,,a,1,1.4179114000007758,,,,,,,,,,,,xw,m,19,2024_Apr_21_1445,mian,2021.2.3,60.020118743823105,
9E,2,1,9.0,a,"[-0.2, -0.2]",,,,,,,,,,,,,,,,,,,,0,42,42,42,,,,,,,,,,,,,,,,,a,1,0.8615279999994527,,,,,,,,,,,,xw,m,19,2024_Apr_21_1445,mian,2021.2.3,60.020118743823105,
a5,2,2,5.0,a,"[0.2, -0.2]",,,,,,,,,,,,,,,,,,,,0,43,43,43,,,,,,,,,,,,,,,,,a,1,0.6958785999995598,,,,,,,,,,,,xw,m,19,2024_Apr_21_1445,mian,2021.2.3,60.020118743823105,
3E,1,1,E,a,"[0.2, 0.2]",,,,,,,,,,,,,,,,,,,,0,44,44,44,,,,,,,,,,,,,,,,,a,1,0.5677864999997837,,,,,,,,,,,,xw,m,19,2024_Apr_21_1445,mian,2021.2.3,60.020118743823105,
6f,1,2,f,l,"[-0.2, 0.2]",,,,,,,,,,,,,,,,,,,,0,45,45,45,,,,,,,,,,,,,,,,,l,1,0.6910124999994878,,,,,,,,,,,,xw,m,19,2024_Apr_21_1445,mian,2021.2.3,60.020118743823105,
g8,2,1,8.0,l,"[-0.2, -0.2]",,,,,,,,,,,,,,,,,,,,0,46,46,46,,,,,,,,,,,,,,,,,l,1,1.027256800000032,,,,,,,,,,,,xw,m,19,2024_Apr_21_1445,mian,2021.2.3,60.020118743823105,
4F,2,2,4.0,l,"[0.2, -0.2]",,,,,,,,,,,,,,,,,,,,0,47,47,47,,,,,,,,,,,,,,,,,l,1,0.6412060000002384,,,,,,,,,,,,xw,m,19,2024_Apr_21_1445,mian,2021.2.3,60.020118743823105,
4a,1,1,a,l,"[0.2, 0.2]",,,,,,,,,,,,,,,,,,,,0,48,48,48,,,,,,,,,,,,,,,,,l,1,0.9017330000006041,,,,,,,,,,,,xw,m,19,2024_Apr_21_1445,mian,2021.2.3,60.020118743823105,
e3,1,2,e,l,"[-0.2, 0.2]",,,,,,,,,,,,,,,,,,,,0,49,49,49,,,,,,,,,,,,,,,,,l,1,0.7436417999997502,,,,,,,,,,,,xw,m,19,2024_Apr_21_1445,mian,2021.2.3,60.020118743823105,
5g,2,1,5.0,a,"[-0.2, -0.2]",,,,,,,,,,,,,,,,,,,,0,50,50,50,,,,,,,,,,,,,,,,,a,1,1.0455743000002258,,,,,,,,,,,,xw,m,19,2024_Apr_21_1445,mian,2021.2.3,60.020118743823105,
f4,2,2,4.0,l,"[0.2, -0.2]",,,,,,,,,,,,,,,,,,,,0,51,51,51,,,,,,,,,,,,,,,,,l,1,0.7568430999999691,,,,,,,,,,,,xw,m,19,2024_Apr_21_1445,mian,2021.2.3,60.020118743823105,
6E,1,1,E,a,"[0.2, 0.2]",,,,,,,,,,,,,,,,,,,,0,52,52,52,,,,,,,,,,,,,,,,,a,1,0.5230856999996831,,,,,,,,,,,,xw,m,19,2024_Apr_21_1445,mian,2021.2.3,60.020118743823105,
7A,1,2,A,a,"[-0.2, 0.2]",,,,,,,,,,,,,,,,,,,,0,53,53,53,,,,,,,,,,,,,,,,,a,1,0.6713890000000902,,,,,,,,,,,,xw,m,19,2024_Apr_21_1445,mian,2021.2.3,60.020118743823105,
F4,2,1,4.0,l,"[-0.2, -0.2]",,,,,,,,,,,,,,,,,,,,0,54,54,54,,,,,,,,,,,,,,,,,l,1,1.7260491999995793,,,,,,,,,,,,xw,m,19,2024_Apr_21_1445,mian,2021.2.3,60.020118743823105,
2g,2,2,2.0,l,"[0.2, -0.2]",,,,,,,,,,,,,,,,,,,,0,55,55,55,,,,,,,,,,,,,,,,,l,1,0.6442609000005177,,,,,,,,,,,,xw,m,19,2024_Apr_21_1445,mian,2021.2.3,60.020118743823105,
7E,1,1,E,a,"[0.2, 0.2]",,,,,,,,,,,,,,,,,,,,0,56,56,56,,,,,,,,,,,,,,,,,a,1,1.0916032000004634,,,,,,,,,,,,xw,m,19,2024_Apr_21_1445,mian,2021.2.3,60.020118743823105,
G4,1,2,G,a,"[-0.2, 0.2]",,,,,,,,,,,,,,,,,,,,0,57,57,57,,,,,,,,,,,,,,,,,a,1,0.5173840999996173,,,,,,,,,,,,xw,m,19,2024_Apr_21_1445,mian,2021.2.3,60.020118743823105,
2F,2,1,2.0,l,"[-0.2, -0.2]",,,,,,,,,,,,,,,,,,,,0,58,58,58,,,,,,,,,,,,,,,,,l,1,1.0831029000000854,,,,,,,,,,,,xw,m,19,2024_Apr_21_1445,mian,2021.2.3,60.020118743823105,
E9,2,2,9.0,a,"[0.2, -0.2]",,,,,,,,,,,,,,,,,,,,0,59,59,59,,,,,,,,,,,,,,,,,a,1,0.8990343999994366,,,,,,,,,,,,xw,m,19,2024_Apr_21_1445,mian,2021.2.3,60.020118743823105,
5f,1,1,f,l,"[0.2, 0.2]",,,,,,,,,,,,,,,,,,,,0,60,60,60,,,,,,,,,,,,,,,,,l,1,1.0459340000006705,,,,,,,,,,,,xw,m,19,2024_Apr_21_1445,mian,2021.2.3,60.020118743823105,
e7,1,2,e,l,"[-0.2, 0.2]",,,,,,,,,,,,,,,,,,,,0,61,61,61,,,,,,,,,,,,,,,,,l,1,0.48329349999949045,,,,,,,,,,,,xw,m,19,2024_Apr_21_1445,mian,2021.2.3,60.020118743823105,
f2,2,1,2.0,l,"[-0.2, -0.2]",,,,,,,,,,,,,,,,,,,,0,62,62,62,,,,,,,,,,,,,,,,,l,1,0.9763168999998015,,,,,,,,,,,,xw,m,19,2024_Apr_21_1445,mian,2021.2.3,60.020118743823105,
G9,2,2,9.0,a,"[0.2, -0.2]",,,,,,,,,,,,,,,,,,,,0,63,63,63,,,,,,,,,,,,,,,,,a,1,0.988427700000102,,,,,,,,,,,,xw,m,19,2024_Apr_21_1445,mian,2021.2.3,60.020118743823105,
7g,1,1,g,l,"[0.2, 0.2]",,,,,,,,,,,,,,,,,,,,0,64,64,64,,,,,,,,,,,,,,,,,l,1,0.9982483000003413,,,,,,,,,,,,xw,m,19,2024_Apr_21_1445,mian,2021.2.3,60.020118743823105,
F8,1,2,F,a,"[-0.2, 0.2]",,,,,,,,,,,,,,,,,,,,0,65,65,65,,,,,,,,,,,,,,,,,a,1,0.4754824000001463,,,,,,,,,,,,xw,m,19,2024_Apr_21_1445,mian,2021.2.3,60.020118743823105,
A7,2,1,7.0,a,"[-0.2, -0.2]",,,,,,,,,,,,,,,,,,,,0,66,66,66,,,,,,,,,,,,,,,,,a,1,1.5715398000002097,,,,,,,,,,,,xw,m,19,2024_Apr_21_1445,mian,2021.2.3,60.020118743823105,
4G,2,2,4.0,l,"[0.2, -0.2]",,,,,,,,,,,,,,,,,,,,0,67,67,67,,,,,,,,,,,,,,,,,l,1,0.5881688999998005,,,,,,,,,,,,xw,m,19,2024_Apr_21_1445,mian,2021.2.3,60.020118743823105,
g2,1,1,g,l,"[0.2, 0.2]",,,,,,,,,,,,,,,,,,,,0,68,68,68,,,,,,,,,,,,,,,,,l,1,0.9340846999994028,,,,,,,,,,,,xw,m,19,2024_Apr_21_1445,mian,2021.2.3,60.020118743823105,
g4,1,2,g,l,"[-0.2, 0.2]",,,,,,,,,,,,,,,,,,,,0,69,69,69,,,,,,,,,,,,,,,,,l,1,1.218376800000442,,,,,,,,,,,,xw,m,19,2024_Apr_21_1445,mian,2021.2.3,60.020118743823105,
7a,2,1,7.0,a,"[-0.2, -0.2]",,,,,,,,,,,,,,,,,,,,0,70,70,70,,,,,,,,,,,,,,,,,a,1,0.9672712999999931,,,,,,,,,,,,xw,m,19,2024_Apr_21_1445,mian,2021.2.3,60.020118743823105,
8e,2,2,8.0,l,"[0.2, -0.2]",,,,,,,,,,,,,,,,,,,,0,71,71,71,,,,,,,,,,,,,,,,,l,1,1.6452936000005138,,,,,,,,,,,,xw,m,19,2024_Apr_21_1445,mian,2021.2.3,60.020118743823105,
h4,1,1,h,l,"[0.2, 0.2]",,,,,,,,,,,,,,,,,,,,0,72,72,72,,,,,,,,,,,,,,,,,l,1,1.5006522000003315,,,,,,,,,,,,xw,m,19,2024_Apr_21_1445,mian,2021.2.3,60.020118743823105,
G8,1,2,G,a,"[-0.2, 0.2]",,,,,,,,,,,,,,,,,,,,0,73,73,73,,,,,,,,,,,,,,,,,a,1,0.42423629999939294,,,,,,,,,,,,xw,m,19,2024_Apr_21_1445,mian,2021.2.3,60.020118743823105,
6F,2,1,6.0,l,"[-0.2, -0.2]",,,,,,,,,,,,,,,,,,,,0,74,74,74,,,,,,,,,,,,,,,,,l,1,0.8062389999995503,,,,,,,,,,,,xw,m,19,2024_Apr_21_1445,mian,2021.2.3,60.020118743823105,
g5,2,2,5.0,a,"[0.2, -0.2]",,,,,,,,,,,,,,,,,,,,0,75,75,75,,,,,,,,,,,,,,,,,a,1,0.6950629000002664,,,,,,,,,,,,xw,m,19,2024_Apr_21_1445,mian,2021.2.3,60.020118743823105,
G5,1,1,G,a,"[0.2, 0.2]",,,,,,,,,,,,,,,,,,,,0,76,76,76,,,,,,,,,,,,,,,,,a,1,0.7659172999992734,,,,,,,,,,,,xw,m,19,2024_Apr_21_1445,mian,2021.2.3,60.020118743823105,
h5,1,2,h,l,"[-0.2, 0.2]",,,,,,,,,,,,,,,,,,,,0,77,77,77,,,,,,,,,,,,,,,,,l,1,0.547802999999476,,,,,,,,,,,,xw,m,19,2024_Apr_21_1445,mian,2021.2.3,60.020118743823105,
9G,2,1,9.0,a,"[-0.2, -0.2]",,,,,,,,,,,,,,,,,,,,0,78,78,78,,,,,,,,,,,,,,,,,l,0,1.6361727000003157,,,,,,,,,,,,xw,m,19,2024_Apr_21_1445,mian,2021.2.3,60.020118743823105,
F3,2,2,3.0,a,"[0.2, -0.2]",,,,,,,,,,,,,,,,,,,,0,79,79,79,,,,,,,,,,,,,,,,,a,1,3.960664199999883,,,,,,,,,,,,xw,m,19,2024_Apr_21_1445,mian,2021.2.3,60.020118743823105,
,,,,,,0,0,pic/flanker6.png,pic/flanker2.png,a,l,,,,,,,,,,,,,,,,,,0,0,0,0,0,0,0,1,,,,,,,,,,,,902.3570308000003,None,901.1634141,902.3742156000003,None,0,郁闷,None,0,,,xw,m,19,2024_Apr_21_1445,mian,2021.2.3,60.020118743823105,
,,,,,,1,0,pic/flanker6.png,pic/flanker4.png,s,l,,,,,,,,,,,,,,,,,,0,0,0,0,0,1,1,5,,,,,,,,,,,,908.2567078999996,None,907.0737800000002,908.2738499000002,s,1,穷苦,l,1,1.0097034999998868,1.521233299999949,xw,m,19,2024_Apr_21_1445,mian,2021.2.3,60.020118743823105,
,,,,,,1,1,pic/flanker5.png,pic/flanker3.png,a,k,,,,,,,,,,,,,,,,,,0,0,0,0,0,2,2,4,,,,,,,,,,,,912.7073414000001,None,911.5238142000003,912.7239736999995,a,1,敬佩,k,1,0.6223412000008466,0.7736158999996405,xw,m,19,2024_Apr_21_1445,mian,2021.2.3,60.020118743823105,
,,,,,,0,0,pic/flanker5.png,pic/flanker1.png,s,l,,,,,,,,,,,,,,,,,,0,0,0,0,0,3,3,3,,,,,,,,,,,,916.0239293999998,None,914.8400123999995,916.0404739999999,s,1,排斥,l,1,0.6345776999996815,0.785022599999138,xw,m,19,2024_Apr_21_1445,mian,2021.2.3,60.020118743823105,
,,,,,,1,1,pic/flanker6.png,pic/flanker4.png,s,k,,,,,,,,,,,,,,,,,,0,0,0,0,0,4,4,6,,,,,,,,,,,,919.423961,None,918.2404743000002,919.4405923999998,a,0,奉献,k,1,0.634151500000371,1.132810199999767,xw,m,19,2024_Apr_21_1445,mian,2021.2.3,60.020118743823105,
,,,,,,0,1,pic/flanker6.png,pic/flanker2.png,a,k,,,,,,,,,,,,,,,,,,0,0,0,0,0,5,5,2,,,,,,,,,,,,923.2740407999995,None,922.0905711,923.2906828999999,a,1,廉洁,k,1,0.5489958999996816,0.677081800000451,xw,m,19,2024_Apr_21_1445,mian,2021.2.3,60.020118743823105,
,,,,,,0,1,pic/flanker5.png,pic/flanker1.png,s,k,,,,,,,,,,,,,,,,,,0,0,0,0,0,6,6,0,,,,,,,,,,,,926.4573220999996,None,925.2739022000001,926.4739285999999,s,1,优雅,k,1,0.5247607000001153,0.6331104999999297,xw,m,19,2024_Apr_21_1445,mian,2021.2.3,60.020118743823105,
,,,,,,1,0,pic/flanker5.png,pic/flanker3.png,a,l,,,,,,,,,,,,,,,,,,0,0,0,0,0,7,7,7,,,,,,,,,,,,929.6239534000001,None,928.4403055999996,929.6405201000002,a,1,堵塞,l,1,0.7266194000003452,0.763937700000497,xw,m,19,2024_Apr_21_1445,mian,2021.2.3,60.020118743823105,
,,,,,,,,,,,,,,,,,,,,,,,,,,,,,0,0,0,0,,,,,,,,,,,,,,,,,,,,,,,,,,,xw,m,19,2024_Apr_21_1445,mian,2021.2.3,60.020118743823105,
,,,,,,1,0,pic/flanker6.png,pic/flanker4.png,s,l,pic/AffRest1.png,,,,,,,,,,,,,,,,,,,,,,,,,0,0,0,0,0,0,0,61,,,,954.6402775000001,None,953.4547491999997,954.6571342000002,s,1,禁止,k,0,0.6233194999995249,1.2648988999999347,xw,m,19,2024_Apr_21_1445,mian,2021.2.3,60.020118743823105,
,,,,,,0,1,pic/flanker6.png,pic/flanker2.png,a,k,pic/AffRest1.png,,,,,,,,,,,,,,,,,,,,,,,,,0,0,0,0,0,1,1,18,,,,958.5906554999997,None,957.4070309000003,958.6074304999997,a,1,清秀,k,1,0.4667693999999756,0.5998098000000027,xw,m,19,2024_Apr_21_1445,mian,2021.2.3,60.020118743823105,
,,,,,,1,1,pic/flanker5.png,pic/flanker3.png,a,k,pic/AffRest1.png,,,,,,,,,,,,,,,,,,,,,,,,,0,0,0,0,0,2,2,76,,,,961.6406773000003,None,960.4571131999996,961.6571300999999,a,1,舒畅,k,1,0.49943770000027143,0.5053274000001693,xw,m,19,2024_Apr_21_1445,mian,2021.2.3,60.020118743823105,
,,,,,,0,0,pic/flanker5.png,pic/flanker1.png,s,l,pic/AffRest1.png,,,,,,,,,,,,,,,,,,,,,,,,,0,0,0,0,0,3,3,35,,,,964.7066541999998,None,963.5237770999997,964.7233161999998,s,1,焦躁,l,1,0.4005068999995274,0.590487899999971,xw,m,19,2024_Apr_21_1445,mian,2021.2.3,60.020118743823105,
,,,,,,1,1,pic/flanker6.png,pic/flanker4.png,s,k,pic/AffRest1.png,,,,,,,,,,,,,,,,,,,,,,,,,0,0,0,0,0,4,4,46,,,,967.7570658999998,None,966.5738964999996,967.7737712000003,s,1,畅销,k,1,0.4413587999997617,0.9110705000002781,xw,m,19,2024_Apr_21_1445,mian,2021.2.3,60.020118743823105,
,,,,,,1,1,pic/flanker6.png,pic/flanker4.png,s,k,pic/AffRest1.png,,,,,,,,,,,,,,,,,,,,,,,,,0,0,0,0,0,5,5,30,,,,971.1906795999998,None,970.0071235,971.2074357999995,s,1,旺盛,k,1,0.42235989999971935,0.5889288999997007,xw,m,19,2024_Apr_21_1445,mian,2021.2.3,60.020118743823105,
,,,,,,0,0,pic/flanker5.png,pic/flanker1.png,s,l,pic/AffRest1.png,,,,,,,,,,,,,,,,,,,,,,,,,0,0,0,0,0,6,6,3,,,,974.2572081000003,None,973.0736253,974.2737403999995,s,1,冷笑,l,1,0.35652289999961795,0.5033966999999393,xw,m,19,2024_Apr_21_1445,mian,2021.2.3,60.020118743823105,
,,,,,,0,0,pic/flanker5.png,pic/flanker1.png,s,l,pic/AffRest1.png,,,,,,,,,,,,,,,,,,,,,,,,,0,0,0,0,0,7,7,43,,,,976.9737984999997,None,975.7907044999997,976.9903704000003,s,1,嘲笑,l,1,0.4487210999996023,0.7935496000000057,xw,m,19,2024_Apr_21_1445,mian,2021.2.3,60.020118743823105,
,,,,,,0,1,pic/flanker6.png,pic/flanker2.png,a,k,pic/AffRest1.png,,,,,,,,,,,,,,,,,,,,,,,,,0,0,0,0,0,8,8,26,,,,980.3239507000003,None,979.1406832999996,980.3405601999998,a,1,充裕,k,1,0.48728639999990264,0.6857317000003604,xw,m,19,2024_Apr_21_1445,mian,2021.2.3,60.020118743823105,
,,,,,,1,1,pic/flanker6.png,pic/flanker4.png,s,k,pic/AffRest1.png,,,,,,,,,,,,,,,,,,,,,,,,,0,0,0,0,0,9,9,78,,,,983.4406402,None,982.2569295999997,983.4573515999996,s,1,豪放,k,1,0.4075738999999885,0.5087260000000242,xw,m,19,2024_Apr_21_1445,mian,2021.2.3,60.020118743823105,
,,,,,,0,1,pic/flanker5.png,pic/flanker1.png,s,k,pic/AffRest1.png,,,,,,,,,,,,,,,,,,,,,,,,,0,0,0,0,0,10,10,72,,,,986.2904857999997,None,985.1071373,986.3071874000002,s,1,诚恳,k,1,0.33337959999971645,0.601511699999719,xw,m,19,2024_Apr_21_1445,mian,2021.2.3,60.020118743823105,
,,,,,,1,1,pic/flanker6.png,pic/flanker4.png,s,k,pic/AffRest1.png,,,,,,,,,,,,,,,,,,,,,,,,,0,0,0,0,0,11,11,38,,,,989.2904107999998,None,988.1070932999996,989.3071218999999,s,1,吉祥,k,1,0.4740179000000353,0.9784438999995473,xw,m,19,2024_Apr_21_1445,mian,2021.2.3,60.020118743823105,
,,,,,,1,1,pic/flanker6.png,pic/flanker4.png,s,k,pic/AffRest1.png,,,,,,,,,,,,,,,,,,,,,,,,,0,0,0,0,0,12,12,14,,,,992.7403409000003,None,991.5569970000001,992.7572021999999,s,1,享受,k,1,0.6077792000005502,0.45507830000042304,xw,m,19,2024_Apr_21_1445,mian,2021.2.3,60.020118743823105,
,,,,,,0,1,pic/flanker5.png,pic/flanker1.png,s,k,pic/AffRest1.png,,,,,,,,,,,,,,,,,,,,,,,,,0,0,0,0,0,13,13,48,,,,995.7740061999998,None,994.5906450999996,995.7906533999999,s,1,生动,k,1,0.3753200000001016,0.6365496999997049,xw,m,19,2024_Apr_21_1445,mian,2021.2.3,60.020118743823105,
,,,,,,0,1,pic/flanker5.png,pic/flanker1.png,s,k,pic/AffRest1.png,,,,,,,,,,,,,,,,,,,,,,,,,0,0,0,0,0,14,14,32,,,,998.6573967999998,None,997.4740219,998.6734226000003,s,1,精致,k,1,0.3549453000005087,0.7513269999999466,xw,m,19,2024_Apr_21_1445,mian,2021.2.3,60.020118743823105,
,,,,,,0,0,pic/flanker6.png,pic/flanker2.png,a,l,pic/AffRest1.png,,,,,,,,,,,,,,,,,,,,,,,,,0,0,0,0,0,15,15,49,,,,1001.6906200999997,None,1000.5070456999997,1001.7072800999999,a,1,慌忙,l,1,0.4072839999998905,0.5392556999995577,xw,m,19,2024_Apr_21_1445,mian,2021.2.3,60.020118743823105,
,,,,,,0,1,pic/flanker6.png,pic/flanker2.png,a,k,pic/AffRest1.png,,,,,,,,,,,,,,,,,,,,,,,,,0,0,0,0,0,16,16,74,,,,1004.6406718000003,None,1003.4571205999996,1004.6572736000003,a,1,雄厚,k,1,0.5572801999996955,0.5597540999997364,xw,m,19,2024_Apr_21_1445,mian,2021.2.3,60.020118743823105,
,,,,,,1,0,pic/flanker5.png,pic/flanker3.png,a,l,pic/AffRest1.png,,,,,,,,,,,,,,,,,,,,,,,,,0,0,0,0,0,17,17,23,,,,1007.823707,None,1006.6407109999996,1007.8402142,a,1,鲁莽,l,1,0.46878259999994043,0.7209652999999889,xw,m,19,2024_Apr_21_1445,mian,2021.2.3,60.020118743823105,
,,,,,,1,0,pic/flanker6.png,pic/flanker4.png,s,l,pic/AffRest1.png,,,,,,,,,,,,,,,,,,,,,,,,,0,0,0,0,0,18,18,21,,,,1010.9570649000002,None,1009.7733851999997,1010.9737651999999,s,1,损害,l,1,0.38500889999977517,0.5789906999998493,xw,m,19,2024_Apr_21_1445,mian,2021.2.3,60.020118743823105,
,,,,,,1,1,pic/flanker5.png,pic/flanker3.png,a,k,pic/AffRest1.png,,,,,,,,,,,,,,,,,,,,,,,,,0,0,0,0,0,19,19,68,,,,1013.9070448999996,None,1012.7232702999995,1013.9236446999998,a,1,廉洁,k,1,0.4047829000001002,0.6196606000003158,xw,m,19,2024_Apr_21_1445,mian,2021.2.3,60.020118743823105,
,,,,,,0,1,pic/flanker5.png,pic/flanker1.png,s,k,pic/AffRest1.png,,,,,,,,,,,,,,,,,,,,,,,,,0,0,0,0,0,20,20,64,,,,1016.907299,None,1015.7239451,1016.9239393000003,s,1,鲜艳,k,1,0.3072794999998223,0.6259092000000237,xw,m,19,2024_Apr_21_1445,mian,2021.2.3,60.020118743823105,
,,,,,,0,1,pic/flanker5.png,pic/flanker1.png,s,k,pic/AffRest1.png,,,,,,,,,,,,,,,,,,,,,,,,,0,0,0,0,0,21,21,40,,,,1019.7403090000003,None,1018.5582110999999,1019.7736785000002,s,1,前进,k,1,0.3513460000003761,0.6405723999996553,xw,m,19,2024_Apr_21_1445,mian,2021.2.3,60.020118743823105,
,,,,,,0,0,pic/flanker5.png,pic/flanker1.png,s,l,pic/AffRest1.png,,,,,,,,,,,,,,,,,,,,,,,,,0,0,0,0,0,22,22,59,,,,1022.6906814999998,None,1021.5070825999996,1022.7073243999998,s,1,穷苦,l,1,0.39091199999984383,0.48632499999985157,xw,m,19,2024_Apr_21_1445,mian,2021.2.3,60.020118743823105,
,,,,,,0,1,pic/flanker5.png,pic/flanker1.png,s,k,pic/AffRest1.png,,,,,,,,,,,,,,,,,,,,,,,,,0,0,0,0,0,23,23,0,,,,1025.6069659999998,None,1024.4236399999995,1025.6238117999997,s,1,留恋,k,1,0.3197805999998309,1.0251889999999548,xw,m,19,2024_Apr_21_1445,mian,2021.2.3,60.020118743823105,
,,,,,,1,0,pic/flanker5.png,pic/flanker3.png,a,l,pic/AffRest1.png,,,,,,,,,,,,,,,,,,,,,,,,,0,0,0,0,0,24,24,47,,,,1029.0072588999997,None,1027.8234988,1029.0240054,a,1,伤心,l,1,0.40142439999999624,0.5709113999992041,xw,m,19,2024_Apr_21_1445,mian,2021.2.3,60.020118743823105,
,,,,,,0,0,pic/flanker5.png,pic/flanker1.png,s,l,pic/AffRest1.png,,,,,,,,,,,,,,,,,,,,,,,,,0,0,0,0,0,25,25,27,,,,1031.9070967000002,None,1030.7237278999996,1031.9237660000003,s,1,胡涂,l,1,0.3285324999997101,0.521798900000249,xw,m,19,2024_Apr_21_1445,mian,2021.2.3,60.020118743823105,
,,,,,,0,0,pic/flanker5.png,pic/flanker1.png,s,l,pic/AffRest1.png,,,,,,,,,,,,,,,,,,,,,,,,,0,0,0,0,0,26,26,11,,,,1034.7739174000003,None,1033.5903489999996,1034.7906269,s,1,心慌,l,1,0.39105770000060147,0.4696577000004254,xw,m,19,2024_Apr_21_1445,mian,2021.2.3,60.020118743823105,
,,,,,,1,0,pic/flanker6.png,pic/flanker4.png,s,l,pic/AffRest1.png,,,,,,,,,,,,,,,,,,,,,,,,,0,0,0,0,0,27,27,29,,,,1037.5068424999995,None,1036.3236304999996,1037.5237296999999,s,1,杂乱,l,1,0.4049511999992319,0.44841580000047543,xw,m,19,2024_Apr_21_1445,mian,2021.2.3,60.020118743823105,
,,,,,,1,1,pic/flanker5.png,pic/flanker3.png,a,k,pic/AffRest1.png,,,,,,,,,,,,,,,,,,,,,,,,,0,0,0,0,0,28,28,60,,,,1040.2904322,None,1039.1070625999996,1040.3070922000002,a,1,丰满,k,1,0.4212714999994205,0.612497699999949,xw,m,19,2024_Apr_21_1445,mian,2021.2.3,60.020118743823105,
,,,,,,0,0,pic/flanker6.png,pic/flanker2.png,a,l,pic/AffRest1.png,,,,,,,,,,,,,,,,,,,,,,,,,0,0,0,0,0,29,29,65,,,,1043.3735273999996,None,1042.1902981999997,1043.3902962999996,a,1,自卑,l,1,0.468079399999624,0.7510707999999795,xw,m,19,2024_Apr_21_1445,mian,2021.2.3,60.020118743823105,
,,,,,,1,0,pic/flanker5.png,pic/flanker3.png,a,l,pic/AffRest1.png,,,,,,,,,,,,,,,,,,,,,,,,,0,0,0,0,0,30,30,7,,,,1046.4402796999998,None,1045.2570181999995,1046.4572354999996,a,1,争吵,l,1,0.41392269999960263,0.4615939999994225,xw,m,19,2024_Apr_21_1445,mian,2021.2.3,60.020118743823105,
,,,,,,1,1,pic/flanker6.png,pic/flanker4.png,s,k,pic/AffRest1.png,,,,,,,,,,,,,,,,,,,,,,,,,0,0,0,0,0,31,31,22,,,,1049.1905917,None,1048.0070843999997,1049.2071878000002,s,1,永恒,k,1,0.34309120000034454,0.6108885999992708,xw,m,19,2024_Apr_21_1445,mian,2021.2.3,60.020118743823105,
,,,,,,1,1,pic/flanker6.png,pic/flanker4.png,s,k,pic/AffRest1.png,,,,,,,,,,,,,,,,,,,,,,,,,0,0,0,0,0,32,32,6,,,,1052.0736401,None,1050.890387,1052.0903984000001,s,1,羡慕,l,0,0.43040360000031797,0.9797575000002325,xw,m,19,2024_Apr_21_1445,mian,2021.2.3,60.020118743823105,
,,,,,,1,0,pic/flanker5.png,pic/flanker3.png,a,l,pic/AffRest1.png,,,,,,,,,,,,,,,,,,,,,,,,,0,0,0,0,0,33,33,79,,,,1055.3903115999997,None,1054.2069725999995,1055.4070882,a,1,假冒,l,1,0.4322071999995387,0.5517859999999928,xw,m,19,2024_Apr_21_1445,mian,2021.2.3,60.020118743823105,
,,,,,,1,1,pic/flanker6.png,pic/flanker4.png,s,k,pic/AffRest1.png,,,,,,,,,,,,,,,,,,,,,,,,,0,0,0,0,0,34,34,70,,,,1058.2738027,None,1057.0902715999996,1058.2903770999997,s,1,秀丽,k,1,0.3973863999999594,0.6202835999993113,xw,m,19,2024_Apr_21_1445,mian,2021.2.3,60.020118743823105,
,,,,,,1,1,pic/flanker5.png,pic/flanker3.png,a,k,pic/AffRest1.png,,,,,,,,,,,,,,,,,,,,,,,,,0,0,0,0,0,35,35,4,,,,1061.3070442000003,None,1060.1238499999995,1061.3237034999997,a,1,富足,k,1,0.3840603000007832,0.6459231999997428,xw,m,19,2024_Apr_21_1445,mian,2021.2.3,60.020118743823105,
,,,,,,1,0,pic/flanker6.png,pic/flanker4.png,s,l,pic/AffRest1.png,,,,,,,,,,,,,,,,,,,,,,,,,0,0,0,0,0,36,36,77,,,,1064.2568642,None,1063.0730998000004,1064.2736237000004,s,1,孤单,l,1,0.35791990000052465,0.4869693000000552,xw,m,19,2024_Apr_21_1445,mian,2021.2.3,60.020118743823105,
,,,,,,0,1,pic/flanker5.png,pic/flanker1.png,s,k,pic/AffRest1.png,,,,,,,,,,,,,,,,,,,,,,,,,0,0,0,0,0,37,37,8,,,,1067.0730413999995,None,1065.8902308000002,1067.0902302999998,s,1,瑰丽,k,1,0.3536039000000528,0.5122514999993655,xw,m,19,2024_Apr_21_1445,mian,2021.2.3,60.020118743823105,
,,,,,,0,1,pic/flanker5.png,pic/flanker1.png,s,k,pic/AffRest1.png,,,,,,,,,,,,,,,,,,,,,,,,,0,0,0,0,0,38,38,56,,,,1069.8737208999996,None,1068.6902802999998,1069.8903126,s,1,富丽,k,1,0.3827201000003697,0.740481699999691,xw,m,19,2024_Apr_21_1445,mian,2021.2.3,60.020118743823105,
,,,,,,0,1,pic/flanker6.png,pic/flanker2.png,a,k,pic/AffRest1.png,,,,,,,,,,,,,,,,,,,,,,,,,0,0,0,0,0,39,39,42,,,,1072.8571964999996,None,1071.6730498000002,1072.8739411000001,a,1,奉献,k,1,0.32446749999962776,0.6475200000004406,xw,m,19,2024_Apr_21_1445,mian,2021.2.3,60.020118743823105,
,,,,,,1,1,pic/flanker6.png,pic/flanker4.png,s,k,pic/AffRest1.png,,,,,,,,,,,,,,,,,,,,,,,,,0,0,0,0,0,40,40,62,,,,1075.8070033,None,1074.6230056999998,1075.8230256000002,s,1,热切,k,1,0.3548577999999907,0.483130099999471,xw,m,19,2024_Apr_21_1445,mian,2021.2.3,60.020118743823105,
,,,,,,1,0,pic/flanker6.png,pic/flanker4.png,s,l,pic/AffRest1.png,,,,,,,,,,,,,,,,,,,,,,,,,0,0,0,0,0,41,41,45,,,,1078.6735719000003,None,1077.4902232,1078.6903392,s,1,闷热,l,1,0.3749096000001373,0.5084132000001773,xw,m,19,2024_Apr_21_1445,mian,2021.2.3,60.020118743823105,
,,,,,,1,1,pic/flanker5.png,pic/flanker3.png,a,k,pic/AffRest1.png,,,,,,,,,,,,,,,,,,,,,,,,,0,0,0,0,0,42,42,12,,,,1081.4569141999996,None,1080.2736747000004,1081.4735876999998,a,1,珍藏,k,1,0.40053619999980583,0.47140789999957633,xw,m,19,2024_Apr_21_1445,mian,2021.2.3,60.020118743823105,
,,,,,,0,1,pic/flanker5.png,pic/flanker1.png,s,k,pic/AffRest1.png,,,,,,,,,,,,,,,,,,,,,,,,,0,0,0,0,0,43,43,16,,,,1084.2064164999997,None,1083.0236112999996,1084.2232012999998,s,1,爽朗,k,1,0.3132294000006368,0.5951969999996436,xw,m,19,2024_Apr_21_1445,mian,2021.2.3,60.020118743823105,
,,,,,,1,0,pic/flanker6.png,pic/flanker4.png,s,l,pic/AffRest1.png,,,,,,,,,,,,,,,,,,,,,,,,,0,0,0,0,0,44,44,5,,,,1087.0070230999995,None,1085.8229834999997,1087.0230220999997,s,1,撒谎,l,1,0.3725033999999141,0.4679012000005969,xw,m,19,2024_Apr_21_1445,mian,2021.2.3,60.020118743823105,
,,,,,,1,1,pic/flanker6.png,pic/flanker4.png,s,k,pic/AffRest1.png,,,,,,,,,,,,,,,,,,,,,,,,,0,0,0,0,0,45,45,54,,,,1089.7401618999997,None,1088.5569392000002,1089.7567599,s,1,振作,k,1,0.3549156999997649,0.6617624000000433,xw,m,19,2024_Apr_21_1445,mian,2021.2.3,60.020118743823105,
,,,,,,0,1,pic/flanker6.png,pic/flanker2.png,a,k,pic/AffRest1.png,,,,,,,,,,,,,,,,,,,,,,,,,0,0,0,0,0,46,46,50,,,,1092.7065603999995,None,1091.5230413000004,1092.7232276,a,1,有利,k,1,0.4896494000004168,0.4904142999994292,xw,m,19,2024_Apr_21_1445,mian,2021.2.3,60.020118743823105,
,,,,,,1,0,pic/flanker5.png,pic/flanker3.png,a,l,pic/AffRest1.png,,,,,,,,,,,,,,,,,,,,,,,,,0,0,0,0,0,47,47,71,,,,1095.7071363,None,1094.5233617,1095.7238524999998,a,1,浪费,l,1,0.3776176999999734,0.5274301999997988,xw,m,19,2024_Apr_21_1445,mian,2021.2.3,60.020118743823105,
,,,,,,0,0,pic/flanker6.png,pic/flanker2.png,a,l,pic/AffRest1.png,,,,,,,,,,,,,,,,,,,,,,,,,0,0,0,0,0,48,48,25,,,,1098.6064813999997,None,1097.4229185999998,1098.6230392000002,a,1,逃避,l,1,0.41231000000061613,0.4697881999991296,xw,m,19,2024_Apr_21_1445,mian,2021.2.3,60.020118743823105,
,,,,,,1,0,pic/flanker5.png,pic/flanker3.png,a,l,pic/AffRest1.png,,,,,,,,,,,,,,,,,,,,,,,,,0,0,0,0,0,49,49,39,,,,1101.5569617999995,None,1100.3735561999997,1101.5737138999998,a,1,别扭,l,1,0.3865183000007164,0.507014199999503,xw,m,19,2024_Apr_21_1445,mian,2021.2.3,60.020118743823105,
,,,,,,0,1,pic/flanker6.png,pic/flanker2.png,a,k,pic/AffRest1.png,,,,,,,,,,,,,,,,,,,,,,,,,0,0,0,0,0,50,50,66,,,,1104.4068214000004,None,1103.2228787999998,1104.4235790999996,a,1,卓越,k,1,0.35291770000003453,0.5472287000002325,xw,m,19,2024_Apr_21_1445,mian,2021.2.3,60.020118743823105,
,,,,,,0,0,pic/flanker6.png,pic/flanker2.png,a,l,pic/AffRest1.png,,,,,,,,,,,,,,,,,,,,,,,,,0,0,0,0,0,51,51,57,,,,1107.3395759,None,1106.1568197000001,1107.3564794999998,a,1,落后,l,1,0.5151104999995368,0.4615107999998145,xw,m,19,2024_Apr_21_1445,mian,2021.2.3,60.020118743823105,
,,,,,,1,1,pic/flanker5.png,pic/flanker3.png,a,k,pic/AffRest1.png,,,,,,,,,,,,,,,,,,,,,,,,,0,0,0,0,0,52,52,52,,,,1110.2568717,None,1109.0733229000002,1110.2734733000002,a,1,优雅,k,1,0.3826490000001286,0.4787157999999181,xw,m,19,2024_Apr_21_1445,mian,2021.2.3,60.020118743823105,
,,,,,,0,0,pic/flanker5.png,pic/flanker1.png,s,l,pic/AffRest1.png,,,,,,,,,,,,,,,,,,,,,,,,,0,0,0,0,0,53,53,51,,,,1112.9734701000002,None,1111.7901672000003,1112.9902373,s,1,郁闷,l,1,0.5435911000004126,0.632255399999849,xw,m,19,2024_Apr_21_1445,mian,2021.2.3,60.020118743823105,
,,,,,,0,1,pic/flanker6.png,pic/flanker2.png,a,k,pic/AffRest1.png,,,,,,,,,,,,,,,,,,,,,,,,,0,0,0,0,0,54,54,2,,,,1116.1402520999995,None,1114.9566343000001,1116.1566392,a,1,公平,k,1,0.5412286999999196,0.5919901999996,xw,m,19,2024_Apr_21_1445,mian,2021.2.3,60.020118743823105,
,,,,,,0,0,pic/flanker6.png,pic/flanker2.png,a,l,pic/AffRest1.png,,,,,,,,,,,,,,,,,,,,,,,,,0,0,0,0,0,55,55,17,,,,1119.1402485000003,None,1117.9567626000003,1119.1567063999996,a,1,堵塞,l,1,0.3566456999997172,0.5345112999993944,xw,m,19,2024_Apr_21_1445,mian,2021.2.3,60.020118743823105,
,,,,,,1,0,pic/flanker5.png,pic/flanker3.png,a,l,pic/AffRest1.png,,,,,,,,,,,,,,,,,,,,,,,,,0,0,0,0,0,56,56,31,,,,1121.8568976000001,None,1120.6732814000002,1121.8734139000003,a,1,消沉,l,1,0.4048480000001291,0.5176795000006678,xw,m,19,2024_Apr_21_1445,mian,2021.2.3,60.020118743823105,
,,,,,,0,1,pic/flanker6.png,pic/flanker2.png,a,k,pic/AffRest1.png,,,,,,,,,,,,,,,,,,,,,,,,,0,0,0,0,0,57,57,34,,,,1124.7565202,None,1123.5730055999998,1124.773197,a,1,圣洁,k,1,0.36976659999982076,0.5349680999997872,xw,m,19,2024_Apr_21_1445,mian,2021.2.3,60.020118743823105,
,,,,,,1,0,pic/flanker6.png,pic/flanker4.png,s,l,pic/AffRest1.png,,,,,,,,,,,,,,,,,,,,,,,,,0,0,0,0,0,58,58,69,,,,1127.5901264999998,None,1126.4066901,1127.6068461,s,1,失意,l,1,0.38711570000032225,0.4700649999995221,xw,m,19,2024_Apr_21_1445,mian,2021.2.3,60.020118743823105,
,,,,,,1,0,pic/flanker5.png,pic/flanker3.png,a,l,pic/AffRest1.png,,,,,,,,,,,,,,,,,,,,,,,,,0,0,0,0,0,59,59,15,,,,1130.3067612,None,1129.1234750999997,1130.3233646000003,a,1,黑暗,l,1,0.42037680000066757,0.9788908000000447,xw,m,19,2024_Apr_21_1445,mian,2021.2.3,60.020118743823105,
,,,,,,0,1,pic/flanker5.png,pic/flanker1.png,s,k,pic/AffRest1.png,,,,,,,,,,,,,,,,,,,,,,,,,0,0,0,0,0,60,60,24,,,,1133.7728484000004,None,1132.5901182000002,1133.7902104999998,s,1,俊秀,k,1,0.40817409999999654,0.4847636999993483,xw,m,19,2024_Apr_21_1445,mian,2021.2.3,60.020118743823105,
,,,,,,0,0,pic/flanker5.png,pic/flanker1.png,s,l,pic/AffRest1.png,,,,,,,,,,,,,,,,,,,,,,,,,0,0,0,0,0,61,61,75,,,,1136.5736435000003,None,1135.3902256999995,1136.5903846999995,s,1,悲观,l,1,0.28850259999944683,0.5044729000001098,xw,m,19,2024_Apr_21_1445,mian,2021.2.3,60.020118743823105,
,,,,,,1,1,pic/flanker5.png,pic/flanker3.png,a,k,pic/AffRest1.png,,,,,,,,,,,,,,,,,,,,,,,,,0,0,0,0,0,62,62,28,,,,1139.3069920000003,None,1138.1227555,1139.3235409000004,a,1,赞成,k,1,0.3313571000007869,0.9124590999999782,xw,m,19,2024_Apr_21_1445,mian,2021.2.3,60.020118743823105,
,,,,,,1,0,pic/flanker5.png,pic/flanker3.png,a,l,pic/AffRest1.png,,,,,,,,,,,,,,,,,,,,,,,,,0,0,0,0,0,63,63,63,,,,1142.5902095999995,None,1141.4067533000002,1142.6066091999996,a,1,懒惰,l,1,0.4475057999998171,0.5234660000005533,xw,m,19,2024_Apr_21_1445,mian,2021.2.3,60.020118743823105,
,,,,,,1,0,pic/flanker6.png,pic/flanker4.png,s,l,pic/AffRest1.png,,,,,,,,,,,,,,,,,,,,,,,,,0,0,0,0,0,64,64,53,,,,1145.4901552999995,None,1144.3068479999997,1145.5068231,s,1,烦恼,l,1,0.3780704999999216,0.476735500000359,xw,m,19,2024_Apr_21_1445,mian,2021.2.3,60.020118743823105,
,,,,,,1,0,pic/flanker6.png,pic/flanker4.png,s,l,pic/AffRest1.png,,,,,,,,,,,,,,,,,,,,,,,,,0,0,0,0,0,65,65,13,,,,1148.1734752999996,None,1146.9901759999998,1148.1901825,s,1,忧虑,l,1,0.3814027000007627,0.3763066000001345,xw,m,19,2024_Apr_21_1445,mian,2021.2.3,60.020118743823105,
,,,,,,1,1,pic/flanker5.png,pic/flanker3.png,a,k,pic/AffRest1.png,,,,,,,,,,,,,,,,,,,,,,,,,0,0,0,0,0,66,66,44,,,,1150.8236548,None,1149.6398913999997,1150.8399887,a,1,如愿,k,1,0.3518134000005375,0.6715778000007049,xw,m,19,2024_Apr_21_1445,mian,2021.2.3,60.020118743823105,
,,,,,,0,0,pic/flanker5.png,pic/flanker1.png,s,l,pic/AffRest1.png,,,,,,,,,,,,,,,,,,,,,,,,,0,0,0,0,0,67,67,19,,,,1153.7903773000003,None,1152.6068289,1153.8071293999997,s,1,缺乏,l,1,0.33548460000019986,0.42956880000019737,xw,m,19,2024_Apr_21_1445,mian,2021.2.3,60.020118743823105,
,,,,,,1,1,pic/flanker5.png,pic/flanker3.png,a,k,pic/AffRest1.png,,,,,,,,,,,,,,,,,,,,,,,,,0,0,0,0,0,68,68,36,,,,1156.4903544000003,None,1155.3067292,1156.5069909,a,1,顽强,l,0,0.35094109999954526,0.44341030000032333,xw,m,19,2024_Apr_21_1445,mian,2021.2.3,60.020118743823105,
,,,,,,0,0,pic/flanker6.png,pic/flanker2.png,a,l,pic/AffRest1.png,,,,,,,,,,,,,,,,,,,,,,,,,0,0,0,0,0,69,69,33,,,,1159.1567244000003,None,1157.9734701000002,1159.1734658999999,a,1,沮丧,l,1,0.3929099999995742,0.8109782999999879,xw,m,19,2024_Apr_21_1445,mian,2021.2.3,60.020118743823105,
,,,,,,1,0,pic/flanker5.png,pic/flanker3.png,a,l,pic/AffRest1.png,,,,,,,,,,,,,,,,,,,,,,,,,0,0,0,0,0,70,70,55,,,,1162.2237742000002,None,1161.0400464999998,1162.2403748000002,a,1,排斥,l,1,0.4117137000002913,0.6046468000004097,xw,m,19,2024_Apr_21_1445,mian,2021.2.3,60.020118743823105,
,,,,,,1,0,pic/flanker6.png,pic/flanker4.png,s,l,pic/AffRest1.png,,,,,,,,,,,,,,,,,,,,,,,,,0,0,0,0,0,71,71,37,,,,1165.0735594000002,None,1163.8900302999996,1165.0901566999996,s,1,怀疑,l,1,0.35338839999985794,0.8371119999992516,xw,m,19,2024_Apr_21_1445,mian,2021.2.3,60.020118743823105,
,,,,,,0,1,pic/flanker6.png,pic/flanker2.png,a,k,pic/AffRest1.png,,,,,,,,,,,,,,,,,,,,,,,,,0,0,0,0,0,72,72,58,,,,1168.1566583,None,1166.9726518000002,1168.1732766999999,a,1,正直,k,1,0.3547236000003977,0.9520768000002136,xw,m,19,2024_Apr_21_1445,mian,2021.2.3,60.020118743823105,
,,,,,,0,0,pic/flanker5.png,pic/flanker1.png,s,l,pic/AffRest1.png,,,,,,,,,,,,,,,,,,,,,,,,,0,0,0,0,0,73,73,67,,,,1171.3067962999999,None,1170.1234731,1171.3234232,s,1,丢失,l,1,0.5258224999997765,0.8648557000005894,xw,m,19,2024_Apr_21_1445,mian,2021.2.3,60.020118743823105,
,,,,,,0,0,pic/flanker6.png,pic/flanker2.png,a,l,pic/AffRest1.png,,,,,,,,,,,,,,,,,,,,,,,,,0,0,0,0,0,74,74,9,,,,1174.6568290999999,None,1173.4733874999997,1174.6733344999998,a,1,罚款,l,1,0.640303799999856,1.095080600000074,xw,m,19,2024_Apr_21_1445,mian,2021.2.3,60.020118743823105,
,,,,,,0,1,pic/flanker6.png,pic/flanker2.png,a,k,pic/AffRest1.png,,,,,,,,,,,,,,,,,,,,,,,,,0,0,0,0,0,75,75,10,,,,1178.3735024000002,None,1177.1901095999997,1178.3901036000002,a,1,典雅,k,1,0.43660520000048564,0.5170035000001008,xw,m,19,2024_Apr_21_1445,mian,2021.2.3,60.020118743823105,
,,,,,,0,0,pic/flanker6.png,pic/flanker2.png,a,l,pic/AffRest1.png,,,,,,,,,,,,,,,,,,,,,,,,,0,0,0,0,0,76,76,41,,,,1181.3732287999997,None,1180.1901772999995,1181.3898818000002,a,1,厌恶,l,1,0.38617989999966085,0.6272242000004553,xw,m,19,2024_Apr_21_1445,mian,2021.2.3,60.020118743823105,
,,,,,,0,0,pic/flanker6.png,pic/flanker2.png,a,l,pic/AffRest1.png,,,,,,,,,,,,,,,,,,,,,,,,,0,0,0,0,0,77,77,73,,,,1184.4398545,None,1183.2567013000003,1184.4567960999998,a,1,处罚,l,1,0.3702270000003409,0.6421173999997336,xw,m,19,2024_Apr_21_1445,mian,2021.2.3,60.020118743823105,
,,,,,,0,0,pic/flanker6.png,pic/flanker2.png,a,l,pic/AffRest1.png,,,,,,,,,,,,,,,,,,,,,,,,,0,0,0,0,0,78,78,1,,,,1187.323444,None,1186.1399865999997,1187.3400184999996,a,1,轻率,l,1,0.3647759000004953,1.2399666000001162,xw,m,19,2024_Apr_21_1445,mian,2021.2.3,60.020118743823105,
,,,,,,1,1,pic/flanker5.png,pic/flanker3.png,a,k,pic/AffRest1.png,,,,,,,,,,,,,,,,,,,,,,,,,0,0,0,0,0,79,79,20,,,,1190.7901913,None,1189.6066432000002,1190.8065353999996,a,1,敬佩,k,1,0.47001259999979084,0.488052499999867,xw,m,19,2024_Apr_21_1445,mian,2021.2.3,60.020118743823105,
,,,,,,,,,,,,pic/AffRest1.png,,,,,,,,,,,,,,,,,,,,,,,,,0,0,0,0,,,,,,,,,,,,,,,,,,,xw,m,19,2024_Apr_21_1445,mian,2021.2.3,60.020118743823105,
,,,,,,0,0,pic/flanker5.png,pic/flanker1.png,s,l,pic/AffRest2.png,,,,,,,,,,,,,,,,,,,,,,,,,0,1,1,1,0,0,0,43,,,,1220.2399393,None,1219.0487259999995,1220.2567101999998,s,1,堵塞,l,1,0.5585520999993605,0.675546999999824,xw,m,19,2024_Apr_21_1445,mian,2021.2.3,60.020118743823105,
,,,,,,1,0,pic/flanker6.png,pic/flanker4.png,s,l,pic/AffRest2.png,,,,,,,,,,,,,,,,,,,,,,,,,0,1,1,1,0,1,1,29,,,,1223.5402618000003,None,1222.3568198999997,1223.5569699000002,s,1,懒惰,l,1,0.4520550999995976,0.5252651000000697,xw,m,19,2024_Apr_21_1445,mian,2021.2.3,60.020118743823105,
,,,,,,0,1,pic/flanker5.png,pic/flanker1.png,s,k,pic/AffRest2.png,,,,,,,,,,,,,,,,,,,,,,,,,0,1,1,1,0,2,2,24,,,,1226.3566149000003,None,1225.17348,1226.3734073,s,1,清秀,k,1,0.3646854999997231,0.5507026999994196,xw,m,19,2024_Apr_21_1445,mian,2021.2.3,60.020118743823105,
,,,,,,0,1,pic/flanker6.png,pic/flanker2.png,a,k,pic/AffRest2.png,,,,,,,,,,,,,,,,,,,,,,,,,0,1,1,1,0,3,3,50,,,,1229.3069076999996,None,1228.1234091000001,1229.3235424999998,a,1,爽朗,k,1,0.3179706000000806,0.6259516000000076,xw,m,19,2024_Apr_21_1445,mian,2021.2.3,60.020118743823105,
,,,,,,1,0,pic/flanker6.png,pic/flanker4.png,s,l,pic/AffRest2.png,,,,,,,,,,,,,,,,,,,,,,,,,0,1,1,1,0,4,4,5,,,,1232.3066912,None,1231.1231641,1232.3233284000003,s,1,烦恼,l,1,0.40914820000034524,0.4789264999999432,xw,m,19,2024_Apr_21_1445,mian,2021.2.3,60.020118743823105,
,,,,,,0,0,pic/flanker5.png,pic/flanker1.png,s,l,pic/AffRest2.png,,,,,,,,,,,,,,,,,,,,,,,,,0,1,1,1,0,5,5,11,,,,1235.1233604000004,None,1233.9401266999998,1235.1394256999997,s,1,胡涂,l,1,0.38226099999974394,0.6999424999994517,xw,m,19,2024_Apr_21_1445,mian,2021.2.3,60.020118743823105,
,,,,,,0,0,pic/flanker5.png,pic/flanker1.png,s,l,pic/AffRest2.png,,,,,,,,,,,,,,,,,,,,,,,,,0,1,1,1,0,6,6,67,,,,1238.0895059999998,None,1236.9065995999995,1238.1065991,s,1,失意,l,1,0.713920700000017,0.6166035999995074,xw,m,19,2024_Apr_21_1445,mian,2021.2.3,60.020118743823105,
,,,,,,0,1,pic/flanker5.png,pic/flanker1.png,s,k,pic/AffRest2.png,,,,,,,,,,,,,,,,,,,,,,,,,0,1,1,1,0,7,7,72,,,,1241.4896169999997,None,1240.3066889999996,1241.5062838999997,s,1,旺盛,k,1,0.3426476000004186,0.6633005000003322,xw,m,19,2024_Apr_21_1445,mian,2021.2.3,60.020118743823105,
,,,,,,1,0,pic/flanker5.png,pic/flanker3.png,a,l,pic/AffRest2.png,,,,,,,,,,,,,,,,,,,,,,,,,0,1,1,1,0,8,8,71,,,,1244.3398295000002,None,1243.1565270999995,1244.3565918,a,1,闷热,l,1,0.39606349999939994,0.5291489000001093,xw,m,19,2024_Apr_21_1445,mian,2021.2.3,60.020118743823105,
,,,,,,0,0,pic/flanker5.png,pic/flanker1.png,s,l,pic/AffRest2.png,,,,,,,,,,,,,,,,,,,,,,,,,0,1,1,1,0,9,9,27,,,,1247.2067036000003,None,1246.0232951000003,1247.2230428999997,s,1,禁止,l,1,0.6040257999993628,0.5247999000002892,xw,m,19,2024_Apr_21_1445,mian,2021.2.3,60.020118743823105,
,,,,,,1,1,pic/flanker6.png,pic/flanker4.png,s,k,pic/AffRest2.png,,,,,,,,,,,,,,,,,,,,,,,,,0,1,1,1,0,10,10,6,,,,1250.3561146999996,None,1249.1733422000002,1250.3728741,s,1,奉献,k,1,0.38591679999990447,0.5793616000000839,xw,m,19,2024_Apr_21_1445,mian,2021.2.3,60.020118743823105,
,,,,,,1,0,pic/flanker6.png,pic/flanker4.png,s,l,pic/AffRest2.png,,,,,,,,,,,,,,,,,,,,,,,,,0,1,1,1,0,11,11,69,,,,1253.3236417000003,None,1252.139979,1253.340063,s,1,孤单,l,1,0.412452999999914,0.5689159999992626,xw,m,19,2024_Apr_21_1445,mian,2021.2.3,60.020118743823105,
,,,,,,1,1,pic/flanker5.png,pic/flanker3.png,a,k,pic/AffRest2.png,,,,,,,,,,,,,,,,,,,,,,,,,0,1,1,1,0,12,12,76,,,,1256.3066456000001,None,1255.1232502999997,1256.3232362000003,a,1,珍藏,k,1,0.39325040000039735,0.5384850999998889,xw,m,19,2024_Apr_21_1445,mian,2021.2.3,60.020118743823105,
,,,,,,0,1,pic/flanker6.png,pic/flanker2.png,a,k,pic/AffRest2.png,,,,,,,,,,,,,,,,,,,,,,,,,0,1,1,1,0,13,13,66,,,,1259.2897904999995,None,1258.1064325000002,1259.3064391000003,a,1,留恋,k,1,0.46695090000048367,1.1560347000004185,xw,m,19,2024_Apr_21_1445,mian,2021.2.3,60.020118743823105,
,,,,,,1,0,pic/flanker5.png,pic/flanker3.png,a,l,pic/AffRest2.png,,,,,,,,,,,,,,,,,,,,,,,,,0,1,1,1,0,14,14,7,,,,1262.9400392000002,None,1261.7566952000002,1262.9565323000002,a,1,沮丧,l,1,0.5117454000001089,0.6062212999995609,xw,m,19,2024_Apr_21_1445,mian,2021.2.3,60.020118743823105,
,,,,,,0,0,pic/flanker6.png,pic/flanker2.png,a,l,pic/AffRest2.png,,,,,,,,,,,,,,,,,,,,,,,,,0,1,1,1,0,15,15,41,,,,1266.0397956000002,None,1264.8565826999998,1266.0566751000001,a,1,自卑,l,1,0.385741500000222,0.8435343999999532,xw,m,19,2024_Apr_21_1445,mian,2021.2.3,60.020118743823105,
,,,,,,0,0,pic/flanker5.png,pic/flanker1.png,s,l,pic/AffRest2.png,,,,,,,,,,,,,,,,,,,,,,,,,0,1,1,1,0,16,16,75,,,,1269.2733303,None,1268.0893737000001,1269.2893863000004,s,1,慌忙,l,1,0.5727765999999974,0.5711392000002888,xw,m,19,2024_Apr_21_1445,mian,2021.2.3,60.020118743823105,
,,,,,,1,0,pic/flanker6.png,pic/flanker4.png,s,l,pic/AffRest2.png,,,,,,,,,,,,,,,,,,,,,,,,,0,1,1,1,0,17,17,13,,,,1272.2731249000003,None,1271.0899897000004,1272.2900207999996,s,1,丢失,l,1,0.39447910000035336,0.5457298000001174,xw,m,19,2024_Apr_21_1445,mian,2021.2.3,60.020118743823105,
,,,,,,1,1,pic/flanker5.png,pic/flanker3.png,a,k,pic/AffRest2.png,,,,,,,,,,,,,,,,,,,,,,,,,0,1,1,1,0,18,18,36,,,,1275.0901614,None,1273.9064991999999,1275.1068296999997,a,1,廉洁,k,1,0.35393960000055813,0.5894642000002932,xw,m,19,2024_Apr_21_1445,mian,2021.2.3,60.020118743823105,
,,,,,,1,1,pic/flanker6.png,pic/flanker4.png,s,k,pic/AffRest2.png,,,,,,,,,,,,,,,,,,,,,,,,,0,1,1,1,0,19,19,38,,,,1277.9392038,None,1276.7566253999998,1277.9560098999996,s,1,敬佩,k,1,0.40509259999998903,0.5918712000002415,xw,m,19,2024_Apr_21_1445,mian,2021.2.3,60.020118743823105,
,,,,,,0,0,pic/flanker6.png,pic/flanker2.png,a,l,pic/AffRest2.png,,,,,,,,,,,,,,,,,,,,,,,,,0,1,1,1,0,20,20,1,,,,1280.7731749999998,None,1279.5892032999996,1280.7901777000002,a,1,穷苦,l,1,0.4414956999999049,0.6162370000001829,xw,m,19,2024_Apr_21_1445,mian,2021.2.3,60.020118743823105,
,,,,,,1,1,pic/flanker6.png,pic/flanker4.png,s,k,pic/AffRest2.png,,,,,,,,,,,,,,,,,,,,,,,,,0,1,1,1,0,21,21,62,,,,1283.7900949,None,1282.6065549,1283.8068284999995,s,1,有利,k,1,0.4035722999997233,0.6634504999992714,xw,m,19,2024_Apr_21_1445,mian,2021.2.3,60.020118743823105,
,,,,,,1,1,pic/flanker5.png,pic/flanker3.png,a,k,pic/AffRest2.png,,,,,,,,,,,,,,,,,,,,,,,,,0,1,1,1,0,22,22,52,,,,1286.8727900999997,None,1285.6894379,1286.8893873000002,a,1,赞成,k,1,0.44626659999994445,0.5308831000002101,xw,m,19,2024_Apr_21_1445,mian,2021.2.3,60.020118743823105,
,,,,,,0,0,pic/flanker5.png,pic/flanker1.png,s,l,pic/AffRest2.png,,,,,,,,,,,,,,,,,,,,,,,,,0,1,1,1,0,23,23,51,,,,1289.7899999999995,None,1288.6062909999996,1289.8065235999998,s,1,假冒,l,1,0.3047132000001511,0.7077343000000837,xw,m,19,2024_Apr_21_1445,mian,2021.2.3,60.020118743823105,
,,,,,,1,0,pic/flanker6.png,pic/flanker4.png,s,l,pic/AffRest2.png,,,,,,,,,,,,,,,,,,,,,,,,,0,1,1,1,0,24,24,45,,,,1292.6564297,None,1291.4726401000003,1292.6729717000003,s,1,心慌,l,1,0.6157358000000386,0.6454908999994586,xw,m,19,2024_Apr_21_1445,mian,2021.2.3,60.020118743823105,
,,,,,,1,0,pic/flanker6.png,pic/flanker4.png,s,l,pic/AffRest2.png,,,,,,,,,,,,,,,,,,,,,,,,,0,1,1,1,0,25,25,21,,,,1295.9067696999996,None,1294.7232195000001,1295.9233422000002,s,1,落后,l,1,0.5014443999998548,0.5761443000001236,xw,m,19,2024_Apr_21_1445,mian,2021.2.3,60.020118743823105,
,,,,,,1,1,pic/flanker6.png,pic/flanker4.png,s,k,pic/AffRest2.png,,,,,,,,,,,,,,,,,,,,,,,,,0,1,1,1,0,26,26,78,,,,1298.9898772000001,None,1297.8065298999995,1299.0065323000003,s,1,鲜艳,k,1,0.41206419999980426,0.5536180999997669,xw,m,19,2024_Apr_21_1445,mian,2021.2.3,60.020118743823105,
,,,,,,1,0,pic/flanker5.png,pic/flanker3.png,a,l,pic/AffRest2.png,,,,,,,,,,,,,,,,,,,,,,,,,0,1,1,1,0,27,27,47,,,,1301.9563567999999,None,1300.7731195000001,1301.9733040999995,a,1,郁闷,l,1,0.382038000000648,0.5185991999996986,xw,m,19,2024_Apr_21_1445,mian,2021.2.3,60.020118743823105,
,,,,,,0,1,pic/flanker5.png,pic/flanker1.png,s,k,pic/AffRest2.png,,,,,,,,,,,,,,,,,,,,,,,,,0,1,1,1,0,28,28,40,,,,1304.7733365999998,None,1303.5898457999997,1304.7891226999996,s,1,瑰丽,k,1,0.48421090000010736,0.6116623999996591,xw,m,19,2024_Apr_21_1445,mian,2021.2.3,60.020118743823105,
,,,,,,0,0,pic/flanker6.png,pic/flanker2.png,a,l,pic/AffRest2.png,,,,,,,,,,,,,,,,,,,,,,,,,0,1,1,1,0,29,29,73,,,,1307.8068250000001,None,1306.6232863,1307.823465,a,1,冷笑,l,1,0.3658377000001565,0.46711469999991095,xw,m,19,2024_Apr_21_1445,mian,2021.2.3,60.020118743823105,
,,,,,,1,1,pic/flanker6.png,pic/flanker4.png,s,k,pic/AffRest2.png,,,,,,,,,,,,,,,,,,,,,,,,,0,1,1,1,0,30,30,22,,,,1310.6897725000003,None,1309.5066206999995,1310.7065768999996,s,1,永恒,k,1,0.4048208000003797,0.5375058999998146,xw,m,19,2024_Apr_21_1445,mian,2021.2.3,60.020118743823105,
,,,,,,0,1,pic/flanker6.png,pic/flanker2.png,a,k,pic/AffRest2.png,,,,,,,,,,,,,,,,,,,,,,,,,0,1,1,1,0,31,31,34,,,,1313.5897500999995,None,1312.4065407000003,1313.6065932999995,a,1,热切,k,1,0.3508067000002484,0.750408900000366,xw,m,19,2024_Apr_21_1445,mian,2021.2.3,60.020118743823105,
,,,,,,1,0,pic/flanker6.png,pic/flanker4.png,s,l,pic/AffRest2.png,,,,,,,,,,,,,,,,,,,,,,,,,0,1,1,1,0,32,32,53,,,,1316.6398371999999,None,1315.4564544,1316.6565788000003,s,1,怀疑,l,1,0.4265224999999191,0.513537599999836,xw,m,19,2024_Apr_21_1445,mian,2021.2.3,60.020118743823105,
,,,,,,1,1,pic/flanker6.png,pic/flanker4.png,s,k,pic/AffRest2.png,,,,,,,,,,,,,,,,,,,,,,,,,0,1,1,1,0,33,33,30,,,,1319.4064180999999,None,1318.223141,1319.4231403999997,s,1,羡慕,k,1,0.38009779999993043,1.2258317999994688,xw,m,19,2024_Apr_21_1445,mian,2021.2.3,60.020118743823105,
,,,,,,1,0,pic/flanker5.png,pic/flanker3.png,a,l,pic/AffRest2.png,,,,,,,,,,,,,,,,,,,,,,,,,0,1,1,1,0,34,34,55,,,,1322.9898732999995,None,1321.8065528000002,1323.0064453999998,a,1,鲁莽,l,1,0.42845279999983177,0.5292362999998659,xw,m,19,2024_Apr_21_1445,mian,2021.2.3,60.020118743823105,
,,,,,,1,0,pic/flanker5.png,pic/flanker3.png,a,l,pic/AffRest2.png,,,,,,,,,,,,,,,,,,,,,,,,,0,1,1,1,0,35,35,15,,,,1325.9731901,None,1324.7898460000001,1325.9899125999996,a,1,悲观,l,1,0.4440486999992572,0.4658193000004758,xw,m,19,2024_Apr_21_1445,mian,2021.2.3,60.020118743823105,
,,,,,,1,0,pic/flanker5.png,pic/flanker3.png,a,l,pic/AffRest2.png,,,,,,,,,,,,,,,,,,,,,,,,,0,1,1,1,0,36,36,23,,,,1328.8567906000003,None,1327.6731330999996,1328.8732550999998,a,1,浪费,l,1,0.4289708000005703,0.5953232000001663,xw,m,19,2024_Apr_21_1445,mian,2021.2.3,60.020118743823105,
,,,,,,0,1,pic/flanker6.png,pic/flanker2.png,a,k,pic/AffRest2.png,,,,,,,,,,,,,,,,,,,,,,,,,0,1,1,1,0,37,37,42,,,,1331.8731480000001,None,1330.6898784999998,1331.8897401999998,a,1,典雅,k,1,0.4127173999995648,0.5057352000003448,xw,m,19,2024_Apr_21_1445,mian,2021.2.3,60.020118743823105,
,,,,,,0,1,pic/flanker6.png,pic/flanker2.png,a,k,pic/AffRest2.png,,,,,,,,,,,,,,,,,,,,,,,,,0,1,1,1,0,38,38,2,,,,1334.8390535000003,None,1333.6566926,1334.8565394000002,a,1,充裕,k,1,0.3669777000004615,0.9343595000000278,xw,m,19,2024_Apr_21_1445,mian,2021.2.3,60.020118743823105,
,,,,,,1,1,pic/flanker5.png,pic/flanker3.png,a,k,pic/AffRest2.png,,,,,,,,,,,,,,,,,,,,,,,,,0,1,1,1,0,39,39,68,,,,1338.0899213999996,None,1336.9064463999998,1338.1064166,a,1,享受,k,1,0.44574980000015785,1.8422576000002664,xw,m,19,2024_Apr_21_1445,mian,2021.2.3,60.020118743823105,
,,,,,,0,0,pic/flanker6.png,pic/flanker2.png,a,l,pic/AffRest2.png,,,,,,,,,,,,,,,,,,,,,,,,,0,1,1,1,0,40,40,17,,,,1342.3232076999998,None,1341.1396719,1342.3398960999998,a,1,厌恶,l,1,0.3527226999995037,0.47294240000064747,xw,m,19,2024_Apr_21_1445,mian,2021.2.3,60.020118743823105,
,,,,,,1,1,pic/flanker6.png,pic/flanker4.png,s,k,pic/AffRest2.png,,,,,,,,,,,,,,,,,,,,,,,,,0,1,1,1,0,41,41,54,,,,1345.0398242999995,None,1343.8564585,1345.0566570999995,s,1,顽强,k,1,0.4257834999998522,1.5978042999995523,xw,m,19,2024_Apr_21_1445,mian,2021.2.3,60.020118743823105,
,,,,,,1,1,pic/flanker6.png,pic/flanker4.png,s,k,pic/AffRest2.png,,,,,,,,,,,,,,,,,,,,,,,,,0,1,1,1,0,42,42,70,,,,1349.0065557000003,None,1347.8230398,1349.0231344999997,s,1,富丽,k,1,0.6500471999997899,0.5140185999998721,xw,m,19,2024_Apr_21_1445,mian,2021.2.3,60.020118743823105,
,,,,,,0,1,pic/flanker6.png,pic/flanker2.png,a,k,pic/AffRest2.png,,,,,,,,,,,,,,,,,,,,,,,,,0,1,1,1,0,43,43,58,,,,1352.0231564,None,1350.839883,1352.0398951000002,a,1,公平,k,1,0.3790589000000182,0.5570274000001518,xw,m,19,2024_Apr_21_1445,mian,2021.2.3,60.020118743823105,
,,,,,,1,1,pic/flanker5.png,pic/flanker3.png,a,k,pic/AffRest2.png,,,,,,,,,,,,,,,,,,,,,,,,,0,1,1,1,0,44,44,12,,,,1354.9895715999996,None,1353.8065610999997,1355.0065323000003,a,1,吉祥,k,1,0.43812999999954627,0.5217959999999948,xw,m,19,2024_Apr_21_1445,mian,2021.2.3,60.020118743823105,
,,,,,,0,1,pic/flanker5.png,pic/flanker1.png,s,k,pic/AffRest2.png,,,,,,,,,,,,,,,,,,,,,,,,,0,1,1,1,0,45,45,48,,,,1357.8897859000003,None,1356.7063686999995,1357.9064428999995,s,1,振作,k,1,0.39317709999977524,0.4873138000002655,xw,m,19,2024_Apr_21_1445,mian,2021.2.3,60.020118743823105,
,,,,,,1,0,pic/flanker5.png,pic/flanker3.png,a,l,pic/AffRest2.png,,,,,,,,,,,,,,,,,,,,,,,,,0,1,1,1,0,46,46,31,,,,1360.7229948999998,None,1359.5397280000002,1360.7396843000001,a,1,忧虑,l,1,0.3774496000005456,0.7068386999999348,xw,m,19,2024_Apr_21_1445,mian,2021.2.3,60.020118743823105,
,,,,,,1,0,pic/flanker5.png,pic/flanker3.png,a,l,pic/AffRest2.png,,,,,,,,,,,,,,,,,,,,,,,,,0,1,1,1,0,47,47,79,,,,1363.7899177000004,None,1362.6064498,1363.8064031,a,1,排斥,l,1,0.38652060000003985,0.5102237999999488,xw,m,19,2024_Apr_21_1445,mian,2021.2.3,60.020118743823105,
,,,,,,0,1,pic/flanker5.png,pic/flanker1.png,s,k,pic/AffRest2.png,,,,,,,,,,,,,,,,,,,,,,,,,0,1,1,1,0,48,48,8,,,,1366.7397053,None,1365.5564657,1366.7565203,s,1,秀丽,k,1,0.3601302000006399,0.5201704000000973,xw,m,19,2024_Apr_21_1445,mian,2021.2.3,60.020118743823105,
,,,,,,0,1,pic/flanker6.png,pic/flanker2.png,a,k,pic/AffRest2.png,,,,,,,,,,,,,,,,,,,,,,,,,0,1,1,1,0,49,49,74,,,,1369.5564268000003,None,1368.3730012,1369.5734061999997,a,1,畅销,k,1,0.36435119999987364,0.7395672000002378,xw,m,19,2024_Apr_21_1445,mian,2021.2.3,60.020118743823105,
,,,,,,0,0,pic/flanker5.png,pic/flanker1.png,s,l,pic/AffRest2.png,,,,,,,,,,,,,,,,,,,,,,,,,0,1,1,1,0,50,50,3,,,,1372.5398214000002,None,1371.3561918999999,1372.5564846000002,s,1,伤心,l,1,0.3609107000002041,0.4739011000001483,xw,m,19,2024_Apr_21_1445,mian,2021.2.3,60.020118743823105,
,,,,,,0,1,pic/flanker5.png,pic/flanker1.png,s,k,pic/AffRest2.png,,,,,,,,,,,,,,,,,,,,,,,,,0,1,1,1,0,51,51,32,,,,1375.2565025999997,None,1374.0731996999998,1375.2730883999998,s,1,优雅,k,1,0.41085779999957595,0.513804700000037,xw,m,19,2024_Apr_21_1445,mian,2021.2.3,60.020118743823105,
,,,,,,1,1,pic/flanker6.png,pic/flanker4.png,s,k,pic/AffRest2.png,,,,,,,,,,,,,,,,,,,,,,,,,0,1,1,1,0,52,52,46,,,,1378.2064673999998,None,1377.0231966999995,1378.2231527999998,s,1,诚恳,k,1,0.5615787999995518,0.939028399999188,xw,m,19,2024_Apr_21_1445,mian,2021.2.3,60.020118743823105,
,,,,,,0,1,pic/flanker5.png,pic/flanker1.png,s,k,pic/AffRest2.png,,,,,,,,,,,,,,,,,,,,,,,,,0,1,1,1,0,53,53,56,,,,1381.5897176000003,None,1380.4065182,1381.6063016000003,s,1,如愿,k,1,0.40738280000005034,0.6321029999999155,xw,m,19,2024_Apr_21_1445,mian,2021.2.3,60.020118743823105,
,,,,,,1,1,pic/flanker6.png,pic/flanker4.png,s,k,pic/AffRest2.png,,,,,,,,,,,,,,,,,,,,,,,,,0,1,1,1,0,54,54,14,,,,1384.5563261000002,None,1383.3730989,1384.5735129999998,s,1,卓越,k,1,0.4050732000005155,0.5057669999996506,xw,m,19,2024_Apr_21_1445,mian,2021.2.3,60.020118743823105,
,,,,,,1,0,pic/flanker6.png,pic/flanker4.png,s,l,pic/AffRest2.png,,,,,,,,,,,,,,,,,,,,,,,,,0,1,1,1,0,55,55,77,,,,1387.472999,None,1386.2896091999996,1387.4897210000004,s,1,撒谎,l,1,0.4120924999997442,0.5185509000002639,xw,m,19,2024_Apr_21_1445,mian,2021.2.3,60.020118743823105,
,,,,,,0,0,pic/flanker6.png,pic/flanker2.png,a,l,pic/AffRest2.png,,,,,,,,,,,,,,,,,,,,,,,,,0,1,1,1,0,56,56,57,,,,1390.4730588999996,None,1389.2897281,1390.4896918,a,1,杂乱,l,1,0.37728040000001783,0.5775068000002648,xw,m,19,2024_Apr_21_1445,mian,2021.2.3,60.020118743823105,
,,,,,,1,1,pic/flanker5.png,pic/flanker3.png,a,k,pic/AffRest2.png,,,,,,,,,,,,,,,,,,,,,,,,,0,1,1,1,0,57,57,28,,,,1393.4730440999997,None,1392.2897620999997,1393.4896986999997,a,1,舒畅,k,1,0.3620089000005464,0.5413072000001193,xw,m,19,2024_Apr_21_1445,mian,2021.2.3,60.020118743823105,
,,,,,,1,0,pic/flanker5.png,pic/flanker3.png,a,l,pic/AffRest2.png,,,,,,,,,,,,,,,,,,,,,,,,,0,1,1,1,0,58,58,63,,,,1396.4233289,None,1395.2397143000003,1396.4398771,a,1,消沉,l,1,0.8146262999998726,0.7196031000003131,xw,m,19,2024_Apr_21_1445,mian,2021.2.3,60.020118743823105,
,,,,,,1,1,pic/flanker5.png,pic/flanker3.png,a,k,pic/AffRest2.png,,,,,,,,,,,,,,,,,,,,,,,,,0,1,1,1,0,59,59,20,,,,1399.8565394000002,None,1398.6732711,1399.8730197999998,a,1,正直,k,1,0.4248955000002752,0.7269711999997526,xw,m,19,2024_Apr_21_1445,mian,2021.2.3,60.020118743823105,
,,,,,,0,1,pic/flanker5.png,pic/flanker1.png,s,k,pic/AffRest2.png,,,,,,,,,,,,,,,,,,,,,,,,,0,1,1,1,0,60,60,64,,,,1403.0063895999997,None,1401.8230846000001,1403.0230709000002,s,1,雄厚,k,1,0.9166574999999284,0.7861050999999861,xw,m,19,2024_Apr_21_1445,mian,2021.2.3,60.020118743823105,
,,,,,,0,1,pic/flanker6.png,pic/flanker2.png,a,k,pic/AffRest2.png,,,,,,,,,,,,,,,,,,,,,,,,,0,1,1,1,0,61,61,18,,,,1406.7230826,None,1405.5397036,1406.7396314000002,a,1,精致,k,1,0.3960197000005792,0.5917819000005693,xw,m,19,2024_Apr_21_1445,mian,2021.2.3,60.020118743823105,
,,,,,,1,0,pic/flanker6.png,pic/flanker4.png,s,l,pic/AffRest2.png,,,,,,,,,,,,,,,,,,,,,,,,,0,1,1,1,0,62,62,61,,,,1409.6397739,None,1408.4564501,1409.6564642999997,s,1,缺乏,l,1,0.45144600000003265,1.0590096999994785,xw,m,19,2024_Apr_21_1445,mian,2021.2.3,60.020118743823105,
,,,,,,1,1,pic/flanker5.png,pic/flanker3.png,a,k,pic/AffRest2.png,,,,,,,,,,,,,,,,,,,,,,,,,0,1,1,1,0,63,63,4,,,,1413.1897470999997,None,1412.0063684000002,1413.2063905,a,1,前进,k,1,0.40005480000036187,0.8161664999997811,xw,m,19,2024_Apr_21_1445,mian,2021.2.3,60.020118743823105,
,,,,,,0,1,pic/flanker6.png,pic/flanker2.png,a,k,pic/AffRest2.png,,,,,,,,,,,,,,,,,,,,,,,,,0,1,1,1,0,64,64,10,,,,1416.3399635,None,1415.1563456,1416.3565026,a,1,俊秀,k,1,0.4854358000002321,0.5429364999999962,xw,m,19,2024_Apr_21_1445,mian,2021.2.3,60.020118743823105,
,,,,,,0,0,pic/flanker6.png,pic/flanker2.png,a,l,pic/AffRest2.png,,,,,,,,,,,,,,,,,,,,,,,,,0,1,1,1,0,65,65,49,,,,1419.4230493,None,1418.2397323,1419.4396602000002,a,1,逃避,l,1,0.37622879999980796,0.6261379000006855,xw,m,19,2024_Apr_21_1445,mian,2021.2.3,60.020118743823105,
,,,,,,0,1,pic/flanker5.png,pic/flanker1.png,s,k,pic/AffRest2.png,,,,,,,,,,,,,,,,,,,,,,,,,0,1,1,1,0,66,66,0,,,,1422.3730744999998,None,1421.1895256000003,1422.3897897000002,s,1,豪放,k,1,0.7235790000004272,0.6295894999993834,xw,m,19,2024_Apr_21_1445,mian,2021.2.3,60.020118743823105,
,,,,,,1,0,pic/flanker5.png,pic/flanker3.png,a,l,pic/AffRest2.png,,,,,,,,,,,,,,,,,,,,,,,,,0,1,1,1,0,67,67,39,,,,1425.6731342999997,None,1424.4896662999995,1425.6898037999995,a,1,轻率,l,1,0.40423289999944245,0.6741055000002234,xw,m,19,2024_Apr_21_1445,mian,2021.2.3,60.020118743823105,
,,,,,,1,1,pic/flanker5.png,pic/flanker3.png,a,k,pic/AffRest2.png,,,,,,,,,,,,,,,,,,,,,,,,,0,1,1,1,0,68,68,60,,,,1428.6064221000001,None,1427.4231654999999,1428.6230258,a,1,生动,k,1,0.4128383000006579,0.6599763000003804,xw,m,19,2024_Apr_21_1445,mian,2021.2.3,60.020118743823105,
,,,,,,1,0,pic/flanker6.png,pic/flanker4.png,s,l,pic/AffRest2.png,,,,,,,,,,,,,,,,,,,,,,,,,0,1,1,1,0,69,69,37,,,,1431.5563877,None,1430.3732849000003,1431.5730993000002,s,1,损害,l,1,0.4819375000006403,0.7079686999995829,xw,m,19,2024_Apr_21_1445,mian,2021.2.3,60.020118743823105,
,,,,,,0,1,pic/flanker6.png,pic/flanker2.png,a,k,pic/AffRest2.png,,,,,,,,,,,,,,,,,,,,,,,,,0,1,1,1,0,70,70,26,,,,1434.6066250999997,None,1433.4233178999998,1434.6231942,a,1,丰满,k,1,0.3914951000006113,0.5802226999994673,xw,m,19,2024_Apr_21_1445,mian,2021.2.3,60.020118743823105,
,,,,,,0,0,pic/flanker5.png,pic/flanker1.png,s,l,pic/AffRest2.png,,,,,,,,,,,,,,,,,,,,,,,,,0,1,1,1,0,71,71,35,,,,1437.5559833000002,None,1436.3725429,1437.5726793,s,1,别扭,l,1,0.43477379999967525,0.4904651000006197,xw,m,19,2024_Apr_21_1445,mian,2021.2.3,60.020118743823105,
,,,,,,0,0,pic/flanker6.png,pic/flanker2.png,a,l,pic/AffRest2.png,,,,,,,,,,,,,,,,,,,,,,,,,0,1,1,1,0,72,72,33,,,,1440.5395958000004,None,1439.3559870000004,1440.5562207999997,a,1,嘲笑,l,1,0.5745703000002322,0.5729116999991675,xw,m,19,2024_Apr_21_1445,mian,2021.2.3,60.020118743823105,
,,,,,,1,1,pic/flanker5.png,pic/flanker3.png,a,k,pic/AffRest2.png,,,,,,,,,,,,,,,,,,,,,,,,,0,1,1,1,0,73,73,44,,,,1443.7556610999995,None,1442.5731627999999,1443.7724356000003,a,1,圣洁,k,1,0.46043470000040543,0.5174333000004481,xw,m,19,2024_Apr_21_1445,mian,2021.2.3,60.020118743823105,
,,,,,,0,0,pic/flanker6.png,pic/flanker2.png,a,l,pic/AffRest2.png,,,,,,,,,,,,,,,,,,,,,,,,,0,1,1,1,0,74,74,25,,,,1446.6224180000004,None,1445.4393077999998,1446.6390607999997,a,1,焦躁,l,1,0.46439880000070843,0.5073639000002004,xw,m,19,2024_Apr_21_1445,mian,2021.2.3,60.020118743823105,
,,,,,,0,0,pic/flanker6.png,pic/flanker2.png,a,l,pic/AffRest2.png,,,,,,,,,,,,,,,,,,,,,,,,,0,1,1,1,0,75,75,65,,,,1449.5729680999998,None,1448.3895453999999,1449.5897005000002,a,1,黑暗,l,1,0.5458115000001271,0.6741050999999061,xw,m,19,2024_Apr_21_1445,mian,2021.2.3,60.020118743823105,
,,,,,,0,0,pic/flanker5.png,pic/flanker1.png,s,l,pic/AffRest2.png,,,,,,,,,,,,,,,,,,,,,,,,,0,1,1,1,0,76,76,19,,,,1452.8397694,None,1451.6556765999999,1452.8562754,s,1,处罚,l,1,0.4090926999997464,0.49914650000027905,xw,m,19,2024_Apr_21_1445,mian,2021.2.3,60.020118743823105,
,,,,,,0,0,pic/flanker6.png,pic/flanker2.png,a,l,pic/AffRest2.png,,,,,,,,,,,,,,,,,,,,,,,,,0,1,1,1,0,77,77,9,,,,1455.5898627000001,None,1454.4063155999997,1455.6065175999997,a,1,罚款,l,1,0.3797160999993139,0.5564359999998487,xw,m,19,2024_Apr_21_1445,mian,2021.2.3,60.020118743823105,
,,,,,,0,1,pic/flanker5.png,pic/flanker1.png,s,k,pic/AffRest2.png,,,,,,,,,,,,,,,,,,,,,,,,,0,1,1,1,0,78,78,16,,,,1458.4730776000001,None,1457.2895348999996,1458.4897561000002,s,1,富足,k,1,0.3340671999994811,0.5036557000003086,xw,m,19,2024_Apr_21_1445,mian,2021.2.3,60.020118743823105,
,,,,,,0,0,pic/flanker5.png,pic/flanker1.png,s,l,pic/AffRest2.png,,,,,,,,,,,,,,,,,,,,,,,,,0,1,1,1,0,79,79,59,,,,1461.3727211,None,1460.1895793999997,1461.3896509,s,1,争吵,l,1,0.4173542999997153,0.46220629999970697,xw,m,19,2024_Apr_21_1445,mian,2021.2.3,60.020118743823105,
,,,,,,,,,,,,pic/AffRest2.png,,,,,,,,,,,,,,,,,,,,,,,,,0,1,1,1,,,,,,,,,,,,,,,,,,,xw,m,19,2024_Apr_21_1445,mian,2021.2.3,60.020118743823105,
,,,,,,0,0,pic/flanker6.png,pic/flanker2.png,a,l,pic/AffRest3.png,,,,,,,,,,,,,,,,,,,,,,,,,0,2,2,2,0,0,0,25,,,,1468.3396342,None,1467.1411303,1468.3556943999997,a,1,堵塞,l,1,0.4166263999995863,0.595632000000478,xw,m,19,2024_Apr_21_1445,mian,2021.2.3,60.020118743823105,
,,,,,,1,1,pic/flanker6.png,pic/flanker4.png,s,k,pic/AffRest3.png,,,,,,,,,,,,,,,,,,,,,,,,,0,2,2,2,0,1,1,46,,,,1471.4065104999995,None,1470.2230316,1471.4232514999999,s,1,廉洁,k,1,0.45576100000016595,0.5645369999992909,xw,m,19,2024_Apr_21_1445,mian,2021.2.3,60.020118743823105,
,,,,,,1,1,pic/flanker5.png,pic/flanker3.png,a,k,pic/AffRest3.png,,,,,,,,,,,,,,,,,,,,,,,,,0,2,2,2,0,2,2,60,,,,1474.2728876999995,None,1473.0894886,1474.289811,a,1,赞成,k,1,0.38885430000027554,0.7240278000008402,xw,m,19,2024_Apr_21_1445,mian,2021.2.3,60.020118743823105,
,,,,,,1,1,pic/flanker5.png,pic/flanker3.png,a,k,pic/AffRest3.png,,,,,,,,,,,,,,,,,,,,,,,,,0,2,2,2,0,3,3,44,,,,1477.4229837999997,None,1476.2394010000003,1477.4396677999998,a,1,富丽,k,1,0.4262696000005235,0.5227673999997933,xw,m,19,2024_Apr_21_1445,mian,2021.2.3,60.020118743823105,
,,,,,,0,1,pic/flanker5.png,pic/flanker1.png,s,k,pic/AffRest3.png,,,,,,,,,,,,,,,,,,,,,,,,,0,2,2,2,0,4,4,48,,,,1480.239502,None,1479.0562734,1480.2565043,s,1,留恋,k,1,0.40695009999944887,1.409692699999141,xw,m,19,2024_Apr_21_1445,mian,2021.2.3,60.020118743823105,
,,,,,,1,0,pic/flanker5.png,pic/flanker3.png,a,l,pic/AffRest3.png,,,,,,,,,,,,,,,,,,,,,,,,,0,2,2,2,0,5,5,31,,,,1484.0393399999998,None,1482.8555340999997,1484.0560258,a,1,厌恶,l,1,0.41278609999972105,0.5191617000000406,xw,m,19,2024_Apr_21_1445,mian,2021.2.3,60.020118743823105,
,,,,,,0,0,pic/flanker5.png,pic/flanker1.png,s,l,pic/AffRest3.png,,,,,,,,,,,,,,,,,,,,,,,,,0,2,2,2,0,6,6,27,,,,1486.9062390000004,None,1485.7228835,1486.9229606000004,s,1,沮丧,l,1,0.4869846999999936,0.5044733999993696,xw,m,19,2024_Apr_21_1445,mian,2021.2.3,60.020118743823105,
,,,,,,1,1,pic/flanker5.png,pic/flanker3.png,a,k,pic/AffRest3.png,,,,,,,,,,,,,,,,,,,,,,,,,0,2,2,2,0,7,7,52,,,,1489.9396927000003,None,1488.7561306000002,1489.9561773,a,1,典雅,k,1,0.37030939999931434,0.5402810000005047,xw,m,19,2024_Apr_21_1445,mian,2021.2.3,60.020118743823105,
,,,,,,1,0,pic/flanker5.png,pic/flanker3.png,a,l,pic/AffRest3.png,,,,,,,,,,,,,,,,,,,,,,,,,0,2,2,2,0,8,8,71,,,,1492.9064892000001,None,1491.7229505,1492.9231729999997,a,1,假冒,l,1,0.3506417999997211,0.5358854999994946,xw,m,19,2024_Apr_21_1445,mian,2021.2.3,60.020118743823105,
,,,,,,1,1,pic/flanker6.png,pic/flanker4.png,s,k,pic/AffRest3.png,,,,,,,,,,,,,,,,,,,,,,,,,0,2,2,2,0,9,9,30,,,,1495.8064816,None,1494.6229009000003,1495.8231525999995,s,1,旺盛,k,1,0.38773630000014236,0.7098996000004263,xw,m,19,2024_Apr_21_1445,mian,2021.2.3,60.020118743823105,
,,,,,,0,0,pic/flanker6.png,pic/flanker2.png,a,l,pic/AffRest3.png,,,,,,,,,,,,,,,,,,,,,,,,,0,2,2,2,0,10,10,17,,,,1498.7893812999996,None,1497.6055646999998,1498.8059638,a,1,争吵,l,1,0.409787900000083,0.5491516000001866,xw,m,19,2024_Apr_21_1445,mian,2021.2.3,60.020118743823105,
,,,,,,0,0,pic/flanker5.png,pic/flanker1.png,s,l,pic/AffRest3.png,,,,,,,,,,,,,,,,,,,,,,,,,0,2,2,2,0,11,11,11,,,,1501.6397420999997,None,1500.4562799999999,1501.6564420999998,s,1,胡涂,l,1,0.49972020000041084,0.773153000000093,xw,m,19,2024_Apr_21_1445,mian,2021.2.3,60.020118743823105,
,,,,,,0,0,pic/flanker5.png,pic/flanker1.png,s,l,pic/AffRest3.png,,,,,,,,,,,,,,,,,,,,,,,,,0,2,2,2,0,12,12,51,,,,1504.8896548999996,None,1503.7062073000002,1504.9062565999998,s,1,心慌,l,1,0.5338192999997773,0.5361861000001227,xw,m,19,2024_Apr_21_1445,mian,2021.2.3,60.020118743823105,
,,,,,,1,1,pic/flanker5.png,pic/flanker3.png,a,k,pic/AffRest3.png,,,,,,,,,,,,,,,,,,,,,,,,,0,2,2,2,0,13,13,36,,,,1507.9230784999995,None,1506.7396101999998,1507.9397899,a,1,吉祥,k,1,0.3891062000002421,0.5459790000004432,xw,m,19,2024_Apr_21_1445,mian,2021.2.3,60.020118743823105,
,,,,,,0,1,pic/flanker5.png,pic/flanker1.png,s,k,pic/AffRest3.png,,,,,,,,,,,,,,,,,,,,,,,,,0,2,2,2,0,14,14,16,,,,1510.7728939000003,None,1509.5895981999997,1510.7895364,s,1,羡慕,k,1,0.39418660000046657,1.1163624999999229,xw,m,19,2024_Apr_21_1445,mian,2021.2.3,60.020118743823105,
,,,,,,1,0,pic/flanker6.png,pic/flanker4.png,s,l,pic/AffRest3.png,,,,,,,,,,,,,,,,,,,,,,,,,0,2,2,2,0,15,15,29,,,,1514.1896564000003,None,1513.0063183999996,1514.2062865000003,s,1,撒谎,l,1,0.6640399999996589,0.45133739999982936,xw,m,19,2024_Apr_21_1445,mian,2021.2.3,60.020118743823105,
,,,,,,0,0,pic/flanker5.png,pic/flanker1.png,s,l,pic/AffRest3.png,,,,,,,,,,,,,,,,,,,,,,,,,0,2,2,2,0,16,16,35,,,,1517.3231414999996,None,1516.1393996000002,1517.3397819999996,s,1,冷笑,l,1,0.3792579000000842,0.4683254000001398,xw,m,19,2024_Apr_21_1445,mian,2021.2.3,60.020118743823105,
,,,,,,1,1,pic/flanker5.png,pic/flanker3.png,a,k,pic/AffRest3.png,,,,,,,,,,,,,,,,,,,,,,,,,0,2,2,2,0,17,17,20,,,,1520.2397822999997,None,1519.0554590999996,1520.2565172,a,1,敬佩,k,1,0.40347639999981766,0.8281245999996827,xw,m,19,2024_Apr_21_1445,mian,2021.2.3,60.020118743823105,
,,,,,,0,1,pic/flanker6.png,pic/flanker2.png,a,k,pic/AffRest3.png,,,,,,,,,,,,,,,,,,,,,,,,,0,2,2,2,0,18,18,34,,,,1523.5226544000002,None,1522.3393906999995,1523.5394561999997,a,1,正直,k,1,0.41464389999964624,0.5193157000003339,xw,m,19,2024_Apr_21_1445,mian,2021.2.3,60.020118743823105,
,,,,,,1,0,pic/flanker5.png,pic/flanker3.png,a,l,pic/AffRest3.png,,,,,,,,,,,,,,,,,,,,,,,,,0,2,2,2,0,19,19,15,,,,1526.3895721000004,None,1525.2061532000002,1526.4061679000001,a,1,忧虑,l,1,0.3608800000001793,0.4147304999996777,xw,m,19,2024_Apr_21_1445,mian,2021.2.3,60.020118743823105,
,,,,,,1,0,pic/flanker6.png,pic/flanker4.png,s,l,pic/AffRest3.png,,,,,,,,,,,,,,,,,,,,,,,,,0,2,2,2,0,20,20,77,,,,1529.1558073,None,1527.9727087999995,1529.1724147999998,s,1,别扭,l,1,0.4107243999997081,0.45514819999971223,xw,m,19,2024_Apr_21_1445,mian,2021.2.3,60.020118743823105,
,,,,,,1,0,pic/flanker6.png,pic/flanker4.png,s,l,pic/AffRest3.png,,,,,,,,,,,,,,,,,,,,,,,,,0,2,2,2,0,21,21,13,,,,1532.0395101999998,None,1530.8559724000002,1532.0562650999996,s,1,逃避,l,1,0.40621770000052493,0.5096634999999878,xw,m,19,2024_Apr_21_1445,mian,2021.2.3,60.020118743823105,
,,,,,,0,0,pic/flanker5.png,pic/flanker1.png,s,l,pic/AffRest3.png,,,,,,,,,,,,,,,,,,,,,,,,,0,2,2,2,0,22,22,67,,,,1534.8394856999998,None,1533.6558770999995,1534.8560712000003,s,1,处罚,l,1,0.43469160000040574,0.4423430999995617,xw,m,19,2024_Apr_21_1445,mian,2021.2.3,60.020118743823105,
,,,,,,1,1,pic/flanker5.png,pic/flanker3.png,a,k,pic/AffRest3.png,,,,,,,,,,,,,,,,,,,,,,,,,0,2,2,2,0,23,23,12,,,,1537.7729115999996,None,1536.5894948999999,1537.7898127000003,a,1,秀丽,k,1,0.3813758999995116,0.6204784000001382,xw,m,19,2024_Apr_21_1445,mian,2021.2.3,60.020118743823105,
,,,,,,0,0,pic/flanker5.png,pic/flanker1.png,s,l,pic/AffRest3.png,,,,,,,,,,,,,,,,,,,,,,,,,0,2,2,2,0,24,24,75,,,,1540.6895203999998,None,1539.5060606000002,1540.7061354000002,s,1,悲观,l,1,0.7208151000004364,0.5789817999993829,xw,m,19,2024_Apr_21_1445,mian,2021.2.3,60.020118743823105,
,,,,,,1,0,pic/flanker6.png,pic/flanker4.png,s,l,pic/AffRest3.png,,,,,,,,,,,,,,,,,,,,,,,,,0,2,2,2,0,25,25,5,,,,1543.9226972000001,None,1542.7394266999995,1543.9394832000003,s,1,罚款,l,1,0.43409090000022843,0.4955857000004471,xw,m,19,2024_Apr_21_1445,mian,2021.2.3,60.020118743823105,
,,,,,,1,0,pic/flanker5.png,pic/flanker3.png,a,l,pic/AffRest3.png,,,,,,,,,,,,,,,,,,,,,,,,,0,2,2,2,0,26,26,55,,,,1546.9061318,None,1545.7226330999997,1546.9225863999995,a,1,轻率,l,1,0.37996000000021013,0.44622220000019297,xw,m,19,2024_Apr_21_1445,mian,2021.2.3,60.020118743823105,
,,,,,,0,1,pic/flanker6.png,pic/flanker2.png,a,k,pic/AffRest3.png,,,,,,,,,,,,,,,,,,,,,,,,,0,2,2,2,0,27,27,2,,,,1549.6896995000002,None,1548.5061359999995,1549.7063888999996,a,1,振作,k,1,0.4049777999998696,0.5638167999995858,xw,m,19,2024_Apr_21_1445,mian,2021.2.3,60.020118743823105,
,,,,,,0,1,pic/flanker6.png,pic/flanker2.png,a,k,pic/AffRest3.png,,,,,,,,,,,,,,,,,,,,,,,,,0,2,2,2,0,28,28,42,,,,1552.4894172,None,1551.3060437999998,1552.5061389999996,a,1,生动,k,1,0.567466699999386,0.540484899999683,xw,m,19,2024_Apr_21_1445,mian,2021.2.3,60.020118743823105,
,,,,,,0,1,pic/flanker6.png,pic/flanker2.png,a,k,pic/AffRest3.png,,,,,,,,,,,,,,,,,,,,,,,,,0,2,2,2,0,29,29,74,,,,1555.4562066000003,None,1554.2726414000003,1555.4728690999996,a,1,俊秀,k,1,0.3899877000003471,0.4983978999998726,xw,m,19,2024_Apr_21_1445,mian,2021.2.3,60.020118743823105,
,,,,,,0,0,pic/flanker6.png,pic/flanker2.png,a,l,pic/AffRest3.png,,,,,,,,,,,,,,,,,,,,,,,,,0,2,2,2,0,30,30,73,,,,1558.2563741,None,1557.0726941999997,1558.2729567000001,a,1,伤心,l,1,0.3567938999995022,0.4314746000000014,xw,m,19,2024_Apr_21_1445,mian,2021.2.3,60.020118743823105,
,,,,,,0,1,pic/flanker6.png,pic/flanker2.png,a,k,pic/AffRest3.png,,,,,,,,,,,,,,,,,,,,,,,,,0,2,2,2,0,31,31,26,,,,1561.0893288000002,None,1559.9061659000004,1561.1060380000004,a,1,有利,k,1,0.34434179999971093,0.5591692999996667,xw,m,19,2024_Apr_21_1445,mian,2021.2.3,60.020118743823105,
,,,,,,0,1,pic/flanker5.png,pic/flanker1.png,s,k,pic/AffRest3.png,,,,,,,,,,,,,,,,,,,,,,,,,0,2,2,2,0,32,32,64,,,,1564.0393024,None,1562.8560160000002,1564.0560142999998,s,1,充裕,k,1,0.36036609999973734,0.5035933999997724,xw,m,19,2024_Apr_21_1445,mian,2021.2.3,60.020118743823105,
,,,,,,1,1,pic/flanker5.png,pic/flanker3.png,a,k,pic/AffRest3.png,,,,,,,,,,,,,,,,,,,,,,,,,0,2,2,2,0,33,33,68,,,,1566.9560495,None,1565.7726901,1566.9727275999999,a,1,清秀,k,1,0.3606257999999798,0.46838500000012573,xw,m,19,2024_Apr_21_1445,mian,2021.2.3,60.020118743823105,
,,,,,,0,0,pic/flanker6.png,pic/flanker2.png,a,l,pic/AffRest3.png,,,,,,,,,,,,,,,,,,,,,,,,,0,2,2,2,0,34,34,33,,,,1569.7894779000003,None,1568.6061094000002,1569.8061278999999,a,1,闷热,l,1,0.3211423000002469,0.46819289999984903,xw,m,19,2024_Apr_21_1445,mian,2021.2.3,60.020118743823105,
,,,,,,0,1,pic/flanker5.png,pic/flanker1.png,s,k,pic/AffRest3.png,,,,,,,,,,,,,,,,,,,,,,,,,0,2,2,2,0,35,35,56,,,,1572.5063558999996,None,1571.3226415000004,1572.5229747999997,s,1,顽强,k,1,0.3684180000000197,1.1807584999996834,xw,m,19,2024_Apr_21_1445,mian,2021.2.3,60.020118743823105,
,,,,,,0,0,pic/flanker6.png,pic/flanker2.png,a,l,pic/AffRest3.png,,,,,,,,,,,,,,,,,,,,,,,,,0,2,2,2,0,36,36,57,,,,1576.0893283999999,None,1574.9062042,1576.1060417000003,a,1,损害,l,1,0.3609833000000435,0.5538231000000451,xw,m,19,2024_Apr_21_1445,mian,2021.2.3,60.020118743823105,
,,,,,,1,1,pic/flanker6.png,pic/flanker4.png,s,k,pic/AffRest3.png,,,,,,,,,,,,,,,,,,,,,,,,,0,2,2,2,0,37,37,22,,,,1578.8895375999996,None,1577.7058869999996,1578.9064001000002,s,1,畅销,k,1,0.4412660000007236,0.5607699999991382,xw,m,19,2024_Apr_21_1445,mian,2021.2.3,60.020118743823105,
,,,,,,0,1,pic/flanker5.png,pic/flanker1.png,s,k,pic/AffRest3.png,,,,,,,,,,,,,,,,,,,,,,,,,0,2,2,2,0,38,38,32,,,,1581.7395087999998,None,1580.5558472999996,1581.7560695999996,s,1,爽朗,k,1,0.49962950000008277,0.6575530000000072,xw,m,19,2024_Apr_21_1445,mian,2021.2.3,60.020118743823105,
,,,,,,1,1,pic/flanker6.png,pic/flanker4.png,s,k,pic/AffRest3.png,,,,,,,,,,,,,,,,,,,,,,,,,0,2,2,2,0,39,39,6,,,,1584.8727942,None,1583.6893090999997,1584.8895056999995,s,1,富足,k,1,0.49577730000055453,0.5071758000003683,xw,m,19,2024_Apr_21_1445,mian,2021.2.3,60.020118743823105,
,,,,,,0,1,pic/flanker6.png,pic/flanker2.png,a,k,pic/AffRest3.png,,,,,,,,,,,,,,,,,,,,,,,,,0,2,2,2,0,40,40,58,,,,1587.8560695,None,1586.6730464999996,1587.8726678999997,a,1,诚恳,k,1,0.3177648999999292,0.600677800000085,xw,m,19,2024_Apr_21_1445,mian,2021.2.3,60.020118743823105,
,,,,,,0,0,pic/flanker6.png,pic/flanker2.png,a,l,pic/AffRest3.png,,,,,,,,,,,,,,,,,,,,,,,,,0,2,2,2,0,41,41,1,,,,1590.7729652000003,None,1589.5893171000002,1590.7893885999997,a,1,自卑,l,1,0.35311490000003687,0.589401999999609,xw,m,19,2024_Apr_21_1445,mian,2021.2.3,60.020118743823105,
,,,,,,0,1,pic/flanker6.png,pic/flanker2.png,a,k,pic/AffRest3.png,,,,,,,,,,,,,,,,,,,,,,,,,0,2,2,2,0,42,42,10,,,,1593.6228187000002,None,1592.4392486000002,1593.6393074000002,a,1,前进,k,1,0.38572860000022047,0.5535411999999269,xw,m,19,2024_Apr_21_1445,mian,2021.2.3,60.020118743823105,
,,,,,,1,0,pic/flanker6.png,pic/flanker4.png,s,l,pic/AffRest3.png,,,,,,,,,,,,,,,,,,,,,,,,,0,2,2,2,0,43,43,21,,,,1596.5059448999996,None,1595.3227046999996,1596.5227993000003,s,1,黑暗,l,1,0.3984691000005114,0.6754044999997859,xw,m,19,2024_Apr_21_1445,mian,2021.2.3,60.020118743823105,
,,,,,,0,1,pic/flanker5.png,pic/flanker1.png,s,k,pic/AffRest3.png,,,,,,,,,,,,,,,,,,,,,,,,,0,2,2,2,0,44,44,40,,,,1599.5896504999996,None,1598.4059848000002,1599.606362,s,1,奉献,k,1,0.43534600000020873,0.6014644000006228,xw,m,19,2024_Apr_21_1445,mian,2021.2.3,60.020118743823105,
,,,,,,0,0,pic/flanker6.png,pic/flanker2.png,a,l,pic/AffRest3.png,,,,,,,,,,,,,,,,,,,,,,,,,0,2,2,2,0,45,45,41,,,,1602.7223572999997,None,1601.5386101999998,1602.7389998000003,a,1,烦恼,l,1,0.3867167000007612,0.4452176999993753,xw,m,19,2024_Apr_21_1445,mian,2021.2.3,60.020118743823105,
,,,,,,1,1,pic/flanker5.png,pic/flanker3.png,a,k,pic/AffRest3.png,,,,,,,,,,,,,,,,,,,,,,,,,0,2,2,2,0,46,46,76,,,,1605.4061396000002,None,1604.2227717,1605.4224846000002,a,1,鲜艳,k,1,0.37544550000075105,0.5365816000003178,xw,m,19,2024_Apr_21_1445,mian,2021.2.3,60.020118743823105,
,,,,,,0,1,pic/flanker5.png,pic/flanker1.png,s,k,pic/AffRest3.png,,,,,,,,,,,,,,,,,,,,,,,,,0,2,2,2,0,47,47,72,,,,1608.2727973999995,None,1607.0893867999998,1608.2893676999997,s,1,珍藏,k,1,0.5948928999996497,0.5338713999999527,xw,m,19,2024_Apr_21_1445,mian,2021.2.3,60.020118743823105,
,,,,,,1,1,pic/flanker6.png,pic/flanker4.png,s,k,pic/AffRest3.png,,,,,,,,,,,,,,,,,,,,,,,,,0,2,2,2,0,48,48,14,,,,1611.2396253000002,None,1610.0560848999999,1611.2562933000004,s,1,丰满,k,1,0.5721991999998863,0.5267327999999907,xw,m,19,2024_Apr_21_1445,mian,2021.2.3,60.020118743823105,
,,,,,,0,0,pic/flanker6.png,pic/flanker2.png,a,l,pic/AffRest3.png,,,,,,,,,,,,,,,,,,,,,,,,,0,2,2,2,0,49,49,65,,,,1614.3892203,None,1613.2059249,1614.4058331,a,1,缺乏,l,1,0.36827999999968597,0.5081122000001415,xw,m,19,2024_Apr_21_1445,mian,2021.2.3,60.020118743823105,
,,,,,,1,1,pic/flanker6.png,pic/flanker4.png,s,k,pic/AffRest3.png,,,,,,,,,,,,,,,,,,,,,,,,,0,2,2,2,0,50,50,78,,,,1617.1225407999996,None,1615.9394254000003,1617.1393443000002,s,1,享受,k,1,0.5938707000004797,0.4941086999997424,xw,m,19,2024_Apr_21_1445,mian,2021.2.3,60.020118743823105,
,,,,,,1,1,pic/flanker6.png,pic/flanker4.png,s,k,pic/AffRest3.png,,,,,,,,,,,,,,,,,,,,,,,,,0,2,2,2,0,51,51,38,,,,1620.2728884000003,None,1619.0888173999997,1620.2896972000003,s,1,优雅,k,1,0.4858520000007047,0.5280413000000408,xw,m,19,2024_Apr_21_1445,mian,2021.2.3,60.020118743823105,
,,,,,,1,0,pic/flanker5.png,pic/flanker3.png,a,l,pic/AffRest3.png,,,,,,,,,,,,,,,,,,,,,,,,,0,2,2,2,0,52,52,39,,,,1623.20624,None,1622.0219973999997,1623.2229094,a,1,落后,l,1,0.39774579999993875,0.4966646999992008,xw,m,19,2024_Apr_21_1445,mian,2021.2.3,60.020118743823105,
,,,,,,0,0,pic/flanker6.png,pic/flanker2.png,a,l,pic/AffRest3.png,,,,,,,,,,,,,,,,,,,,,,,,,0,2,2,2,0,53,53,49,,,,1625.9725006000003,None,1624.7892741,1625.9893193000003,a,1,穷苦,l,1,0.33554519999961485,0.4429486999997607,xw,m,19,2024_Apr_21_1445,mian,2021.2.3,60.020118743823105,
,,,,,,0,1,pic/flanker6.png,pic/flanker2.png,a,k,pic/AffRest3.png,,,,,,,,,,,,,,,,,,,,,,,,,0,2,2,2,0,54,54,50,,,,1628.6397194999995,None,1627.4559738000003,1628.6562524999995,a,1,热切,k,1,0.34242449999965174,0.5277581999998802,xw,m,19,2024_Apr_21_1445,mian,2021.2.3,60.020118743823105,
,,,,,,0,1,pic/flanker5.png,pic/flanker1.png,s,k,pic/AffRest3.png,,,,,,,,,,,,,,,,,,,,,,,,,0,2,2,2,0,55,55,24,,,,1631.4559408,None,1630.2724789,1631.4725997,s,1,瑰丽,k,1,0.33948340000006283,0.5514338000002681,xw,m,19,2024_Apr_21_1445,mian,2021.2.3,60.020118743823105,
,,,,,,1,0,pic/flanker5.png,pic/flanker3.png,a,l,pic/AffRest3.png,,,,,,,,,,,,,,,,,,,,,,,,,0,2,2,2,0,56,56,63,,,,1634.3058839999999,None,1633.1226075999998,1634.3226269000002,a,1,嘲笑,l,1,0.3769702999998117,0.5152490999998918,xw,m,19,2024_Apr_21_1445,mian,2021.2.3,60.020118743823105,
,,,,,,1,1,pic/flanker6.png,pic/flanker4.png,s,k,pic/AffRest3.png,,,,,,,,,,,,,,,,,,,,,,,,,0,2,2,2,0,57,57,70,,,,1637.0226274000001,None,1635.8392502000002,1637.0393926000002,s,1,公平,k,1,1.1048425999997562,0.5275672999996459,xw,m,19,2024_Apr_21_1445,mian,2021.2.3,60.020118743823105,
,,,,,,0,1,pic/flanker5.png,pic/flanker1.png,s,k,pic/AffRest3.png,,,,,,,,,,,,,,,,,,,,,,,,,0,2,2,2,0,58,58,8,,,,1640.7059130000002,None,1639.5220660999998,1640.7220632000003,s,1,永恒,k,1,0.44011110000064946,0.49789959999998246,xw,m,19,2024_Apr_21_1445,mian,2021.2.3,60.020118743823105,
,,,,,,1,0,pic/flanker6.png,pic/flanker4.png,s,l,pic/AffRest3.png,,,,,,,,,,,,,,,,,,,,,,,,,0,2,2,2,0,59,59,45,,,,1643.5220574999998,None,1642.3393125999996,1643.5392913,s,1,失意,l,1,0.5748839999996562,0.44700340000053984,xw,m,19,2024_Apr_21_1445,mian,2021.2.3,60.020118743823105,
,,,,,,0,0,pic/flanker5.png,pic/flanker1.png,s,l,pic/AffRest3.png,,,,,,,,,,,,,,,,,,,,,,,,,0,2,2,2,0,60,60,43,,,,1646.389393,None,1645.2059517000002,1646.4058977999998,s,1,慌忙,l,1,0.3960153000007267,0.5148346000005404,xw,m,19,2024_Apr_21_1445,mian,2021.2.3,60.020118743823105,
,,,,,,0,0,pic/flanker5.png,pic/flanker1.png,s,l,pic/AffRest3.png,,,,,,,,,,,,,,,,,,,,,,,,,0,2,2,2,0,61,61,19,,,,1649.3227284999998,None,1648.1391482000004,1649.3393031,s,1,消沉,l,1,0.515713799999503,0.5043001999993066,xw,m,19,2024_Apr_21_1445,mian,2021.2.3,60.020118743823105,
,,,,,,1,0,pic/flanker6.png,pic/flanker4.png,s,l,pic/AffRest3.png,,,,,,,,,,,,,,,,,,,,,,,,,0,2,2,2,0,62,62,61,,,,1652.4059671999998,None,1651.2226813000002,1652.4220434000003,s,1,焦躁,l,1,0.7024845000005371,0.5275682000001325,xw,m,19,2024_Apr_21_1445,mian,2021.2.3,60.020118743823105,
,,,,,,1,0,pic/flanker5.png,pic/flanker3.png,a,l,pic/AffRest3.png,,,,,,,,,,,,,,,,,,,,,,,,,0,2,2,2,0,63,63,47,,,,1655.6388611999996,None,1654.4552122999999,1655.6556441999996,a,1,怀疑,l,1,0.35875039999973524,0.48568969999996625,xw,m,19,2024_Apr_21_1445,mian,2021.2.3,60.020118743823105,
,,,,,,1,0,pic/flanker6.png,pic/flanker4.png,s,l,pic/AffRest3.png,,,,,,,,,,,,,,,,,,,,,,,,,0,2,2,2,0,64,64,37,,,,1658.3224650999996,None,1657.1391093999996,1658.3391521999997,s,1,排斥,l,1,0.427923400000509,0.5718489000000773,xw,m,19,2024_Apr_21_1445,mian,2021.2.3,60.020118743823105,
,,,,,,1,0,pic/flanker5.png,pic/flanker3.png,a,l,pic/AffRest3.png,,,,,,,,,,,,,,,,,,,,,,,,,0,2,2,2,0,65,65,79,,,,1661.1726218999997,None,1659.9893810999997,1661.1893217000002,a,1,郁闷,l,1,0.4389797000003455,0.4317064999995637,xw,m,19,2024_Apr_21_1445,mian,2021.2.3,60.020118743823105,
,,,,,,0,0,pic/flanker5.png,pic/flanker1.png,s,l,pic/AffRest3.png,,,,,,,,,,,,,,,,,,,,,,,,,0,2,2,2,0,66,66,59,,,,1664.0218978999997,None,1662.83884,1664.0390327999999,s,1,丢失,l,1,0.4744313000001057,0.47656889999962004,xw,m,19,2024_Apr_21_1445,mian,2021.2.3,60.020118743823105,
,,,,,,0,1,pic/flanker6.png,pic/flanker2.png,a,k,pic/AffRest3.png,,,,,,,,,,,,,,,,,,,,,,,,,0,2,2,2,0,67,67,66,,,,1666.9726161000003,None,1665.7893532000003,1666.9891596000002,a,1,豪放,k,1,0.45620969999981753,0.7387816999998904,xw,m,19,2024_Apr_21_1445,mian,2021.2.3,60.020118743823105,
,,,,,,1,1,pic/flanker5.png,pic/flanker3.png,a,k,pic/AffRest3.png,,,,,,,,,,,,,,,,,,,,,,,,,0,2,2,2,0,68,68,28,,,,1670.1393082,None,1668.9557816000001,1670.1559492000001,a,1,圣洁,k,1,0.47479090000069846,0.5569504000004599,xw,m,19,2024_Apr_21_1445,mian,2021.2.3,60.020118743823105,
,,,,,,1,1,pic/flanker5.png,pic/flanker3.png,a,k,pic/AffRest3.png,,,,,,,,,,,,,,,,,,,,,,,,,0,2,2,2,0,69,69,4,,,,1673.1557122999998,None,1671.9726182,1673.1725619000003,a,1,舒畅,l,0,0.3846517000001768,0.3735692999998719,xw,m,19,2024_Apr_21_1445,mian,2021.2.3,60.020118743823105,
,,,,,,1,0,pic/flanker5.png,pic/flanker3.png,a,l,pic/AffRest3.png,,,,,,,,,,,,,,,,,,,,,,,,,0,2,2,2,0,70,70,23,,,,1675.9727491999997,None,1674.7892922999995,1675.9893046000002,a,1,浪费,l,1,0.41864930000065215,0.6298600999998598,xw,m,19,2024_Apr_21_1445,mian,2021.2.3,60.020118743823105,
,,,,,,1,0,pic/flanker5.png,pic/flanker3.png,a,l,pic/AffRest3.png,,,,,,,,,,,,,,,,,,,,,,,,,0,2,2,2,0,71,71,7,,,,1679.0724202999995,None,1677.8890975,1679.0892343,a,1,懒惰,l,1,0.5245145999997476,0.5580525999994279,xw,m,19,2024_Apr_21_1445,mian,2021.2.3,60.020118743823105,
,,,,,,1,1,pic/flanker6.png,pic/flanker4.png,s,k,pic/AffRest3.png,,,,,,,,,,,,,,,,,,,,,,,,,0,2,2,2,0,72,72,54,,,,1682.039072,None,1680.8558447999999,1682.0558849000004,s,1,如愿,k,1,0.42277259999991657,0.6878137999992759,xw,m,19,2024_Apr_21_1445,mian,2021.2.3,60.020118743823105,
,,,,,,0,0,pic/flanker5.png,pic/flanker1.png,s,l,pic/AffRest3.png,,,,,,,,,,,,,,,,,,,,,,,,,0,2,2,2,0,73,73,3,,,,1685.0893838999996,None,1683.9059026999998,1685.1059546000001,s,1,杂乱,l,1,0.3844828999999663,0.6875632000001133,xw,m,19,2024_Apr_21_1445,mian,2021.2.3,60.020118743823105,
,,,,,,0,1,pic/flanker6.png,pic/flanker2.png,a,k,pic/AffRest3.png,,,,,,,,,,,,,,,,,,,,,,,,,0,2,2,2,0,74,74,18,,,,1688.072506,None,1686.8891827000002,1688.0892280000003,a,1,雄厚,k,1,0.3700822999999218,0.4783751000004486,xw,m,19,2024_Apr_21_1445,mian,2021.2.3,60.020118743823105,
,,,,,,1,0,pic/flanker6.png,pic/flanker4.png,s,l,pic/AffRest3.png,,,,,,,,,,,,,,,,,,,,,,,,,0,2,2,2,0,75,75,69,,,,1690.8392845000003,None,1689.6556315000003,1690.8559944000003,s,1,孤单,l,1,0.563219200000276,0.5472687000001315,xw,m,19,2024_Apr_21_1445,mian,2021.2.3,60.020118743823105,
,,,,,,0,1,pic/flanker5.png,pic/flanker1.png,s,k,pic/AffRest3.png,,,,,,,,,,,,,,,,,,,,,,,,,0,2,2,2,0,76,76,0,,,,1693.7893077000003,None,1692.6060632000003,1693.8057354999996,s,1,精致,k,1,0.4877165999996578,0.5323178999997253,xw,m,19,2024_Apr_21_1445,mian,2021.2.3,60.020118743823105,
,,,,,,1,1,pic/flanker6.png,pic/flanker4.png,s,k,pic/AffRest3.png,,,,,,,,,,,,,,,,,,,,,,,,,0,2,2,2,0,77,77,62,,,,1696.8392897999997,None,1695.6559091000004,1696.8558983999997,s,1,卓越,k,1,0.6069001999994725,0.47538729999996576,xw,m,19,2024_Apr_21_1445,mian,2021.2.3,60.020118743823105,
,,,,,,1,0,pic/flanker6.png,pic/flanker4.png,s,l,pic/AffRest3.png,,,,,,,,,,,,,,,,,,,,,,,,,0,2,2,2,0,78,78,53,,,,1699.8059077000003,None,1698.6224854999996,1699.8225338999996,s,1,鲁莽,l,1,0.6210325000001831,0.5779006000002482,xw,m,19,2024_Apr_21_1445,mian,2021.2.3,60.020118743823105,
,,,,,,0,0,pic/flanker6.png,pic/flanker2.png,a,l,pic/AffRest3.png,,,,,,,,,,,,,,,,,,,,,,,,,0,2,2,2,0,79,79,9,,,,1702.8891498999997,None,1701.7057988000001,1702.9058973999995,a,1,禁止,l,1,0.5310472000001027,0.5370005999993737,xw,m,19,2024_Apr_21_1445,mian,2021.2.3,60.020118743823105,
,,,,,,,,,,,,pic/AffRest3.png,,,,,,,,,,,,,,,,,,,,,,,,,0,2,2,2,,,,,,,,,,,,,,,,,,,xw,m,19,2024_Apr_21_1445,mian,2021.2.3,60.020118743823105,
,,,,,,0,1,pic/flanker6.png,pic/flanker2.png,a,k,pic/EndExp.PNG,,,,,,,,,,,,,,,,,,,,,,,,,0,3,3,3,0,0,0,42,,,,1724.7058759999995,None,1723.5064533,1724.7058759999995,a,1,瑰丽,k,1,0.5006487999999081,0.7132183000003351,xw,m,19,2024_Apr_21_1445,mian,2021.2.3,60.020118743823105,
