target,反应类型,条件,truetarget,CorAns,Position,congruency,AffValue,flankerPic,targetPic,corAnsF,corAnsA,RestPic,returnPractice.thisRepN,returnPractice.thisTrialN,returnPractice.thisN,returnPractice.thisIndex,pracNum.thisRepN,pracNum.thisTrialN,pracNum.thisN,pracNum.thisIndex,NumBlock1.thisRepN,NumBlock1.thisTrialN,NumBlock1.thisN,NumBlock1.thisIndex,NumBlock2.thisRepN,NumBlock2.thisTrialN,NumBlock2.thisN,NumBlock2.thisIndex,returnPrac.thisRepN,returnPrac.thisTrialN,returnPrac.thisN,returnPrac.thisIndex,PracAff.thisRepN,PracAff.thisTrialN,PracAff.thisN,PracAff.thisIndex,AffBlocks.thisRepN,AffBlocks.thisTrialN,AffBlocks.thisN,AffBlocks.thisIndex,AffBlock1.thisRepN,AffBlock1.thisTrialN,AffBlock1.thisN,AffBlock1.thisIndex,respNum2word.keys,respNum2word.corr,respNum2word.rt,text.started,text.stopped,blank.started,blank.stopped,respFlanker.keys,respFlanker.corr,respFlanker.rt,thisWord,respAffWord.keys,respAffWord.corr,respAffWord.rt,姓名,性别,年龄（周岁）,date,expName,psychopyVersion,frameRate,
2A,1,1,A,a,"[0.2, 0.2]",,,,,,,,0,0,0,0,0,0,0,0,,,,,,,,,,,,,,,,,,,,,,,,,a,1,2.3735235999993165,,,,,,,,,,,,yh,m,23,2024_Apr_19_1728,mian,2021.2.3,60.01738103401667,
A9,1,2,A,a,"[-0.2, 0.2]",,,,,,,,0,0,0,0,0,1,1,1,,,,,,,,,,,,,,,,,,,,,,,,,a,1,1.532846599999175,,,,,,,,,,,,yh,m,23,2024_Apr_19_1728,mian,2021.2.3,60.01738103401667,
7e,2,1,7.0,a,"[-0.2, -0.2]",,,,,,,,0,0,0,0,0,2,2,2,,,,,,,,,,,,,,,,,,,,,,,,,a,1,1.4701834999978018,,,,,,,,,,,,yh,m,23,2024_Apr_19_1728,mian,2021.2.3,60.01738103401667,
9H,2,2,9.0,a,"[0.2, -0.2]",,,,,,,,0,0,0,0,0,3,3,3,,,,,,,,,,,,,,,,,,,,,,,,,a,1,1.9290671000017028,,,,,,,,,,,,yh,m,23,2024_Apr_19_1728,mian,2021.2.3,60.01738103401667,
h4,1,1,h,l,"[0.2, 0.2]",,,,,,,,0,0,0,0,0,4,4,4,,,,,,,,,,,,,,,,,,,,,,,,,l,1,1.9526244999979099,,,,,,,,,,,,yh,m,23,2024_Apr_19_1728,mian,2021.2.3,60.01738103401667,
4H,1,2,H,a,"[-0.2, 0.2]",,,,,,,,0,0,0,0,0,5,5,5,,,,,,,,,,,,,,,,,,,,,,,,,a,1,2.0538720000004105,,,,,,,,,,,,yh,m,23,2024_Apr_19_1728,mian,2021.2.3,60.01738103401667,
F8,2,1,8.0,l,"[-0.2, -0.2]",,,,,,,,0,0,0,0,0,6,6,6,,,,,,,,,,,,,,,,,,,,,,,,,l,1,1.687417799999821,,,,,,,,,,,,yh,m,23,2024_Apr_19_1728,mian,2021.2.3,60.01738103401667,
h7,2,2,7.0,a,"[0.2, -0.2]",,,,,,,,0,0,0,0,0,7,7,7,,,,,,,,,,,,,,,,,,,,,,,,,a,1,1.4096724999981234,,,,,,,,,,,,yh,m,23,2024_Apr_19_1728,mian,2021.2.3,60.01738103401667,
5e,1,1,e,l,"[0.2, 0.2]",,,,,,,,0,0,0,0,0,8,8,8,,,,,,,,,,,,,,,,,,,,,,,,,l,1,1.7778457999993407,,,,,,,,,,,,yh,m,23,2024_Apr_19_1728,mian,2021.2.3,60.01738103401667,
e8,1,2,e,l,"[-0.2, 0.2]",,,,,,,,0,0,0,0,0,9,9,9,,,,,,,,,,,,,,,,,,,,,,,,,l,1,1.4292209000013827,,,,,,,,,,,,yh,m,23,2024_Apr_19_1728,mian,2021.2.3,60.01738103401667,
4E,2,1,4.0,l,"[-0.2, -0.2]",,,,,,,,0,0,0,0,0,10,10,10,,,,,,,,,,,,,,,,,,,,,,,,,a,0,1.5914236000025994,,,,,,,,,,,,yh,m,23,2024_Apr_19_1728,mian,2021.2.3,60.01738103401667,
5H,2,2,5.0,a,"[0.2, -0.2]",,,,,,,,0,0,0,0,0,11,11,11,,,,,,,,,,,,,,,,,,,,,,,,,a,1,1.1172594000017853,,,,,,,,,,,,yh,m,23,2024_Apr_19_1728,mian,2021.2.3,60.01738103401667,
9E,1,1,E,a,"[0.2, 0.2]",,,,,,,,0,0,0,0,0,12,12,12,,,,,,,,,,,,,,,,,,,,,,,,,a,1,1.7445292999982485,,,,,,,,,,,,yh,m,23,2024_Apr_19_1728,mian,2021.2.3,60.01738103401667,
h9,1,2,h,l,"[-0.2, 0.2]",,,,,,,,0,0,0,0,0,13,13,13,,,,,,,,,,,,,,,,,,,,,,,,,l,1,0.655776200001128,,,,,,,,,,,,yh,m,23,2024_Apr_19_1728,mian,2021.2.3,60.01738103401667,
2a,2,1,2.0,l,"[-0.2, -0.2]",,,,,,,,0,0,0,0,0,14,14,14,,,,,,,,,,,,,,,,,,,,,,,,,l,1,1.7901674999993702,,,,,,,,,,,,yh,m,23,2024_Apr_19_1728,mian,2021.2.3,60.01738103401667,
e5,2,2,5.0,a,"[0.2, -0.2]",,,,,,,,0,0,0,0,0,15,15,15,,,,,,,,,,,,,,,,,,,,,,,,,a,1,0.7393196000011812,,,,,,,,,,,,yh,m,23,2024_Apr_19_1728,mian,2021.2.3,60.01738103401667,
A5,1,1,A,a,"[0.2, 0.2]",,,,,,,,0,0,0,0,0,16,16,16,,,,,,,,,,,,,,,,,,,,,,,,,a,1,1.1342063000010967,,,,,,,,,,,,yh,m,23,2024_Apr_19_1728,mian,2021.2.3,60.01738103401667,
a6,1,2,a,l,"[-0.2, 0.2]",,,,,,,,0,0,0,0,0,17,17,17,,,,,,,,,,,,,,,,,,,,,,,,,l,1,1.2614188000006834,,,,,,,,,,,,yh,m,23,2024_Apr_19_1728,mian,2021.2.3,60.01738103401667,
2F,2,1,2.0,l,"[-0.2, -0.2]",,,,,,,,0,0,0,0,0,18,18,18,,,,,,,,,,,,,,,,,,,,,,,,,l,1,1.2677968999996665,,,,,,,,,,,,yh,m,23,2024_Apr_19_1728,mian,2021.2.3,60.01738103401667,
e4,2,2,4.0,l,"[0.2, -0.2]",,,,,,,,0,0,0,0,0,19,19,19,,,,,,,,,,,,,,,,,,,,,,,,,l,1,1.2677799999983108,,,,,,,,,,,,yh,m,23,2024_Apr_19_1728,mian,2021.2.3,60.01738103401667,
,,,,,,,,,,,,,0,0,0,0,,,,,,,,,,,,,,,,,,,,,,,,,,,,,,,,,,,,,,,,,,,yh,m,23,2024_Apr_19_1728,mian,2021.2.3,60.01738103401667,
7h,1,1,h,l,"[0.2, 0.2]",,,,,,,,,,,,,,,,0,0,0,0,,,,,,,,,,,,,,,,,,,,,l,1,0.8807742000026337,,,,,,,,,,,,yh,m,23,2024_Apr_19_1728,mian,2021.2.3,60.01738103401667,
8F,1,2,F,a,"[-0.2, 0.2]",,,,,,,,,,,,,,,,0,1,1,1,,,,,,,,,,,,,,,,,,,,,a,1,0.9790241000009701,,,,,,,,,,,,yh,m,23,2024_Apr_19_1728,mian,2021.2.3,60.01738103401667,
8h,2,1,8.0,l,"[-0.2, -0.2]",,,,,,,,,,,,,,,,0,2,2,2,,,,,,,,,,,,,,,,,,,,,l,1,1.496453499999916,,,,,,,,,,,,yh,m,23,2024_Apr_19_1728,mian,2021.2.3,60.01738103401667,
a2,2,2,2.0,l,"[0.2, -0.2]",,,,,,,,,,,,,,,,0,3,3,3,,,,,,,,,,,,,,,,,,,,,l,1,1.0458952999979374,,,,,,,,,,,,yh,m,23,2024_Apr_19_1728,mian,2021.2.3,60.01738103401667,
8f,1,1,f,l,"[0.2, 0.2]",,,,,,,,,,,,,,,,0,4,4,4,,,,,,,,,,,,,,,,,,,,,l,1,1.0582279999980528,,,,,,,,,,,,yh,m,23,2024_Apr_19_1728,mian,2021.2.3,60.01738103401667,
6a,1,2,a,l,"[-0.2, 0.2]",,,,,,,,,,,,,,,,0,5,5,5,,,,,,,,,,,,,,,,,,,,,l,1,0.8417896999999357,,,,,,,,,,,,yh,m,23,2024_Apr_19_1728,mian,2021.2.3,60.01738103401667,
h6,2,1,6.0,l,"[-0.2, -0.2]",,,,,,,,,,,,,,,,0,6,6,6,,,,,,,,,,,,,,,,,,,,,l,1,1.2102459999987332,,,,,,,,,,,,yh,m,23,2024_Apr_19_1728,mian,2021.2.3,60.01738103401667,
f9,2,2,9.0,a,"[0.2, -0.2]",,,,,,,,,,,,,,,,0,7,7,7,,,,,,,,,,,,,,,,,,,,,a,1,1.0116486000006262,,,,,,,,,,,,yh,m,23,2024_Apr_19_1728,mian,2021.2.3,60.01738103401667,
E4,1,1,E,a,"[0.2, 0.2]",,,,,,,,,,,,,,,,0,8,8,8,,,,,,,,,,,,,,,,,,,,,a,1,0.5722531999999774,,,,,,,,,,,,yh,m,23,2024_Apr_19_1728,mian,2021.2.3,60.01738103401667,
6e,1,2,e,l,"[-0.2, 0.2]",,,,,,,,,,,,,,,,0,9,9,9,,,,,,,,,,,,,,,,,,,,,l,1,0.7597668999987945,,,,,,,,,,,,yh,m,23,2024_Apr_19_1728,mian,2021.2.3,60.01738103401667,
5G,2,1,5.0,a,"[-0.2, -0.2]",,,,,,,,,,,,,,,,0,10,10,10,,,,,,,,,,,,,,,,,,,,,a,1,1.1263361999990593,,,,,,,,,,,,yh,m,23,2024_Apr_19_1728,mian,2021.2.3,60.01738103401667,
h3,2,2,3.0,a,"[0.2, -0.2]",,,,,,,,,,,,,,,,0,11,11,11,,,,,,,,,,,,,,,,,,,,,a,1,0.7021478999995452,,,,,,,,,,,,yh,m,23,2024_Apr_19_1728,mian,2021.2.3,60.01738103401667,
9e,1,1,e,l,"[0.2, 0.2]",,,,,,,,,,,,,,,,0,12,12,12,,,,,,,,,,,,,,,,,,,,,l,1,1.0997220999997808,,,,,,,,,,,,yh,m,23,2024_Apr_19_1728,mian,2021.2.3,60.01738103401667,
a8,1,2,a,l,"[-0.2, 0.2]",,,,,,,,,,,,,,,,0,13,13,13,,,,,,,,,,,,,,,,,,,,,l,1,0.6647876000024553,,,,,,,,,,,,yh,m,23,2024_Apr_19_1728,mian,2021.2.3,60.01738103401667,
e8,2,1,8.0,l,"[-0.2, -0.2]",,,,,,,,,,,,,,,,0,14,14,14,,,,,,,,,,,,,,,,,,,,,l,1,0.7515478000022995,,,,,,,,,,,,yh,m,23,2024_Apr_19_1728,mian,2021.2.3,60.01738103401667,
3f,2,2,3.0,a,"[0.2, -0.2]",,,,,,,,,,,,,,,,0,15,15,15,,,,,,,,,,,,,,,,,,,,,a,1,0.9056870999993407,,,,,,,,,,,,yh,m,23,2024_Apr_19_1728,mian,2021.2.3,60.01738103401667,
7f,1,1,f,l,"[0.2, 0.2]",,,,,,,,,,,,,,,,0,16,16,16,,,,,,,,,,,,,,,,,,,,,l,1,1.8368188999993436,,,,,,,,,,,,yh,m,23,2024_Apr_19_1728,mian,2021.2.3,60.01738103401667,
a7,1,2,a,l,"[-0.2, 0.2]",,,,,,,,,,,,,,,,0,17,17,17,,,,,,,,,,,,,,,,,,,,,l,1,1.3308574000002409,,,,,,,,,,,,yh,m,23,2024_Apr_19_1728,mian,2021.2.3,60.01738103401667,
5A,2,1,5.0,a,"[-0.2, -0.2]",,,,,,,,,,,,,,,,0,18,18,18,,,,,,,,,,,,,,,,,,,,,a,1,1.488834299998416,,,,,,,,,,,,yh,m,23,2024_Apr_19_1728,mian,2021.2.3,60.01738103401667,
8g,2,2,8.0,l,"[0.2, -0.2]",,,,,,,,,,,,,,,,0,19,19,19,,,,,,,,,,,,,,,,,,,,,l,1,1.27223690000028,,,,,,,,,,,,yh,m,23,2024_Apr_19_1728,mian,2021.2.3,60.01738103401667,
9a,1,1,a,l,"[0.2, 0.2]",,,,,,,,,,,,,,,,0,20,20,20,,,,,,,,,,,,,,,,,,,,,l,1,1.612353799999255,,,,,,,,,,,,yh,m,23,2024_Apr_19_1728,mian,2021.2.3,60.01738103401667,
f7,1,2,f,l,"[-0.2, 0.2]",,,,,,,,,,,,,,,,0,21,21,21,,,,,,,,,,,,,,,,,,,,,l,1,1.1633665000008477,,,,,,,,,,,,yh,m,23,2024_Apr_19_1728,mian,2021.2.3,60.01738103401667,
g9,2,1,9.0,a,"[-0.2, -0.2]",,,,,,,,,,,,,,,,0,22,22,22,,,,,,,,,,,,,,,,,,,,,a,1,0.8498756999979378,,,,,,,,,,,,yh,m,23,2024_Apr_19_1728,mian,2021.2.3,60.01738103401667,
3h,2,2,3.0,a,"[0.2, -0.2]",,,,,,,,,,,,,,,,0,23,23,23,,,,,,,,,,,,,,,,,,,,,a,1,0.5397670999991533,,,,,,,,,,,,yh,m,23,2024_Apr_19_1728,mian,2021.2.3,60.01738103401667,
E6,1,1,E,a,"[0.2, 0.2]",,,,,,,,,,,,,,,,0,24,24,24,,,,,,,,,,,,,,,,,,,,,a,1,0.7655564000015147,,,,,,,,,,,,yh,m,23,2024_Apr_19_1728,mian,2021.2.3,60.01738103401667,
F6,1,2,F,a,"[-0.2, 0.2]",,,,,,,,,,,,,,,,0,25,25,25,,,,,,,,,,,,,,,,,,,,,a,1,0.4388442999988911,,,,,,,,,,,,yh,m,23,2024_Apr_19_1728,mian,2021.2.3,60.01738103401667,
3A,2,1,3.0,a,"[-0.2, -0.2]",,,,,,,,,,,,,,,,0,26,26,26,,,,,,,,,,,,,,,,,,,,,a,1,1.2078637999984494,,,,,,,,,,,,yh,m,23,2024_Apr_19_1728,mian,2021.2.3,60.01738103401667,
8H,2,2,8.0,l,"[0.2, -0.2]",,,,,,,,,,,,,,,,0,27,27,27,,,,,,,,,,,,,,,,,,,,,l,1,0.6362838999993983,,,,,,,,,,,,yh,m,23,2024_Apr_19_1728,mian,2021.2.3,60.01738103401667,
5a,1,1,a,l,"[0.2, 0.2]",,,,,,,,,,,,,,,,0,28,28,28,,,,,,,,,,,,,,,,,,,,,l,1,0.7428685000013502,,,,,,,,,,,,yh,m,23,2024_Apr_19_1728,mian,2021.2.3,60.01738103401667,
2h,1,2,h,l,"[-0.2, 0.2]",,,,,,,,,,,,,,,,0,29,29,29,,,,,,,,,,,,,,,,,,,,,l,1,1.071811700003309,,,,,,,,,,,,yh,m,23,2024_Apr_19_1728,mian,2021.2.3,60.01738103401667,
e5,2,1,5.0,a,"[-0.2, -0.2]",,,,,,,,,,,,,,,,0,30,30,30,,,,,,,,,,,,,,,,,,,,,a,1,0.7711605000004056,,,,,,,,,,,,yh,m,23,2024_Apr_19_1728,mian,2021.2.3,60.01738103401667,
a3,2,2,3.0,a,"[0.2, -0.2]",,,,,,,,,,,,,,,,0,31,31,31,,,,,,,,,,,,,,,,,,,,,a,1,0.44855619999725604,,,,,,,,,,,,yh,m,23,2024_Apr_19_1728,mian,2021.2.3,60.01738103401667,
f3,1,1,f,l,"[0.2, 0.2]",,,,,,,,,,,,,,,,0,32,32,32,,,,,,,,,,,,,,,,,,,,,l,1,0.9694252999979653,,,,,,,,,,,,yh,m,23,2024_Apr_19_1728,mian,2021.2.3,60.01738103401667,
2E,1,2,E,a,"[-0.2, 0.2]",,,,,,,,,,,,,,,,0,33,33,33,,,,,,,,,,,,,,,,,,,,,a,1,0.8031745000007504,,,,,,,,,,,,yh,m,23,2024_Apr_19_1728,mian,2021.2.3,60.01738103401667,
2H,2,1,2.0,l,"[-0.2, -0.2]",,,,,,,,,,,,,,,,0,34,34,34,,,,,,,,,,,,,,,,,,,,,l,1,1.088549399999465,,,,,,,,,,,,yh,m,23,2024_Apr_19_1728,mian,2021.2.3,60.01738103401667,
H8,2,2,8.0,l,"[0.2, -0.2]",,,,,,,,,,,,,,,,0,35,35,35,,,,,,,,,,,,,,,,,,,,,l,1,1.124783800001751,,,,,,,,,,,,yh,m,23,2024_Apr_19_1728,mian,2021.2.3,60.01738103401667,
9g,1,1,g,l,"[0.2, 0.2]",,,,,,,,,,,,,,,,0,36,36,36,,,,,,,,,,,,,,,,,,,,,l,1,0.9842908999999054,,,,,,,,,,,,yh,m,23,2024_Apr_19_1728,mian,2021.2.3,60.01738103401667,
5h,1,2,h,l,"[-0.2, 0.2]",,,,,,,,,,,,,,,,0,37,37,37,,,,,,,,,,,,,,,,,,,,,l,1,0.5551238000007288,,,,,,,,,,,,yh,m,23,2024_Apr_19_1728,mian,2021.2.3,60.01738103401667,
e4,2,1,4.0,l,"[-0.2, -0.2]",,,,,,,,,,,,,,,,0,38,38,38,,,,,,,,,,,,,,,,,,,,,l,1,0.6115704000003461,,,,,,,,,,,,yh,m,23,2024_Apr_19_1728,mian,2021.2.3,60.01738103401667,
9h,2,2,9.0,a,"[0.2, -0.2]",,,,,,,,,,,,,,,,0,39,39,39,,,,,,,,,,,,,,,,,,,,,a,1,0.5845410000001721,,,,,,,,,,,,yh,m,23,2024_Apr_19_1728,mian,2021.2.3,60.01738103401667,
G3,1,1,G,a,"[0.2, 0.2]",,,,,,,,,,,,,,,,0,40,40,40,,,,,,,,,,,,,,,,,,,,,a,1,0.543922199998633,,,,,,,,,,,,yh,m,23,2024_Apr_19_1728,mian,2021.2.3,60.01738103401667,
9A,1,2,A,a,"[-0.2, 0.2]",,,,,,,,,,,,,,,,0,41,41,41,,,,,,,,,,,,,,,,,,,,,a,1,0.4207688999995298,,,,,,,,,,,,yh,m,23,2024_Apr_19_1728,mian,2021.2.3,60.01738103401667,
H5,2,1,5.0,a,"[-0.2, -0.2]",,,,,,,,,,,,,,,,0,42,42,42,,,,,,,,,,,,,,,,,,,,,a,1,0.6530802999986918,,,,,,,,,,,,yh,m,23,2024_Apr_19_1728,mian,2021.2.3,60.01738103401667,
4e,2,2,4.0,l,"[0.2, -0.2]",,,,,,,,,,,,,,,,0,43,43,43,,,,,,,,,,,,,,,,,,,,,l,1,0.6784521999979916,,,,,,,,,,,,yh,m,23,2024_Apr_19_1728,mian,2021.2.3,60.01738103401667,
E2,1,1,E,a,"[0.2, 0.2]",,,,,,,,,,,,,,,,0,44,44,44,,,,,,,,,,,,,,,,,,,,,a,1,0.9274729000026127,,,,,,,,,,,,yh,m,23,2024_Apr_19_1728,mian,2021.2.3,60.01738103401667,
A5,1,2,A,a,"[-0.2, 0.2]",,,,,,,,,,,,,,,,0,45,45,45,,,,,,,,,,,,,,,,,,,,,a,1,0.3592102000002342,,,,,,,,,,,,yh,m,23,2024_Apr_19_1728,mian,2021.2.3,60.01738103401667,
2A,2,1,2.0,l,"[-0.2, -0.2]",,,,,,,,,,,,,,,,0,46,46,46,,,,,,,,,,,,,,,,,,,,,l,1,0.9960070999986783,,,,,,,,,,,,yh,m,23,2024_Apr_19_1728,mian,2021.2.3,60.01738103401667,
6G,2,2,6.0,l,"[0.2, -0.2]",,,,,,,,,,,,,,,,0,47,47,47,,,,,,,,,,,,,,,,,,,,,l,1,0.8565973000004306,,,,,,,,,,,,yh,m,23,2024_Apr_19_1728,mian,2021.2.3,60.01738103401667,
H3,1,1,H,a,"[0.2, 0.2]",,,,,,,,,,,,,,,,0,48,48,48,,,,,,,,,,,,,,,,,,,,,a,1,0.38630799999737064,,,,,,,,,,,,yh,m,23,2024_Apr_19_1728,mian,2021.2.3,60.01738103401667,
H2,1,2,H,a,"[-0.2, 0.2]",,,,,,,,,,,,,,,,0,49,49,49,,,,,,,,,,,,,,,,,,,,,a,1,0.4419171000008646,,,,,,,,,,,,yh,m,23,2024_Apr_19_1728,mian,2021.2.3,60.01738103401667,
e9,2,1,9.0,a,"[-0.2, -0.2]",,,,,,,,,,,,,,,,0,50,50,50,,,,,,,,,,,,,,,,,,,,,a,1,1.3347004999995988,,,,,,,,,,,,yh,m,23,2024_Apr_19_1728,mian,2021.2.3,60.01738103401667,
2G,2,2,2.0,l,"[0.2, -0.2]",,,,,,,,,,,,,,,,0,51,51,51,,,,,,,,,,,,,,,,,,,,,l,1,0.6925322999995842,,,,,,,,,,,,yh,m,23,2024_Apr_19_1728,mian,2021.2.3,60.01738103401667,
4f,1,1,f,l,"[0.2, 0.2]",,,,,,,,,,,,,,,,0,52,52,52,,,,,,,,,,,,,,,,,,,,,l,1,1.0167927000002237,,,,,,,,,,,,yh,m,23,2024_Apr_19_1728,mian,2021.2.3,60.01738103401667,
H6,1,2,H,a,"[-0.2, 0.2]",,,,,,,,,,,,,,,,0,53,53,53,,,,,,,,,,,,,,,,,,,,,a,1,0.5313454000024649,,,,,,,,,,,,yh,m,23,2024_Apr_19_1728,mian,2021.2.3,60.01738103401667,
A4,2,1,4.0,l,"[-0.2, -0.2]",,,,,,,,,,,,,,,,0,54,54,54,,,,,,,,,,,,,,,,,,,,,l,1,1.2304282000004605,,,,,,,,,,,,yh,m,23,2024_Apr_19_1728,mian,2021.2.3,60.01738103401667,
3F,2,2,3.0,a,"[0.2, -0.2]",,,,,,,,,,,,,,,,0,55,55,55,,,,,,,,,,,,,,,,,,,,,a,1,2.1916263999992225,,,,,,,,,,,,yh,m,23,2024_Apr_19_1728,mian,2021.2.3,60.01738103401667,
7e,1,1,e,l,"[0.2, 0.2]",,,,,,,,,,,,,,,,0,56,56,56,,,,,,,,,,,,,,,,,,,,,l,1,1.9549788999975135,,,,,,,,,,,,yh,m,23,2024_Apr_19_1728,mian,2021.2.3,60.01738103401667,
F9,1,2,F,a,"[-0.2, 0.2]",,,,,,,,,,,,,,,,0,57,57,57,,,,,,,,,,,,,,,,,,,,,a,1,0.52644539999892,,,,,,,,,,,,yh,m,23,2024_Apr_19_1728,mian,2021.2.3,60.01738103401667,
e2,2,1,2.0,l,"[-0.2, -0.2]",,,,,,,,,,,,,,,,0,58,58,58,,,,,,,,,,,,,,,,,,,,,l,1,0.6108238000015263,,,,,,,,,,,,yh,m,23,2024_Apr_19_1728,mian,2021.2.3,60.01738103401667,
5F,2,2,5.0,a,"[0.2, -0.2]",,,,,,,,,,,,,,,,0,59,59,59,,,,,,,,,,,,,,,,,,,,,a,1,0.5454155000006722,,,,,,,,,,,,yh,m,23,2024_Apr_19_1728,mian,2021.2.3,60.01738103401667,
f6,1,1,f,l,"[0.2, 0.2]",,,,,,,,,,,,,,,,0,60,60,60,,,,,,,,,,,,,,,,,,,,,l,1,0.5440817999988212,,,,,,,,,,,,yh,m,23,2024_Apr_19_1728,mian,2021.2.3,60.01738103401667,
7G,1,2,G,a,"[-0.2, 0.2]",,,,,,,,,,,,,,,,0,61,61,61,,,,,,,,,,,,,,,,,,,,,a,1,0.5973642999997537,,,,,,,,,,,,yh,m,23,2024_Apr_19_1728,mian,2021.2.3,60.01738103401667,
e6,2,1,6.0,l,"[-0.2, -0.2]",,,,,,,,,,,,,,,,0,62,62,62,,,,,,,,,,,,,,,,,,,,,l,1,1.0158026999997674,,,,,,,,,,,,yh,m,23,2024_Apr_19_1728,mian,2021.2.3,60.01738103401667,
3G,2,2,3.0,a,"[0.2, -0.2]",,,,,,,,,,,,,,,,0,63,63,63,,,,,,,,,,,,,,,,,,,,,a,1,0.6710439999988012,,,,,,,,,,,,yh,m,23,2024_Apr_19_1728,mian,2021.2.3,60.01738103401667,
5E,1,1,E,a,"[0.2, 0.2]",,,,,,,,,,,,,,,,0,64,64,64,,,,,,,,,,,,,,,,,,,,,a,1,0.6185679000009259,,,,,,,,,,,,yh,m,23,2024_Apr_19_1728,mian,2021.2.3,60.01738103401667,
A6,1,2,A,a,"[-0.2, 0.2]",,,,,,,,,,,,,,,,0,65,65,65,,,,,,,,,,,,,,,,,,,,,a,1,0.70230409999931,,,,,,,,,,,,yh,m,23,2024_Apr_19_1728,mian,2021.2.3,60.01738103401667,
E3,2,1,3.0,a,"[-0.2, -0.2]",,,,,,,,,,,,,,,,0,66,66,66,,,,,,,,,,,,,,,,,,,,,a,1,1.0428733000007924,,,,,,,,,,,,yh,m,23,2024_Apr_19_1728,mian,2021.2.3,60.01738103401667,
2f,2,2,2.0,l,"[0.2, -0.2]",,,,,,,,,,,,,,,,0,67,67,67,,,,,,,,,,,,,,,,,,,,,l,1,0.7938718000004883,,,,,,,,,,,,yh,m,23,2024_Apr_19_1728,mian,2021.2.3,60.01738103401667,
g3,1,1,g,l,"[0.2, 0.2]",,,,,,,,,,,,,,,,0,68,68,68,,,,,,,,,,,,,,,,,,,,,l,1,1.194250100001227,,,,,,,,,,,,yh,m,23,2024_Apr_19_1728,mian,2021.2.3,60.01738103401667,
E8,1,2,E,a,"[-0.2, 0.2]",,,,,,,,,,,,,,,,0,69,69,69,,,,,,,,,,,,,,,,,,,,,a,1,0.45484319999741274,,,,,,,,,,,,yh,m,23,2024_Apr_19_1728,mian,2021.2.3,60.01738103401667,
6g,2,1,6.0,l,"[-0.2, -0.2]",,,,,,,,,,,,,,,,0,70,70,70,,,,,,,,,,,,,,,,,,,,,l,1,1.0339622999999847,,,,,,,,,,,,yh,m,23,2024_Apr_19_1728,mian,2021.2.3,60.01738103401667,
5H,2,2,5.0,a,"[0.2, -0.2]",,,,,,,,,,,,,,,,0,71,71,71,,,,,,,,,,,,,,,,,,,,,a,1,0.5953458999974828,,,,,,,,,,,,yh,m,23,2024_Apr_19_1728,mian,2021.2.3,60.01738103401667,
4A,1,1,A,a,"[0.2, 0.2]",,,,,,,,,,,,,,,,0,72,72,72,,,,,,,,,,,,,,,,,,,,,a,1,0.451426800002082,,,,,,,,,,,,yh,m,23,2024_Apr_19_1728,mian,2021.2.3,60.01738103401667,
7F,1,2,F,a,"[-0.2, 0.2]",,,,,,,,,,,,,,,,0,73,73,73,,,,,,,,,,,,,,,,,,,,,a,1,0.37089560000094934,,,,,,,,,,,,yh,m,23,2024_Apr_19_1728,mian,2021.2.3,60.01738103401667,
6H,2,1,6.0,l,"[-0.2, -0.2]",,,,,,,,,,,,,,,,0,74,74,74,,,,,,,,,,,,,,,,,,,,,l,1,0.4941236000013305,,,,,,,,,,,,yh,m,23,2024_Apr_19_1728,mian,2021.2.3,60.01738103401667,
3a,2,2,3.0,a,"[0.2, -0.2]",,,,,,,,,,,,,,,,0,75,75,75,,,,,,,,,,,,,,,,,,,,,a,1,0.46746749999874737,,,,,,,,,,,,yh,m,23,2024_Apr_19_1728,mian,2021.2.3,60.01738103401667,
9F,1,1,F,a,"[0.2, 0.2]",,,,,,,,,,,,,,,,0,76,76,76,,,,,,,,,,,,,,,,,,,,,a,1,1.1582650000018475,,,,,,,,,,,,yh,m,23,2024_Apr_19_1728,mian,2021.2.3,60.01738103401667,
G7,1,2,G,a,"[-0.2, 0.2]",,,,,,,,,,,,,,,,0,77,77,77,,,,,,,,,,,,,,,,,,,,,a,1,0.506043999997928,,,,,,,,,,,,yh,m,23,2024_Apr_19_1728,mian,2021.2.3,60.01738103401667,
a6,2,1,6.0,l,"[-0.2, -0.2]",,,,,,,,,,,,,,,,0,78,78,78,,,,,,,,,,,,,,,,,,,,,l,1,1.080158600001596,,,,,,,,,,,,yh,m,23,2024_Apr_19_1728,mian,2021.2.3,60.01738103401667,
4h,2,2,4.0,l,"[0.2, -0.2]",,,,,,,,,,,,,,,,0,79,79,79,,,,,,,,,,,,,,,,,,,,,l,1,0.6829926999998861,,,,,,,,,,,,yh,m,23,2024_Apr_19_1728,mian,2021.2.3,60.01738103401667,
6A,1,1,A,a,"[0.2, 0.2]",,,,,,,,,,,,,,,,,,,,0,0,0,0,,,,,,,,,,,,,,,,,a,1,2.002198700000008,,,,,,,,,,,,yh,m,23,2024_Apr_19_1728,mian,2021.2.3,60.01738103401667,
4H,1,2,H,a,"[-0.2, 0.2]",,,,,,,,,,,,,,,,,,,,0,1,1,1,,,,,,,,,,,,,,,,,a,1,0.582701299998007,,,,,,,,,,,,yh,m,23,2024_Apr_19_1728,mian,2021.2.3,60.01738103401667,
3H,2,1,3.0,a,"[-0.2, -0.2]",,,,,,,,,,,,,,,,,,,,0,2,2,2,,,,,,,,,,,,,,,,,a,1,1.002733299999818,,,,,,,,,,,,yh,m,23,2024_Apr_19_1728,mian,2021.2.3,60.01738103401667,
a9,2,2,9.0,a,"[0.2, -0.2]",,,,,,,,,,,,,,,,,,,,0,3,3,3,,,,,,,,,,,,,,,,,a,1,1.8128901999989466,,,,,,,,,,,,yh,m,23,2024_Apr_19_1728,mian,2021.2.3,60.01738103401667,
E7,1,1,E,a,"[0.2, 0.2]",,,,,,,,,,,,,,,,,,,,0,4,4,4,,,,,,,,,,,,,,,,,a,1,0.7085322000020824,,,,,,,,,,,,yh,m,23,2024_Apr_19_1728,mian,2021.2.3,60.01738103401667,
6h,1,2,h,l,"[-0.2, 0.2]",,,,,,,,,,,,,,,,,,,,0,5,5,5,,,,,,,,,,,,,,,,,l,1,0.6630222000021604,,,,,,,,,,,,yh,m,23,2024_Apr_19_1728,mian,2021.2.3,60.01738103401667,
8A,2,1,8.0,l,"[-0.2, -0.2]",,,,,,,,,,,,,,,,,,,,0,6,6,6,,,,,,,,,,,,,,,,,l,1,1.3704047999999602,,,,,,,,,,,,yh,m,23,2024_Apr_19_1728,mian,2021.2.3,60.01738103401667,
f5,2,2,5.0,a,"[0.2, -0.2]",,,,,,,,,,,,,,,,,,,,0,7,7,7,,,,,,,,,,,,,,,,,a,1,0.6705371999996714,,,,,,,,,,,,yh,m,23,2024_Apr_19_1728,mian,2021.2.3,60.01738103401667,
2a,1,1,a,l,"[0.2, 0.2]",,,,,,,,,,,,,,,,,,,,0,8,8,8,,,,,,,,,,,,,,,,,l,1,0.6444092999990971,,,,,,,,,,,,yh,m,23,2024_Apr_19_1728,mian,2021.2.3,60.01738103401667,
F7,1,2,F,a,"[-0.2, 0.2]",,,,,,,,,,,,,,,,,,,,0,9,9,9,,,,,,,,,,,,,,,,,a,1,0.8726492999994662,,,,,,,,,,,,yh,m,23,2024_Apr_19_1728,mian,2021.2.3,60.01738103401667,
h2,2,1,2.0,l,"[-0.2, -0.2]",,,,,,,,,,,,,,,,,,,,0,10,10,10,,,,,,,,,,,,,,,,,l,1,1.2739996999989671,,,,,,,,,,,,yh,m,23,2024_Apr_19_1728,mian,2021.2.3,60.01738103401667,
F5,2,2,5.0,a,"[0.2, -0.2]",,,,,,,,,,,,,,,,,,,,0,11,11,11,,,,,,,,,,,,,,,,,a,1,1.4112996000003477,,,,,,,,,,,,yh,m,23,2024_Apr_19_1728,mian,2021.2.3,60.01738103401667,
A9,1,1,A,a,"[0.2, 0.2]",,,,,,,,,,,,,,,,,,,,0,12,12,12,,,,,,,,,,,,,,,,,a,1,0.8209199000011722,,,,,,,,,,,,yh,m,23,2024_Apr_19_1728,mian,2021.2.3,60.01738103401667,
3e,1,2,e,l,"[-0.2, 0.2]",,,,,,,,,,,,,,,,,,,,0,13,13,13,,,,,,,,,,,,,,,,,l,1,0.5267359000026772,,,,,,,,,,,,yh,m,23,2024_Apr_19_1728,mian,2021.2.3,60.01738103401667,
f8,2,1,8.0,l,"[-0.2, -0.2]",,,,,,,,,,,,,,,,,,,,0,14,14,14,,,,,,,,,,,,,,,,,l,1,0.971021400000609,,,,,,,,,,,,yh,m,23,2024_Apr_19_1728,mian,2021.2.3,60.01738103401667,
G2,2,2,2.0,l,"[0.2, -0.2]",,,,,,,,,,,,,,,,,,,,0,15,15,15,,,,,,,,,,,,,,,,,l,1,0.7152936999991653,,,,,,,,,,,,yh,m,23,2024_Apr_19_1728,mian,2021.2.3,60.01738103401667,
F2,1,1,F,a,"[0.2, 0.2]",,,,,,,,,,,,,,,,,,,,0,16,16,16,,,,,,,,,,,,,,,,,a,1,0.7154971999989357,,,,,,,,,,,,yh,m,23,2024_Apr_19_1728,mian,2021.2.3,60.01738103401667,
5e,1,2,e,l,"[-0.2, 0.2]",,,,,,,,,,,,,,,,,,,,0,17,17,17,,,,,,,,,,,,,,,,,l,1,0.6751545000006445,,,,,,,,,,,,yh,m,23,2024_Apr_19_1728,mian,2021.2.3,60.01738103401667,
A3,2,1,3.0,a,"[-0.2, -0.2]",,,,,,,,,,,,,,,,,,,,0,18,18,18,,,,,,,,,,,,,,,,,a,1,1.4732542000019748,,,,,,,,,,,,yh,m,23,2024_Apr_19_1728,mian,2021.2.3,60.01738103401667,
4g,2,2,4.0,l,"[0.2, -0.2]",,,,,,,,,,,,,,,,,,,,0,19,19,19,,,,,,,,,,,,,,,,,l,1,1.3134663000018918,,,,,,,,,,,,yh,m,23,2024_Apr_19_1728,mian,2021.2.3,60.01738103401667,
h7,1,1,h,l,"[0.2, 0.2]",,,,,,,,,,,,,,,,,,,,0,20,20,20,,,,,,,,,,,,,,,,,l,1,0.6877304000008735,,,,,,,,,,,,yh,m,23,2024_Apr_19_1728,mian,2021.2.3,60.01738103401667,
3g,1,2,g,l,"[-0.2, 0.2]",,,,,,,,,,,,,,,,,,,,0,21,21,21,,,,,,,,,,,,,,,,,l,1,0.684308100000635,,,,,,,,,,,,yh,m,23,2024_Apr_19_1728,mian,2021.2.3,60.01738103401667,
8a,2,1,8.0,l,"[-0.2, -0.2]",,,,,,,,,,,,,,,,,,,,0,22,22,22,,,,,,,,,,,,,,,,,l,1,1.1217146999988472,,,,,,,,,,,,yh,m,23,2024_Apr_19_1728,mian,2021.2.3,60.01738103401667,
4E,2,2,4.0,l,"[0.2, -0.2]",,,,,,,,,,,,,,,,,,,,0,23,23,23,,,,,,,,,,,,,,,,,l,1,1.277565100001084,,,,,,,,,,,,yh,m,23,2024_Apr_19_1728,mian,2021.2.3,60.01738103401667,
E5,1,1,E,a,"[0.2, 0.2]",,,,,,,,,,,,,,,,,,,,0,24,24,24,,,,,,,,,,,,,,,,,a,1,0.6614848999997776,,,,,,,,,,,,yh,m,23,2024_Apr_19_1728,mian,2021.2.3,60.01738103401667,
g6,1,2,g,l,"[-0.2, 0.2]",,,,,,,,,,,,,,,,,,,,0,25,25,25,,,,,,,,,,,,,,,,,l,1,0.49508980000246083,,,,,,,,,,,,yh,m,23,2024_Apr_19_1728,mian,2021.2.3,60.01738103401667,
2e,2,1,2.0,l,"[-0.2, -0.2]",,,,,,,,,,,,,,,,,,,,0,26,26,26,,,,,,,,,,,,,,,,,l,1,0.625807899999927,,,,,,,,,,,,yh,m,23,2024_Apr_19_1728,mian,2021.2.3,60.01738103401667,
h8,2,2,8.0,l,"[0.2, -0.2]",,,,,,,,,,,,,,,,,,,,0,27,27,27,,,,,,,,,,,,,,,,,l,1,0.7153552999989188,,,,,,,,,,,,yh,m,23,2024_Apr_19_1728,mian,2021.2.3,60.01738103401667,
G6,1,1,G,a,"[0.2, 0.2]",,,,,,,,,,,,,,,,,,,,0,28,28,28,,,,,,,,,,,,,,,,,a,1,0.5167298999986087,,,,,,,,,,,,yh,m,23,2024_Apr_19_1728,mian,2021.2.3,60.01738103401667,
a4,1,2,a,l,"[-0.2, 0.2]",,,,,,,,,,,,,,,,,,,,0,29,29,29,,,,,,,,,,,,,,,,,l,1,0.7151293999995687,,,,,,,,,,,,yh,m,23,2024_Apr_19_1728,mian,2021.2.3,60.01738103401667,
9H,2,1,9.0,a,"[-0.2, -0.2]",,,,,,,,,,,,,,,,,,,,0,30,30,30,,,,,,,,,,,,,,,,,l,0,1.8144296999998915,,,,,,,,,,,,yh,m,23,2024_Apr_19_1728,mian,2021.2.3,60.01738103401667,
7H,2,2,7.0,a,"[0.2, -0.2]",,,,,,,,,,,,,,,,,,,,0,31,31,31,,,,,,,,,,,,,,,,,a,1,1.3788891999975021,,,,,,,,,,,,yh,m,23,2024_Apr_19_1728,mian,2021.2.3,60.01738103401667,
9f,1,1,f,l,"[0.2, 0.2]",,,,,,,,,,,,,,,,,,,,0,32,32,32,,,,,,,,,,,,,,,,,l,1,2.124920199999906,,,,,,,,,,,,yh,m,23,2024_Apr_19_1728,mian,2021.2.3,60.01738103401667,
8E,1,2,E,a,"[-0.2, 0.2]",,,,,,,,,,,,,,,,,,,,0,33,33,33,,,,,,,,,,,,,,,,,a,1,0.47656149999966146,,,,,,,,,,,,yh,m,23,2024_Apr_19_1728,mian,2021.2.3,60.01738103401667,
A2,2,1,2.0,l,"[-0.2, -0.2]",,,,,,,,,,,,,,,,,,,,0,34,34,34,,,,,,,,,,,,,,,,,l,1,1.7004115000017919,,,,,,,,,,,,yh,m,23,2024_Apr_19_1728,mian,2021.2.3,60.01738103401667,
H7,2,2,7.0,a,"[0.2, -0.2]",,,,,,,,,,,,,,,,,,,,0,35,35,35,,,,,,,,,,,,,,,,,a,1,1.199595499998395,,,,,,,,,,,,yh,m,23,2024_Apr_19_1728,mian,2021.2.3,60.01738103401667,
h9,1,1,h,l,"[0.2, 0.2]",,,,,,,,,,,,,,,,,,,,0,36,36,36,,,,,,,,,,,,,,,,,l,1,0.5682906000001822,,,,,,,,,,,,yh,m,23,2024_Apr_19_1728,mian,2021.2.3,60.01738103401667,
8G,1,2,G,a,"[-0.2, 0.2]",,,,,,,,,,,,,,,,,,,,0,37,37,37,,,,,,,,,,,,,,,,,a,1,0.933946899996954,,,,,,,,,,,,yh,m,23,2024_Apr_19_1728,mian,2021.2.3,60.01738103401667,
H4,2,1,4.0,l,"[-0.2, -0.2]",,,,,,,,,,,,,,,,,,,,0,38,38,38,,,,,,,,,,,,,,,,,l,1,1.362905200003297,,,,,,,,,,,,yh,m,23,2024_Apr_19_1728,mian,2021.2.3,60.01738103401667,
A8,2,2,8.0,l,"[0.2, -0.2]",,,,,,,,,,,,,,,,,,,,0,39,39,39,,,,,,,,,,,,,,,,,l,1,0.5761931000015466,,,,,,,,,,,,yh,m,23,2024_Apr_19_1728,mian,2021.2.3,60.01738103401667,
g7,1,1,g,l,"[0.2, 0.2]",,,,,,,,,,,,,,,,,,,,0,40,40,40,,,,,,,,,,,,,,,,,l,1,0.8818426999969233,,,,,,,,,,,,yh,m,23,2024_Apr_19_1728,mian,2021.2.3,60.01738103401667,
H9,1,2,H,a,"[-0.2, 0.2]",,,,,,,,,,,,,,,,,,,,0,41,41,41,,,,,,,,,,,,,,,,,a,1,0.3604541999993671,,,,,,,,,,,,yh,m,23,2024_Apr_19_1728,mian,2021.2.3,60.01738103401667,
9E,2,1,9.0,a,"[-0.2, -0.2]",,,,,,,,,,,,,,,,,,,,0,42,42,42,,,,,,,,,,,,,,,,,a,1,3.066301700000622,,,,,,,,,,,,yh,m,23,2024_Apr_19_1728,mian,2021.2.3,60.01738103401667,
a5,2,2,5.0,a,"[0.2, -0.2]",,,,,,,,,,,,,,,,,,,,0,43,43,43,,,,,,,,,,,,,,,,,a,1,1.884201300003042,,,,,,,,,,,,yh,m,23,2024_Apr_19_1728,mian,2021.2.3,60.01738103401667,
3E,1,1,E,a,"[0.2, 0.2]",,,,,,,,,,,,,,,,,,,,0,44,44,44,,,,,,,,,,,,,,,,,a,1,0.9026899000018602,,,,,,,,,,,,yh,m,23,2024_Apr_19_1728,mian,2021.2.3,60.01738103401667,
6f,1,2,f,l,"[-0.2, 0.2]",,,,,,,,,,,,,,,,,,,,0,45,45,45,,,,,,,,,,,,,,,,,l,1,0.7723820999999589,,,,,,,,,,,,yh,m,23,2024_Apr_19_1728,mian,2021.2.3,60.01738103401667,
g8,2,1,8.0,l,"[-0.2, -0.2]",,,,,,,,,,,,,,,,,,,,0,46,46,46,,,,,,,,,,,,,,,,,l,1,1.837578400001803,,,,,,,,,,,,yh,m,23,2024_Apr_19_1728,mian,2021.2.3,60.01738103401667,
4F,2,2,4.0,l,"[0.2, -0.2]",,,,,,,,,,,,,,,,,,,,0,47,47,47,,,,,,,,,,,,,,,,,l,1,1.7851389000024938,,,,,,,,,,,,yh,m,23,2024_Apr_19_1728,mian,2021.2.3,60.01738103401667,
4a,1,1,a,l,"[0.2, 0.2]",,,,,,,,,,,,,,,,,,,,0,48,48,48,,,,,,,,,,,,,,,,,l,1,0.5216546999981801,,,,,,,,,,,,yh,m,23,2024_Apr_19_1728,mian,2021.2.3,60.01738103401667,
e3,1,2,e,l,"[-0.2, 0.2]",,,,,,,,,,,,,,,,,,,,0,49,49,49,,,,,,,,,,,,,,,,,l,1,0.44962650000161375,,,,,,,,,,,,yh,m,23,2024_Apr_19_1728,mian,2021.2.3,60.01738103401667,
5g,2,1,5.0,a,"[-0.2, -0.2]",,,,,,,,,,,,,,,,,,,,0,50,50,50,,,,,,,,,,,,,,,,,a,1,0.8166787000009208,,,,,,,,,,,,yh,m,23,2024_Apr_19_1728,mian,2021.2.3,60.01738103401667,
f4,2,2,4.0,l,"[0.2, -0.2]",,,,,,,,,,,,,,,,,,,,0,51,51,51,,,,,,,,,,,,,,,,,l,1,1.281415699999343,,,,,,,,,,,,yh,m,23,2024_Apr_19_1728,mian,2021.2.3,60.01738103401667,
6E,1,1,E,a,"[0.2, 0.2]",,,,,,,,,,,,,,,,,,,,0,52,52,52,,,,,,,,,,,,,,,,,a,1,0.6569005999990623,,,,,,,,,,,,yh,m,23,2024_Apr_19_1728,mian,2021.2.3,60.01738103401667,
7A,1,2,A,a,"[-0.2, 0.2]",,,,,,,,,,,,,,,,,,,,0,53,53,53,,,,,,,,,,,,,,,,,a,1,0.375838299998577,,,,,,,,,,,,yh,m,23,2024_Apr_19_1728,mian,2021.2.3,60.01738103401667,
F4,2,1,4.0,l,"[-0.2, -0.2]",,,,,,,,,,,,,,,,,,,,0,54,54,54,,,,,,,,,,,,,,,,,l,1,1.2254235000000335,,,,,,,,,,,,yh,m,23,2024_Apr_19_1728,mian,2021.2.3,60.01738103401667,
2g,2,2,2.0,l,"[0.2, -0.2]",,,,,,,,,,,,,,,,,,,,0,55,55,55,,,,,,,,,,,,,,,,,l,1,0.7049575000019104,,,,,,,,,,,,yh,m,23,2024_Apr_19_1728,mian,2021.2.3,60.01738103401667,
7E,1,1,E,a,"[0.2, 0.2]",,,,,,,,,,,,,,,,,,,,0,56,56,56,,,,,,,,,,,,,,,,,a,1,0.822083000002749,,,,,,,,,,,,yh,m,23,2024_Apr_19_1728,mian,2021.2.3,60.01738103401667,
G4,1,2,G,a,"[-0.2, 0.2]",,,,,,,,,,,,,,,,,,,,0,57,57,57,,,,,,,,,,,,,,,,,a,1,0.4082338999978674,,,,,,,,,,,,yh,m,23,2024_Apr_19_1728,mian,2021.2.3,60.01738103401667,
2F,2,1,2.0,l,"[-0.2, -0.2]",,,,,,,,,,,,,,,,,,,,0,58,58,58,,,,,,,,,,,,,,,,,l,1,1.3099882999995316,,,,,,,,,,,,yh,m,23,2024_Apr_19_1728,mian,2021.2.3,60.01738103401667,
E9,2,2,9.0,a,"[0.2, -0.2]",,,,,,,,,,,,,,,,,,,,0,59,59,59,,,,,,,,,,,,,,,,,a,1,1.2558249000030628,,,,,,,,,,,,yh,m,23,2024_Apr_19_1728,mian,2021.2.3,60.01738103401667,
5f,1,1,f,l,"[0.2, 0.2]",,,,,,,,,,,,,,,,,,,,0,60,60,60,,,,,,,,,,,,,,,,,l,1,0.6149323000026925,,,,,,,,,,,,yh,m,23,2024_Apr_19_1728,mian,2021.2.3,60.01738103401667,
e7,1,2,e,l,"[-0.2, 0.2]",,,,,,,,,,,,,,,,,,,,0,61,61,61,,,,,,,,,,,,,,,,,l,1,0.36550659999920754,,,,,,,,,,,,yh,m,23,2024_Apr_19_1728,mian,2021.2.3,60.01738103401667,
f2,2,1,2.0,l,"[-0.2, -0.2]",,,,,,,,,,,,,,,,,,,,0,62,62,62,,,,,,,,,,,,,,,,,l,1,0.9432789999991655,,,,,,,,,,,,yh,m,23,2024_Apr_19_1728,mian,2021.2.3,60.01738103401667,
G9,2,2,9.0,a,"[0.2, -0.2]",,,,,,,,,,,,,,,,,,,,0,63,63,63,,,,,,,,,,,,,,,,,a,1,0.6614531999985047,,,,,,,,,,,,yh,m,23,2024_Apr_19_1728,mian,2021.2.3,60.01738103401667,
7g,1,1,g,l,"[0.2, 0.2]",,,,,,,,,,,,,,,,,,,,0,64,64,64,,,,,,,,,,,,,,,,,l,1,0.7192869999998948,,,,,,,,,,,,yh,m,23,2024_Apr_19_1728,mian,2021.2.3,60.01738103401667,
F8,1,2,F,a,"[-0.2, 0.2]",,,,,,,,,,,,,,,,,,,,0,65,65,65,,,,,,,,,,,,,,,,,a,1,1.2662844000005862,,,,,,,,,,,,yh,m,23,2024_Apr_19_1728,mian,2021.2.3,60.01738103401667,
A7,2,1,7.0,a,"[-0.2, -0.2]",,,,,,,,,,,,,,,,,,,,0,66,66,66,,,,,,,,,,,,,,,,,a,1,1.681317399998079,,,,,,,,,,,,yh,m,23,2024_Apr_19_1728,mian,2021.2.3,60.01738103401667,
4G,2,2,4.0,l,"[0.2, -0.2]",,,,,,,,,,,,,,,,,,,,0,67,67,67,,,,,,,,,,,,,,,,,l,1,3.1019309000002977,,,,,,,,,,,,yh,m,23,2024_Apr_19_1728,mian,2021.2.3,60.01738103401667,
g2,1,1,g,l,"[0.2, 0.2]",,,,,,,,,,,,,,,,,,,,0,68,68,68,,,,,,,,,,,,,,,,,l,1,1.0118483999976888,,,,,,,,,,,,yh,m,23,2024_Apr_19_1728,mian,2021.2.3,60.01738103401667,
g4,1,2,g,l,"[-0.2, 0.2]",,,,,,,,,,,,,,,,,,,,0,69,69,69,,,,,,,,,,,,,,,,,l,1,0.5343505000018922,,,,,,,,,,,,yh,m,23,2024_Apr_19_1728,mian,2021.2.3,60.01738103401667,
7a,2,1,7.0,a,"[-0.2, -0.2]",,,,,,,,,,,,,,,,,,,,0,70,70,70,,,,,,,,,,,,,,,,,a,1,1.152417699999205,,,,,,,,,,,,yh,m,23,2024_Apr_19_1728,mian,2021.2.3,60.01738103401667,
8e,2,2,8.0,l,"[0.2, -0.2]",,,,,,,,,,,,,,,,,,,,0,71,71,71,,,,,,,,,,,,,,,,,l,1,0.6452215999997861,,,,,,,,,,,,yh,m,23,2024_Apr_19_1728,mian,2021.2.3,60.01738103401667,
h4,1,1,h,l,"[0.2, 0.2]",,,,,,,,,,,,,,,,,,,,0,72,72,72,,,,,,,,,,,,,,,,,l,1,1.2349173000002338,,,,,,,,,,,,yh,m,23,2024_Apr_19_1728,mian,2021.2.3,60.01738103401667,
G8,1,2,G,a,"[-0.2, 0.2]",,,,,,,,,,,,,,,,,,,,0,73,73,73,,,,,,,,,,,,,,,,,a,1,0.4225512000011804,,,,,,,,,,,,yh,m,23,2024_Apr_19_1728,mian,2021.2.3,60.01738103401667,
6F,2,1,6.0,l,"[-0.2, -0.2]",,,,,,,,,,,,,,,,,,,,0,74,74,74,,,,,,,,,,,,,,,,,l,1,0.750923600000533,,,,,,,,,,,,yh,m,23,2024_Apr_19_1728,mian,2021.2.3,60.01738103401667,
g5,2,2,5.0,a,"[0.2, -0.2]",,,,,,,,,,,,,,,,,,,,0,75,75,75,,,,,,,,,,,,,,,,,a,1,0.6215780999991694,,,,,,,,,,,,yh,m,23,2024_Apr_19_1728,mian,2021.2.3,60.01738103401667,
G5,1,1,G,a,"[0.2, 0.2]",,,,,,,,,,,,,,,,,,,,0,76,76,76,,,,,,,,,,,,,,,,,a,1,0.6243599000008544,,,,,,,,,,,,yh,m,23,2024_Apr_19_1728,mian,2021.2.3,60.01738103401667,
h5,1,2,h,l,"[-0.2, 0.2]",,,,,,,,,,,,,,,,,,,,0,77,77,77,,,,,,,,,,,,,,,,,l,1,0.6329253999974753,,,,,,,,,,,,yh,m,23,2024_Apr_19_1728,mian,2021.2.3,60.01738103401667,
9G,2,1,9.0,a,"[-0.2, -0.2]",,,,,,,,,,,,,,,,,,,,0,78,78,78,,,,,,,,,,,,,,,,,a,1,0.5855307999991055,,,,,,,,,,,,yh,m,23,2024_Apr_19_1728,mian,2021.2.3,60.01738103401667,
F3,2,2,3.0,a,"[0.2, -0.2]",,,,,,,,,,,,,,,,,,,,0,79,79,79,,,,,,,,,,,,,,,,,a,1,0.673983100001351,,,,,,,,,,,,yh,m,23,2024_Apr_19_1728,mian,2021.2.3,60.01738103401667,
,,,,,,1,1,pic/flanker6.png,pic/flanker4.png,s,k,,,,,,,,,,,,,,,,,,0,0,0,0,0,0,0,6,,,,,,,,,,,,496.25090909999926,None,495.0678365999993,496.26754770000116,s,1,1.0979982000026212,敬佩,k,1,1.298167299999477,yh,m,23,2024_Apr_19_1728,mian,2021.2.3,60.01738103401667,
,,,,,,1,0,pic/flanker6.png,pic/flanker4.png,s,l,,,,,,,,,,,,,,,,,,0,0,0,0,0,1,1,5,,,,,,,,,,,,500.7172959999989,None,499.5340853000016,500.73398050000105,s,1,0.6809824000010849,罚款,l,1,0.6760493000001588,yh,m,23,2024_Apr_19_1728,mian,2021.2.3,60.01738103401667,
,,,,,,0,1,pic/flanker6.png,pic/flanker2.png,a,k,,,,,,,,,,,,,,,,,,0,0,0,0,0,2,2,2,,,,,,,,,,,,504.15027439999903,None,502.96706899999845,504.1669131000017,a,1,0.4788589999989199,顽强,k,1,0.7121631999980309,yh,m,23,2024_Apr_19_1728,mian,2021.2.3,60.01738103401667,
,,,,,,1,0,pic/flanker5.png,pic/flanker3.png,a,l,,,,,,,,,,,,,,,,,,0,0,0,0,0,3,3,7,,,,,,,,,,,,507.2664202999986,None,506.0833085999984,507.28323250000176,a,1,0.5973973000000115,轻率,l,1,0.6400538999987475,yh,m,23,2024_Apr_19_1728,mian,2021.2.3,60.01738103401667,
,,,,,,0,0,pic/flanker6.png,pic/flanker2.png,a,l,,,,,,,,,,,,,,,,,,0,0,0,0,0,4,4,1,,,,,,,,,,,,510.48305679999976,None,509.29964010000185,510.5028858000005,a,1,0.4132497000027797,悲观,l,1,0.7340986999988672,yh,m,23,2024_Apr_19_1728,mian,2021.2.3,60.01738103401667,
,,,,,,1,1,pic/flanker5.png,pic/flanker3.png,a,k,,,,,,,,,,,,,,,,,,0,0,0,0,0,5,5,4,,,,,,,,,,,,513.4660890000014,None,512.2826376999983,513.4827923999983,a,1,0.6452052999993612,豪放,k,1,0.7012365000009595,yh,m,23,2024_Apr_19_1728,mian,2021.2.3,60.01738103401667,
,,,,,,0,0,pic/flanker5.png,pic/flanker1.png,s,l,,,,,,,,,,,,,,,,,,0,0,0,0,0,6,6,3,,,,,,,,,,,,516.6654858000002,None,515.4824731000008,516.6821529000008,s,1,0.6639336000007461,失意,l,1,0.8173475000003236,yh,m,23,2024_Apr_19_1728,mian,2021.2.3,60.01738103401667,
,,,,,,0,1,pic/flanker5.png,pic/flanker1.png,s,k,,,,,,,,,,,,,,,,,,0,0,0,0,0,7,7,0,,,,,,,,,,,,520.1651725000011,None,518.9819257000017,520.1818936999989,s,1,0.6125847000002977,前进,k,1,0.5342669999990903,yh,m,23,2024_Apr_19_1728,mian,2021.2.3,60.01738103401667,
,,,,,,,,,,,,,,,,,,,,,,,,,,,,,0,0,0,0,,,,,,,,,,,,,,,,,,,,,,,,,,,yh,m,23,2024_Apr_19_1728,mian,2021.2.3,60.01738103401667,
,,,,,,0,1,pic/flanker5.png,pic/flanker1.png,s,k,pic/AffRest1.png,,,,,,,,,,,,,,,,,,,,,,,,,0,0,0,0,0,0,0,16,,,,526.0647123000017,None,524.8813244999983,526.0813621000016,s,1,0.4255302000019583,留恋,k,1,0.978805699996883,yh,m,23,2024_Apr_19_1728,mian,2021.2.3,60.01738103401667,
,,,,,,0,0,pic/flanker5.png,pic/flanker1.png,s,l,pic/AffRest1.png,,,,,,,,,,,,,,,,,,,,,,,,,0,0,0,0,0,1,1,59,,,,529.5310271000017,None,528.3478787999993,529.5477229999997,s,1,0.43042659999991884,懒惰,l,1,0.5655417999987549,yh,m,23,2024_Apr_19_1728,mian,2021.2.3,60.01738103401667,
,,,,,,1,0,pic/flanker5.png,pic/flanker3.png,a,l,pic/AffRest1.png,,,,,,,,,,,,,,,,,,,,,,,,,0,0,0,0,0,2,2,55,,,,532.5656621000016,None,531.3806880000011,532.5824637000005,a,1,0.36521690000154194,逃避,l,1,0.5520347999990918,yh,m,23,2024_Apr_19_1728,mian,2021.2.3,60.01738103401667,
,,,,,,1,0,pic/flanker6.png,pic/flanker4.png,s,l,pic/AffRest1.png,,,,,,,,,,,,,,,,,,,,,,,,,0,0,0,0,0,3,3,77,,,,535.4804823999984,None,534.2972277000008,535.4971286,s,1,0.7187114000007568,闷热,l,1,0.7045433999992383,yh,m,23,2024_Apr_19_1728,mian,2021.2.3,60.01738103401667,
,,,,,,1,0,pic/flanker5.png,pic/flanker3.png,a,l,pic/AffRest1.png,,,,,,,,,,,,,,,,,,,,,,,,,0,0,0,0,0,4,4,63,,,,538.7633314999985,None,537.5800197999997,538.7800634000014,a,1,0.4591407999978401,别扭,l,1,0.6372258999981568,yh,m,23,2024_Apr_19_1728,mian,2021.2.3,60.01738103401667,
,,,,,,0,1,pic/flanker6.png,pic/flanker2.png,a,k,pic/AffRest1.png,,,,,,,,,,,,,,,,,,,,,,,,,0,0,0,0,0,5,5,18,,,,541.8797828999996,None,540.6965151000004,541.8964188999998,a,1,0.41526900000098976,充裕,k,1,0.6008356000020285,yh,m,23,2024_Apr_19_1728,mian,2021.2.3,60.01738103401667,
,,,,,,0,0,pic/flanker5.png,pic/flanker1.png,s,l,pic/AffRest1.png,,,,,,,,,,,,,,,,,,,,,,,,,0,0,0,0,0,6,6,35,,,,544.8960367,None,543.712864000001,544.9126150000011,s,1,0.38026969999918947,忧虑,l,1,0.5392382999998517,yh,m,23,2024_Apr_19_1728,mian,2021.2.3,60.01738103401667,
,,,,,,1,0,pic/flanker5.png,pic/flanker3.png,a,l,pic/AffRest1.png,,,,,,,,,,,,,,,,,,,,,,,,,0,0,0,0,0,7,7,7,,,,547.6959228000014,None,546.512616,547.7123500999987,a,1,0.4222936000005575,争吵,l,1,0.4874569000021438,yh,m,23,2024_Apr_19_1728,mian,2021.2.3,60.01738103401667,
,,,,,,0,1,pic/flanker6.png,pic/flanker2.png,a,k,pic/AffRest1.png,,,,,,,,,,,,,,,,,,,,,,,,,0,0,0,0,0,8,8,50,,,,550.6620045999989,None,549.4789911000007,550.6787327999991,a,1,0.3375058000019635,雄厚,k,1,1.0857768000023498,yh,m,23,2024_Apr_19_1728,mian,2021.2.3,60.01738103401667,
,,,,,,1,0,pic/flanker6.png,pic/flanker4.png,s,l,pic/AffRest1.png,,,,,,,,,,,,,,,,,,,,,,,,,0,0,0,0,0,9,9,61,,,,554.0118808000007,None,552.8286445999984,554.0286000999986,s,1,0.7118907999974908,焦躁,l,1,0.5298613999984809,yh,m,23,2024_Apr_19_1728,mian,2021.2.3,60.01738103401667,
,,,,,,0,0,pic/flanker6.png,pic/flanker2.png,a,l,pic/AffRest1.png,,,,,,,,,,,,,,,,,,,,,,,,,0,0,0,0,0,10,10,1,,,,557.1115309000015,None,555.928521400001,557.1283354000007,a,1,0.41880070000115666,堵塞,l,1,0.5557021999993594,yh,m,23,2024_Apr_19_1728,mian,2021.2.3,60.01738103401667,
,,,,,,1,0,pic/flanker6.png,pic/flanker4.png,s,l,pic/AffRest1.png,,,,,,,,,,,,,,,,,,,,,,,,,0,0,0,0,0,11,11,53,,,,560.1446421,None,558.961292,560.1613012999987,s,1,0.6473996999993687,排斥,l,1,0.5523246000011568,yh,m,23,2024_Apr_19_1728,mian,2021.2.3,60.01738103401667,
,,,,,,0,0,pic/flanker5.png,pic/flanker1.png,s,l,pic/AffRest1.png,,,,,,,,,,,,,,,,,,,,,,,,,0,0,0,0,0,12,12,19,,,,563.3776331000008,None,562.1942765999993,563.3942207,s,1,0.5242823999979009,孤单,l,1,0.5475409999999101,yh,m,23,2024_Apr_19_1728,mian,2021.2.3,60.01738103401667,
,,,,,,1,0,pic/flanker5.png,pic/flanker3.png,a,l,pic/AffRest1.png,,,,,,,,,,,,,,,,,,,,,,,,,0,0,0,0,0,13,13,39,,,,566.5106549000011,None,565.3272622000004,566.5275428999994,a,1,0.4592326000019966,假冒,l,1,0.5138665999984369,yh,m,23,2024_Apr_19_1728,mian,2021.2.3,60.01738103401667,
,,,,,,1,0,pic/flanker6.png,pic/flanker4.png,s,l,pic/AffRest1.png,,,,,,,,,,,,,,,,,,,,,,,,,0,0,0,0,0,14,14,69,,,,569.493744200001,None,568.310542700001,569.5104087,s,1,0.633217099999456,郁闷,l,1,0.5835207000018272,yh,m,23,2024_Apr_19_1728,mian,2021.2.3,60.01738103401667,
,,,,,,0,0,pic/flanker6.png,pic/flanker2.png,a,l,pic/AffRest1.png,,,,,,,,,,,,,,,,,,,,,,,,,0,0,0,0,0,15,15,49,,,,572.694778000001,None,571.5120972000004,572.7120095999999,a,1,0.34486540000216337,撒谎,l,1,0.5105025000011665,yh,m,23,2024_Apr_19_1728,mian,2021.2.3,60.01738103401667,
,,,,,,1,1,pic/flanker6.png,pic/flanker4.png,s,k,pic/AffRest1.png,,,,,,,,,,,,,,,,,,,,,,,,,0,0,0,0,0,16,16,38,,,,575.4430237000015,None,574.2599159999991,575.4598172000005,s,1,0.6477870000016992,生动,k,1,0.5294744000020728,yh,m,23,2024_Apr_19_1728,mian,2021.2.3,60.01738103401667,
,,,,,,0,0,pic/flanker6.png,pic/flanker2.png,a,l,pic/AffRest1.png,,,,,,,,,,,,,,,,,,,,,,,,,0,0,0,0,0,17,17,73,,,,578.6262731999996,None,577.4427090999998,578.6427131000019,a,1,0.4365357999995467,丢失,l,1,0.7616602000016428,yh,m,23,2024_Apr_19_1728,mian,2021.2.3,60.01738103401667,
,,,,,,0,0,pic/flanker6.png,pic/flanker2.png,a,l,pic/AffRest1.png,,,,,,,,,,,,,,,,,,,,,,,,,0,0,0,0,0,18,18,65,,,,581.7774366999984,None,580.5942489000008,581.7941858000013,a,1,0.41476630000033765,穷苦,l,1,0.46285770000031334,yh,m,23,2024_Apr_19_1728,mian,2021.2.3,60.01738103401667,
,,,,,,0,1,pic/flanker5.png,pic/flanker1.png,s,k,pic/AffRest1.png,,,,,,,,,,,,,,,,,,,,,,,,,0,0,0,0,0,19,19,64,,,,584.608759499999,None,583.4256103000007,584.6254298999993,s,1,0.3340747999973246,公平,k,1,0.49950410000019474,yh,m,23,2024_Apr_19_1728,mian,2021.2.3,60.01738103401667,
,,,,,,1,1,pic/flanker6.png,pic/flanker4.png,s,k,pic/AffRest1.png,,,,,,,,,,,,,,,,,,,,,,,,,0,0,0,0,0,20,20,22,,,,587.2919082000008,None,586.1087186000004,587.3086454000004,s,1,0.5743261999996321,前进,k,1,0.5247119999985443,yh,m,23,2024_Apr_19_1728,mian,2021.2.3,60.01738103401667,
,,,,,,1,0,pic/flanker5.png,pic/flanker3.png,a,l,pic/AffRest1.png,,,,,,,,,,,,,,,,,,,,,,,,,0,0,0,0,0,21,21,71,,,,590.2433783000015,None,589.060136,590.2598787999996,a,1,0.5801437999980408,心慌,l,1,0.5176723999975366,yh,m,23,2024_Apr_19_1728,mian,2021.2.3,60.01738103401667,
,,,,,,0,1,pic/flanker6.png,pic/flanker2.png,a,k,pic/AffRest1.png,,,,,,,,,,,,,,,,,,,,,,,,,0,0,0,0,0,22,22,26,,,,593.3913396999997,None,592.2080728000001,593.4080098000013,a,1,0.4068425000004936,如愿,k,1,0.6553189999976894,yh,m,23,2024_Apr_19_1728,mian,2021.2.3,60.01738103401667,
,,,,,,0,0,pic/flanker6.png,pic/flanker2.png,a,l,pic/AffRest1.png,,,,,,,,,,,,,,,,,,,,,,,,,0,0,0,0,0,23,23,25,,,,596.3743863999989,None,595.1911905000015,596.3911073999989,a,1,0.4735326999980316,处罚,l,1,0.5836070000004838,yh,m,23,2024_Apr_19_1728,mian,2021.2.3,60.01738103401667,
,,,,,,0,1,pic/flanker5.png,pic/flanker1.png,s,k,pic/AffRest1.png,,,,,,,,,,,,,,,,,,,,,,,,,0,0,0,0,0,24,24,8,,,,599.4426920000005,None,598.2591643999986,599.4595608999989,s,1,0.3781901000002108,富足,k,1,0.49555379999947036,yh,m,23,2024_Apr_19_1728,mian,2021.2.3,60.01738103401667,
,,,,,,1,1,pic/flanker5.png,pic/flanker3.png,a,k,pic/AffRest1.png,,,,,,,,,,,,,,,,,,,,,,,,,0,0,0,0,0,25,25,28,,,,602.2236819999998,None,601.0405032000017,602.2402215000002,a,1,0.7124728000017058,富丽,k,1,0.5704331999986607,yh,m,23,2024_Apr_19_1728,mian,2021.2.3,60.01738103401667,
,,,,,,1,1,pic/flanker6.png,pic/flanker4.png,s,k,pic/AffRest1.png,,,,,,,,,,,,,,,,,,,,,,,,,0,0,0,0,0,26,26,6,,,,605.5251773000018,None,604.3420657999995,605.5416655000008,s,1,0.7466354000025603,卓越,k,1,0.6102909000001091,yh,m,23,2024_Apr_19_1728,mian,2021.2.3,60.01738103401667,
,,,,,,1,0,pic/flanker5.png,pic/flanker3.png,a,l,pic/AffRest1.png,,,,,,,,,,,,,,,,,,,,,,,,,0,0,0,0,0,27,27,47,,,,608.956435600001,None,607.7731252999984,608.9730208000001,a,1,0.6046317000000272,烦恼,l,1,0.6273260999987542,yh,m,23,2024_Apr_19_1728,mian,2021.2.3,60.01738103401667,
,,,,,,0,1,pic/flanker5.png,pic/flanker1.png,s,k,pic/AffRest1.png,,,,,,,,,,,,,,,,,,,,,,,,,0,0,0,0,0,28,28,48,,,,612.2892686000014,None,611.1059421999998,612.3059551000006,s,1,0.5625011999982235,圣洁,k,1,0.5566954000023543,yh,m,23,2024_Apr_19_1728,mian,2021.2.3,60.01738103401667,
,,,,,,0,0,pic/flanker5.png,pic/flanker1.png,s,l,pic/AffRest1.png,,,,,,,,,,,,,,,,,,,,,,,,,0,0,0,0,0,29,29,11,,,,615.3391981999994,None,614.1559541999995,615.3557050000018,s,1,0.4720054999997956,嘲笑,l,1,0.5192857999973057,yh,m,23,2024_Apr_19_1728,mian,2021.2.3,60.01738103401667,
,,,,,,1,0,pic/flanker6.png,pic/flanker4.png,s,l,pic/AffRest1.png,,,,,,,,,,,,,,,,,,,,,,,,,0,0,0,0,0,30,30,37,,,,618.4055335999983,None,617.2223431999992,618.4221916999995,s,1,0.5922986000005039,冷笑,l,1,0.5104442999981984,yh,m,23,2024_Apr_19_1728,mian,2021.2.3,60.01738103401667,
,,,,,,0,0,pic/flanker6.png,pic/flanker2.png,a,l,pic/AffRest1.png,,,,,,,,,,,,,,,,,,,,,,,,,0,0,0,0,0,31,31,33,,,,621.5067492999988,None,620.3234679999987,621.5234994999992,a,1,1.1809470999978657,胡涂,l,1,0.5585897999990266,yh,m,23,2024_Apr_19_1728,mian,2021.2.3,60.01738103401667,
,,,,,,1,1,pic/flanker5.png,pic/flanker3.png,a,k,pic/AffRest1.png,,,,,,,,,,,,,,,,,,,,,,,,,0,0,0,0,0,32,32,68,,,,625.2716944999993,None,624.0881627000017,625.2881328000003,a,1,0.6498145999976259,舒畅,l,0,0.6788696999974491,yh,m,23,2024_Apr_19_1728,mian,2021.2.3,60.01738103401667,
,,,,,,0,1,pic/flanker6.png,pic/flanker2.png,a,k,pic/AffRest1.png,,,,,,,,,,,,,,,,,,,,,,,,,0,0,0,0,0,33,33,74,,,,628.4544110999996,None,627.2714725000005,628.4715815000018,a,1,0.4686860000001616,豪放,k,1,0.5390869000002567,yh,m,23,2024_Apr_19_1728,mian,2021.2.3,60.01738103401667,
,,,,,,0,1,pic/flanker5.png,pic/flanker1.png,s,k,pic/AffRest1.png,,,,,,,,,,,,,,,,,,,,,,,,,0,0,0,0,0,34,34,32,,,,631.3069133999998,None,630.1225836999984,631.3226863999989,s,1,0.4163019000006898,有利,k,1,0.4797266999994463,yh,m,23,2024_Apr_19_1728,mian,2021.2.3,60.01738103401667,
,,,,,,0,0,pic/flanker5.png,pic/flanker1.png,s,l,pic/AffRest1.png,,,,,,,,,,,,,,,,,,,,,,,,,0,0,0,0,0,35,35,51,,,,634.1890821999987,None,633.0057717000018,634.2061968000016,s,1,0.4357698999992863,损害,l,1,0.4820683999969333,yh,m,23,2024_Apr_19_1728,mian,2021.2.3,60.01738103401667,
,,,,,,1,0,pic/flanker5.png,pic/flanker3.png,a,l,pic/AffRest1.png,,,,,,,,,,,,,,,,,,,,,,,,,0,0,0,0,0,36,36,15,,,,637.0200718999986,None,635.8369673000016,637.0368110000018,a,1,0.7301047000000835,沮丧,l,1,0.5314045999984955,yh,m,23,2024_Apr_19_1728,mian,2021.2.3,60.01738103401667,
,,,,,,0,1,pic/flanker5.png,pic/flanker1.png,s,k,pic/AffRest1.png,,,,,,,,,,,,,,,,,,,,,,,,,0,0,0,0,0,37,37,72,,,,640.1699375999997,None,638.9867593000017,640.1865392,s,1,0.4185784000001149,廉洁,k,1,0.5461696999991545,yh,m,23,2024_Apr_19_1728,mian,2021.2.3,60.01738103401667,
,,,,,,1,1,pic/flanker6.png,pic/flanker4.png,s,k,pic/AffRest1.png,,,,,,,,,,,,,,,,,,,,,,,,,0,0,0,0,0,38,38,46,,,,643.0363533999989,None,641.8531067000004,643.0530292000003,s,1,0.582813699998951,永恒,k,1,0.4592234000010649,yh,m,23,2024_Apr_19_1728,mian,2021.2.3,60.01738103401667,
,,,,,,0,0,pic/flanker5.png,pic/flanker1.png,s,l,pic/AffRest1.png,,,,,,,,,,,,,,,,,,,,,,,,,0,0,0,0,0,39,39,75,,,,646.0360533999992,None,644.8529601000009,646.0526625999992,s,1,0.36570949999804725,怀疑,l,1,0.5347600999994029,yh,m,23,2024_Apr_19_1728,mian,2021.2.3,60.01738103401667,
,,,,,,1,0,pic/flanker6.png,pic/flanker4.png,s,l,pic/AffRest1.png,,,,,,,,,,,,,,,,,,,,,,,,,0,0,0,0,0,40,40,13,,,,648.9023424000006,None,647.7192486999993,648.9189713000014,s,1,0.9364265000003797,浪费,l,1,0.5291389999983949,yh,m,23,2024_Apr_19_1728,mian,2021.2.3,60.01738103401667,
,,,,,,1,1,pic/flanker6.png,pic/flanker4.png,s,k,pic/AffRest1.png,,,,,,,,,,,,,,,,,,,,,,,,,0,0,0,0,0,41,41,14,,,,652.3352072999987,None,651.1521739999989,652.3641558000018,s,1,0.6237359000006109,振作,k,1,0.49108780000096885,yh,m,23,2024_Apr_19_1728,mian,2021.2.3,60.01738103401667,
,,,,,,0,1,pic/flanker5.png,pic/flanker1.png,s,k,pic/AffRest1.png,,,,,,,,,,,,,,,,,,,,,,,,,0,0,0,0,0,42,42,56,,,,655.5182858000007,None,654.3350910000008,655.5351322999995,s,1,0.38389029999962077,珍藏,k,1,0.5645387999975355,yh,m,23,2024_Apr_19_1728,mian,2021.2.3,60.01738103401667,
,,,,,,0,1,pic/flanker5.png,pic/flanker1.png,s,k,pic/AffRest1.png,,,,,,,,,,,,,,,,,,,,,,,,,0,0,0,0,0,43,43,40,,,,658.3680649000016,None,657.1848234999998,658.3847730999987,s,1,0.36242090000087046,优雅,k,1,0.44339160000163247,yh,m,23,2024_Apr_19_1728,mian,2021.2.3,60.01738103401667,
,,,,,,1,1,pic/flanker6.png,pic/flanker4.png,s,k,pic/AffRest1.png,,,,,,,,,,,,,,,,,,,,,,,,,0,0,0,0,0,44,44,30,,,,661.2345194000009,None,660.0512789999993,661.2511894999989,s,1,0.5161757999994734,典雅,k,1,0.4971814999989874,yh,m,23,2024_Apr_19_1728,mian,2021.2.3,60.01738103401667,
,,,,,,1,1,pic/flanker6.png,pic/flanker4.png,s,k,pic/AffRest1.png,,,,,,,,,,,,,,,,,,,,,,,,,0,0,0,0,0,45,45,78,,,,664.2358271000012,None,663.0525839000002,664.2527312999991,s,1,0.4892208999990544,清秀,k,1,0.4781236999988323,yh,m,23,2024_Apr_19_1728,mian,2021.2.3,60.01738103401667,
,,,,,,0,1,pic/flanker6.png,pic/flanker2.png,a,k,pic/AffRest1.png,,,,,,,,,,,,,,,,,,,,,,,,,0,0,0,0,0,46,46,42,,,,667.1672456999986,None,665.9837991999993,667.1838821999991,a,1,0.5071844000012788,顽强,k,1,0.658332099999825,yh,m,23,2024_Apr_19_1728,mian,2021.2.3,60.01738103401667,
,,,,,,0,1,pic/flanker6.png,pic/flanker2.png,a,k,pic/AffRest1.png,,,,,,,,,,,,,,,,,,,,,,,,,0,0,0,0,0,47,47,58,,,,670.3854318999984,None,669.2021650999995,670.4017569999996,a,1,0.3743672000018705,瑰丽,k,1,0.44056149999960326,yh,m,23,2024_Apr_19_1728,mian,2021.2.3,60.01738103401667,
,,,,,,1,1,pic/flanker6.png,pic/flanker4.png,s,k,pic/AffRest1.png,,,,,,,,,,,,,,,,,,,,,,,,,0,0,0,0,0,48,48,70,,,,673.2514843999998,None,672.0683535999997,673.2683189999989,s,1,0.6339922000006482,诚恳,k,1,0.5061099000013201,yh,m,23,2024_Apr_19_1728,mian,2021.2.3,60.01738103401667,
,,,,,,1,0,pic/flanker5.png,pic/flanker3.png,a,l,pic/AffRest1.png,,,,,,,,,,,,,,,,,,,,,,,,,0,0,0,0,0,49,49,31,,,,676.3663855000013,None,675.1830340000015,676.3829569000009,a,1,0.40884319999895524,慌忙,l,1,0.5863157000021602,yh,m,23,2024_Apr_19_1728,mian,2021.2.3,60.01738103401667,
,,,,,,1,1,pic/flanker6.png,pic/flanker4.png,s,k,pic/AffRest1.png,,,,,,,,,,,,,,,,,,,,,,,,,0,0,0,0,0,50,50,54,,,,679.3493744000007,None,678.1660608999991,679.3660100000016,s,1,0.6393835999988369,丰满,k,1,0.5392026000008627,yh,m,23,2024_Apr_19_1728,mian,2021.2.3,60.01738103401667,
,,,,,,0,1,pic/flanker5.png,pic/flanker1.png,s,k,pic/AffRest1.png,,,,,,,,,,,,,,,,,,,,,,,,,0,0,0,0,0,51,51,24,,,,682.584362900001,None,681.4008393000004,682.6006626000017,s,1,0.4109684000031848,鲜艳,k,1,0.4383932000018831,yh,m,23,2024_Apr_19_1728,mian,2021.2.3,60.01738103401667,
,,,,,,1,1,pic/flanker5.png,pic/flanker3.png,a,k,pic/AffRest1.png,,,,,,,,,,,,,,,,,,,,,,,,,0,0,0,0,0,52,52,4,,,,685.3820679000019,None,684.1988835999982,685.3988543000014,a,1,0.3832475000017439,奉献,k,1,0.607899599999655,yh,m,23,2024_Apr_19_1728,mian,2021.2.3,60.01738103401667,
,,,,,,0,0,pic/flanker6.png,pic/flanker2.png,a,l,pic/AffRest1.png,,,,,,,,,,,,,,,,,,,,,,,,,0,0,0,0,0,53,53,17,,,,688.3483247000004,None,687.1650403999993,688.3650903999987,a,1,0.33001559999684105,消沉,l,1,0.5568120999996609,yh,m,23,2024_Apr_19_1728,mian,2021.2.3,60.01738103401667,
,,,,,,1,1,pic/flanker6.png,pic/flanker4.png,s,k,pic/AffRest1.png,,,,,,,,,,,,,,,,,,,,,,,,,0,0,0,0,0,54,54,62,,,,691.1979949999986,None,690.0149974999986,691.2148387999987,s,1,0.5982825000028242,享受,k,1,0.4044340000000375,yh,m,23,2024_Apr_19_1728,mian,2021.2.3,60.01738103401667,
,,,,,,1,0,pic/flanker5.png,pic/flanker3.png,a,l,pic/AffRest1.png,,,,,,,,,,,,,,,,,,,,,,,,,0,0,0,0,0,55,55,23,,,,694.2645322999997,None,693.0811242000018,694.2810089999984,a,1,0.4103603999974439,厌恶,l,1,0.4512290999991819,yh,m,23,2024_Apr_19_1728,mian,2021.2.3,60.01738103401667,
,,,,,,1,1,pic/flanker5.png,pic/flanker3.png,a,k,pic/AffRest1.png,,,,,,,,,,,,,,,,,,,,,,,,,0,0,0,0,0,56,56,20,,,,696.9810560000005,None,695.7977069000008,696.9975214000006,a,1,0.528267900001083,秀丽,k,1,0.5233651000016835,yh,m,23,2024_Apr_19_1728,mian,2021.2.3,60.01738103401667,
,,,,,,1,0,pic/flanker5.png,pic/flanker3.png,a,l,pic/AffRest1.png,,,,,,,,,,,,,,,,,,,,,,,,,0,0,0,0,0,57,57,79,,,,700.0823124000017,None,698.8990521000014,700.0988553999996,a,1,0.4632560000027297,轻率,l,1,0.5821915000014997,yh,m,23,2024_Apr_19_1728,mian,2021.2.3,60.01738103401667,
,,,,,,0,0,pic/flanker6.png,pic/flanker2.png,a,l,pic/AffRest1.png,,,,,,,,,,,,,,,,,,,,,,,,,0,0,0,0,0,58,58,57,,,,702.9660298000017,None,701.7822477000009,702.9821913000014,a,1,0.36942090000229655,禁止,l,1,0.4830820999995922,yh,m,23,2024_Apr_19_1728,mian,2021.2.3,60.01738103401667,
,,,,,,0,0,pic/flanker5.png,pic/flanker1.png,s,l,pic/AffRest1.png,,,,,,,,,,,,,,,,,,,,,,,,,0,0,0,0,0,59,59,67,,,,705.7152158999997,None,704.5319751999996,705.7318233000005,s,1,0.4956679000024451,悲观,l,1,0.5855517000018153,yh,m,23,2024_Apr_19_1728,mian,2021.2.3,60.01738103401667,
,,,,,,0,1,pic/flanker5.png,pic/flanker1.png,s,k,pic/AffRest1.png,,,,,,,,,,,,,,,,,,,,,,,,,0,0,0,0,0,60,60,0,,,,708.6982940999987,None,707.5149645999991,708.7149815000012,s,1,0.6074413999995159,吉祥,k,1,0.6065312999999151,yh,m,23,2024_Apr_19_1728,mian,2021.2.3,60.01738103401667,
,,,,,,0,1,pic/flanker6.png,pic/flanker2.png,a,k,pic/AffRest1.png,,,,,,,,,,,,,,,,,,,,,,,,,0,0,0,0,0,61,61,10,,,,711.9294574999985,None,710.7461221999984,711.9460517000007,a,1,0.3890054000003147,旺盛,k,1,0.5780293000025267,yh,m,23,2024_Apr_19_1728,mian,2021.2.3,60.01738103401667,
,,,,,,1,1,pic/flanker5.png,pic/flanker3.png,a,k,pic/AffRest1.png,,,,,,,,,,,,,,,,,,,,,,,,,0,0,0,0,0,62,62,52,,,,714.9123002000015,None,713.7291814000018,714.9288769999985,a,1,0.5532663999983924,正直,k,1,0.48660580000068876,yh,m,23,2024_Apr_19_1728,mian,2021.2.3,60.01738103401667,
,,,,,,1,1,pic/flanker5.png,pic/flanker3.png,a,k,pic/AffRest1.png,,,,,,,,,,,,,,,,,,,,,,,,,0,0,0,0,0,63,63,36,,,,717.8786873999998,None,716.695356799999,717.8954139000016,a,1,0.454615400001785,羡慕,k,1,0.4761890999980096,yh,m,23,2024_Apr_19_1728,mian,2021.2.3,60.01738103401667,
,,,,,,1,0,pic/flanker6.png,pic/flanker4.png,s,l,pic/AffRest1.png,,,,,,,,,,,,,,,,,,,,,,,,,0,0,0,0,0,64,64,5,,,,720.7119052000016,None,719.5286377999983,720.7284710999993,s,1,0.5892416000024241,罚款,l,1,0.5075827000000572,yh,m,23,2024_Apr_19_1728,mian,2021.2.3,60.01738103401667,
,,,,,,0,1,pic/flanker6.png,pic/flanker2.png,a,k,pic/AffRest1.png,,,,,,,,,,,,,,,,,,,,,,,,,0,0,0,0,0,65,65,2,,,,723.7641967000018,None,722.5802083999988,723.7797759999994,a,1,0.334300999998959,爽朗,k,1,0.49569870000050287,yh,m,23,2024_Apr_19_1728,mian,2021.2.3,60.01738103401667,
,,,,,,0,0,pic/flanker5.png,pic/flanker1.png,s,l,pic/AffRest1.png,,,,,,,,,,,,,,,,,,,,,,,,,0,0,0,0,0,66,66,3,,,,726.4446137000014,None,725.2615069999993,726.4613653000015,s,1,0.38157030000002123,杂乱,l,1,0.4886174999992363,yh,m,23,2024_Apr_19_1728,mian,2021.2.3,60.01738103401667,
,,,,,,1,0,pic/flanker6.png,pic/flanker4.png,s,l,pic/AffRest1.png,,,,,,,,,,,,,,,,,,,,,,,,,0,0,0,0,0,67,67,45,,,,729.2461963999995,None,728.0629298999993,729.262589599999,s,1,0.5987866000032227,鲁莽,l,1,0.525486099999398,yh,m,23,2024_Apr_19_1728,mian,2021.2.3,60.01738103401667,
,,,,,,0,1,pic/flanker6.png,pic/flanker2.png,a,k,pic/AffRest1.png,,,,,,,,,,,,,,,,,,,,,,,,,0,0,0,0,0,68,68,34,,,,732.4273251000013,None,731.2440277999995,732.4440116000005,a,1,0.2943145999997796,敬佩,k,1,0.4841386000007333,yh,m,23,2024_Apr_19_1728,mian,2021.2.3,60.01738103401667,
,,,,,,0,0,pic/flanker5.png,pic/flanker1.png,s,l,pic/AffRest1.png,,,,,,,,,,,,,,,,,,,,,,,,,0,0,0,0,0,69,69,27,,,,735.0955600999987,None,733.9122639000016,735.1128140000001,s,1,0.42347030000019004,黑暗,l,1,0.5725792000012007,yh,m,23,2024_Apr_19_1728,mian,2021.2.3,60.01738103401667,
,,,,,,1,1,pic/flanker5.png,pic/flanker3.png,a,k,pic/AffRest1.png,,,,,,,,,,,,,,,,,,,,,,,,,0,0,0,0,0,70,70,76,,,,738.0602204999996,None,736.8767990000015,738.076841099999,a,1,0.4075409999968542,赞成,k,1,0.5794752000001608,yh,m,23,2024_Apr_19_1728,mian,2021.2.3,60.01738103401667,
,,,,,,1,1,pic/flanker5.png,pic/flanker3.png,a,k,pic/AffRest1.png,,,,,,,,,,,,,,,,,,,,,,,,,0,0,0,0,0,71,71,44,,,,740.8931202999993,None,739.7099799999996,740.9099088000003,a,1,0.45025609999720473,热切,k,1,0.5041969000012614,yh,m,23,2024_Apr_19_1728,mian,2021.2.3,60.01738103401667,
,,,,,,0,0,pic/flanker6.png,pic/flanker2.png,a,l,pic/AffRest1.png,,,,,,,,,,,,,,,,,,,,,,,,,0,0,0,0,0,72,72,41,,,,743.7612539000002,None,742.5783263999983,743.7778566999987,a,1,0.3190298999979859,落后,l,1,0.525666600002296,yh,m,23,2024_Apr_19_1728,mian,2021.2.3,60.01738103401667,
,,,,,,1,1,pic/flanker5.png,pic/flanker3.png,a,k,pic/AffRest1.png,,,,,,,,,,,,,,,,,,,,,,,,,0,0,0,0,0,73,73,60,,,,746.6759673000015,None,745.492657499999,746.6924977999988,a,1,0.7540177000009862,俊秀,k,1,0.5352278999998816,yh,m,23,2024_Apr_19_1728,mian,2021.2.3,60.01738103401667,
,,,,,,1,0,pic/flanker6.png,pic/flanker4.png,s,l,pic/AffRest1.png,,,,,,,,,,,,,,,,,,,,,,,,,0,0,0,0,0,74,74,21,,,,749.8257150999998,None,748.6421627000018,749.842224,s,1,0.5978489000008267,自卑,l,1,0.5733451000014611,yh,m,23,2024_Apr_19_1728,mian,2021.2.3,60.01738103401667,
,,,,,,0,0,pic/flanker6.png,pic/flanker2.png,a,l,pic/AffRest1.png,,,,,,,,,,,,,,,,,,,,,,,,,0,0,0,0,0,75,75,9,,,,752.8437707000012,None,751.6605663000009,752.8604196000015,a,1,0.3228476000003866,缺乏,l,1,0.6368804999983695,yh,m,23,2024_Apr_19_1728,mian,2021.2.3,60.01738103401667,
,,,,,,0,1,pic/flanker6.png,pic/flanker2.png,a,k,pic/AffRest1.png,,,,,,,,,,,,,,,,,,,,,,,,,0,0,0,0,0,76,76,66,,,,755.6750733000008,None,754.4917410000016,755.6917362999993,a,1,0.7249776999997266,畅销,k,1,0.5255700000016077,yh,m,23,2024_Apr_19_1728,mian,2021.2.3,60.01738103401667,
,,,,,,0,0,pic/flanker5.png,pic/flanker1.png,s,l,pic/AffRest1.png,,,,,,,,,,,,,,,,,,,,,,,,,0,0,0,0,0,77,77,43,,,,758.7765924999985,None,757.5933229000002,758.7929322000018,s,1,0.3788368999994418,伤心,l,1,0.48043219999817666,yh,m,23,2024_Apr_19_1728,mian,2021.2.3,60.01738103401667,
,,,,,,1,0,pic/flanker6.png,pic/flanker4.png,s,l,pic/AffRest1.png,,,,,,,,,,,,,,,,,,,,,,,,,0,0,0,0,0,78,78,29,,,,761.5411820000008,None,760.3578114000011,761.5575997000014,s,1,0.7132753000005323,失意,l,1,0.5532371000008425,yh,m,23,2024_Apr_19_1728,mian,2021.2.3,60.01738103401667,
,,,,,,1,1,pic/flanker5.png,pic/flanker3.png,a,k,pic/AffRest1.png,,,,,,,,,,,,,,,,,,,,,,,,,0,0,0,0,0,79,79,12,,,,764.8591737999996,None,763.6760524999991,764.8757407000012,a,1,0.4703028000003542,精致,k,1,0.4323140999986208,yh,m,23,2024_Apr_19_1728,mian,2021.2.3,60.01738103401667,
,,,,,,,,,,,,pic/AffRest1.png,,,,,,,,,,,,,,,,,,,,,,,,,0,0,0,0,,,,,,,,,,,,,,,,,,,yh,m,23,2024_Apr_19_1728,mian,2021.2.3,60.01738103401667,
,,,,,,0,0,pic/flanker5.png,pic/flanker1.png,s,l,pic/AffRest2.png,,,,,,,,,,,,,,,,,,,,,,,,,0,1,1,1,0,0,0,27,,,,771.0732146000009,None,769.8902500000004,771.0900844999996,s,1,0.47479960000055144,自卑,l,1,0.5738424000010127,yh,m,23,2024_Apr_19_1728,mian,2021.2.3,60.01738103401667,
,,,,,,0,0,pic/flanker6.png,pic/flanker2.png,a,l,pic/AffRest2.png,,,,,,,,,,,,,,,,,,,,,,,,,0,1,1,1,0,1,1,57,,,,774.0398314000013,None,772.8568003,774.0564190000005,a,1,0.4040004999988014,烦恼,l,1,0.540774799999781,yh,m,23,2024_Apr_19_1728,mian,2021.2.3,60.01738103401667,
,,,,,,1,1,pic/flanker5.png,pic/flanker3.png,a,k,pic/AffRest2.png,,,,,,,,,,,,,,,,,,,,,,,,,0,1,1,1,0,2,2,28,,,,777.0085824000016,None,775.8247840000004,777.0249990999982,a,1,0.46061720000216155,爽朗,k,1,0.5194434000004549,yh,m,23,2024_Apr_19_1728,mian,2021.2.3,60.01738103401667,
,,,,,,0,1,pic/flanker6.png,pic/flanker2.png,a,k,pic/AffRest2.png,,,,,,,,,,,,,,,,,,,,,,,,,0,1,1,1,0,3,3,50,,,,779.9408766999986,None,778.757865399999,779.9576463999983,a,1,0.44899309999891557,瑰丽,k,1,0.44767399999909685,yh,m,23,2024_Apr_19_1728,mian,2021.2.3,60.01738103401667,
,,,,,,0,0,pic/flanker6.png,pic/flanker2.png,a,l,pic/AffRest2.png,,,,,,,,,,,,,,,,,,,,,,,,,0,1,1,1,0,4,4,9,,,,782.7741251000007,None,781.5908600000002,782.7905275999983,a,1,0.3948603999997431,冷笑,l,1,0.5338905999997223,yh,m,23,2024_Apr_19_1728,mian,2021.2.3,60.01738103401667,
,,,,,,1,1,pic/flanker5.png,pic/flanker3.png,a,k,pic/AffRest2.png,,,,,,,,,,,,,,,,,,,,,,,,,0,1,1,1,0,5,5,44,,,,785.6903879999991,None,784.5070994999987,785.7071128999996,a,1,0.4883434000003035,羡慕,k,1,0.6078265999967698,yh,m,23,2024_Apr_19_1728,mian,2021.2.3,60.01738103401667,
,,,,,,0,0,pic/flanker5.png,pic/flanker1.png,s,l,pic/AffRest2.png,,,,,,,,,,,,,,,,,,,,,,,,,0,1,1,1,0,6,6,19,,,,788.7901076000016,None,787.6068922999984,788.8069303000011,s,1,0.3726664999994682,鲁莽,l,1,0.5338052000006428,yh,m,23,2024_Apr_19_1728,mian,2021.2.3,60.01738103401667,
,,,,,,0,1,pic/flanker6.png,pic/flanker2.png,a,k,pic/AffRest2.png,,,,,,,,,,,,,,,,,,,,,,,,,0,1,1,1,0,7,7,26,,,,791.6897597999996,None,790.5065044000003,791.7066493999992,a,1,0.39773870000135503,丰满,k,1,0.5364607999981672,yh,m,23,2024_Apr_19_1728,mian,2021.2.3,60.01738103401667,
,,,,,,1,0,pic/flanker5.png,pic/flanker3.png,a,l,pic/AffRest2.png,,,,,,,,,,,,,,,,,,,,,,,,,0,1,1,1,0,8,8,23,,,,794.4729250000019,None,793.2897049999992,794.4893631000014,a,1,0.4712037999997847,慌忙,l,1,0.48985979999997653,yh,m,23,2024_Apr_19_1728,mian,2021.2.3,60.01738103401667,
,,,,,,1,0,pic/flanker5.png,pic/flanker3.png,a,l,pic/AffRest2.png,,,,,,,,,,,,,,,,,,,,,,,,,0,1,1,1,0,9,9,63,,,,797.3894811999999,None,796.2061227000013,797.4058384999989,a,1,0.6647699999994074,处罚,l,1,0.558557500000461,yh,m,23,2024_Apr_19_1728,mian,2021.2.3,60.01738103401667,
,,,,,,1,0,pic/flanker6.png,pic/flanker4.png,s,l,pic/AffRest2.png,,,,,,,,,,,,,,,,,,,,,,,,,0,1,1,1,0,10,10,13,,,,800.4703896999999,None,799.2873312000011,800.4870503999991,s,1,0.639261099997384,缺乏,l,1,0.57950830000118,yh,m,23,2024_Apr_19_1728,mian,2021.2.3,60.01738103401667,
,,,,,,0,0,pic/flanker6.png,pic/flanker2.png,a,l,pic/AffRest2.png,,,,,,,,,,,,,,,,,,,,,,,,,0,1,1,1,0,11,11,17,,,,803.6387388000003,None,802.4554205999993,803.6551189999991,a,1,0.32888870000169845,罚款,l,1,0.5781298000001698,yh,m,23,2024_Apr_19_1728,mian,2021.2.3,60.01738103401667,
,,,,,,0,1,pic/flanker5.png,pic/flanker1.png,s,k,pic/AffRest2.png,,,,,,,,,,,,,,,,,,,,,,,,,0,1,1,1,0,12,12,48,,,,806.4883378000013,None,805.3049954000016,806.5048891000006,s,1,0.5434416999996756,永恒,k,1,0.42623269999967306,yh,m,23,2024_Apr_19_1728,mian,2021.2.3,60.01738103401667,
,,,,,,1,0,pic/flanker6.png,pic/flanker4.png,s,l,pic/AffRest2.png,,,,,,,,,,,,,,,,,,,,,,,,,0,1,1,1,0,13,13,45,,,,809.3549506000018,None,808.1715149000011,809.3712816000007,s,1,0.8206227999980911,落后,l,1,0.5354490999998234,yh,m,23,2024_Apr_19_1728,mian,2021.2.3,60.01738103401667,
,,,,,,1,0,pic/flanker5.png,pic/flanker3.png,a,l,pic/AffRest2.png,,,,,,,,,,,,,,,,,,,,,,,,,0,1,1,1,0,14,14,39,,,,812.5542883999988,None,811.3710045000007,812.5711211999987,a,1,0.4609015999994881,排斥,l,1,0.5272182999979123,yh,m,23,2024_Apr_19_1728,mian,2021.2.3,60.01738103401667,
,,,,,,0,1,pic/flanker5.png,pic/flanker1.png,s,k,pic/AffRest2.png,,,,,,,,,,,,,,,,,,,,,,,,,0,1,1,1,0,15,15,56,,,,815.4872694000005,None,814.3043553999996,815.5041033000016,s,1,0.47470590000011725,生动,k,1,0.5714167000005546,yh,m,23,2024_Apr_19_1728,mian,2021.2.3,60.01738103401667,
,,,,,,0,1,pic/flanker6.png,pic/flanker2.png,a,k,pic/AffRest2.png,,,,,,,,,,,,,,,,,,,,,,,,,0,1,1,1,0,16,16,10,,,,818.4869905000014,None,817.3037829999994,818.5037367000004,a,1,0.40007150000019465,旺盛,k,1,0.45405610000307206,yh,m,23,2024_Apr_19_1728,mian,2021.2.3,60.01738103401667,
,,,,,,1,0,pic/flanker6.png,pic/flanker4.png,s,l,pic/AffRest2.png,,,,,,,,,,,,,,,,,,,,,,,,,0,1,1,1,0,17,17,77,,,,821.3365836999983,None,820.1537637000001,821.3534505999996,s,1,0.6503528000030201,心慌,l,1,0.46230389999982435,yh,m,23,2024_Apr_19_1728,mian,2021.2.3,60.01738103401667,
,,,,,,1,1,pic/flanker6.png,pic/flanker4.png,s,k,pic/AffRest2.png,,,,,,,,,,,,,,,,,,,,,,,,,0,1,1,1,0,18,18,14,,,,824.3032426999998,None,823.1199906000002,824.3200311,s,1,0.6586471999980859,卓越,k,1,0.4638626000014483,yh,m,23,2024_Apr_19_1728,mian,2021.2.3,60.01738103401667,
,,,,,,1,1,pic/flanker6.png,pic/flanker4.png,s,k,pic/AffRest2.png,,,,,,,,,,,,,,,,,,,,,,,,,0,1,1,1,0,19,19,62,,,,827.4697463000011,None,826.2861486000002,827.486205199999,s,1,0.6398372000003292,富足,k,1,0.4098119999980554,yh,m,23,2024_Apr_19_1728,mian,2021.2.3,60.01738103401667,
,,,,,,0,0,pic/flanker6.png,pic/flanker2.png,a,l,pic/AffRest2.png,,,,,,,,,,,,,,,,,,,,,,,,,0,1,1,1,0,20,20,49,,,,830.3692593999986,None,829.1860422999998,830.3861126000011,a,1,0.19744399999763118,胡涂,l,1,0.454771200002142,yh,m,23,2024_Apr_19_1728,mian,2021.2.3,60.01738103401667,
,,,,,,1,0,pic/flanker6.png,pic/flanker4.png,s,l,pic/AffRest2.png,,,,,,,,,,,,,,,,,,,,,,,,,0,1,1,1,0,21,21,5,,,,833.0190890000013,None,831.8357165000016,833.0354694999987,s,1,0.5630007999970985,杂乱,l,1,0.4920438000008289,yh,m,23,2024_Apr_19_1728,mian,2021.2.3,60.01738103401667,
,,,,,,1,0,pic/flanker6.png,pic/flanker4.png,s,l,pic/AffRest2.png,,,,,,,,,,,,,,,,,,,,,,,,,0,1,1,1,0,22,22,53,,,,835.9687903999984,None,834.7855173999997,835.9852353999995,s,1,0.5742568000023311,撒谎,l,1,0.46474189999935334,yh,m,23,2024_Apr_19_1728,mian,2021.2.3,60.01738103401667,
,,,,,,0,1,pic/flanker6.png,pic/flanker2.png,a,k,pic/AffRest2.png,,,,,,,,,,,,,,,,,,,,,,,,,0,1,1,1,0,23,23,18,,,,839.0519305999987,None,837.8685990000013,839.0688078999992,a,1,0.34401189999698545,吉祥,k,1,0.5282222999994701,yh,m,23,2024_Apr_19_1728,mian,2021.2.3,60.01738103401667,
,,,,,,1,0,pic/flanker5.png,pic/flanker3.png,a,l,pic/AffRest2.png,,,,,,,,,,,,,,,,,,,,,,,,,0,1,1,1,0,24,24,31,,,,841.8681426000003,None,840.6848782999987,841.8846726000011,a,1,0.48191829999996116,孤单,l,1,0.5676922999991802,yh,m,23,2024_Apr_19_1728,mian,2021.2.3,60.01738103401667,
,,,,,,0,1,pic/flanker5.png,pic/flanker1.png,s,k,pic/AffRest2.png,,,,,,,,,,,,,,,,,,,,,,,,,0,1,1,1,0,25,25,72,,,,844.8678612000003,None,843.6846102999989,844.8843854000006,s,1,0.8863796000005095,豪放,k,1,0.5871538999999757,yh,m,23,2024_Apr_19_1728,mian,2021.2.3,60.01738103401667,
,,,,,,0,1,pic/flanker6.png,pic/flanker2.png,a,k,pic/AffRest2.png,,,,,,,,,,,,,,,,,,,,,,,,,0,1,1,1,0,26,26,66,,,,848.3840496000012,None,847.2007932000015,848.401004899999,a,1,0.2940240999996604,诚恳,k,1,0.5727637999989383,yh,m,23,2024_Apr_19_1728,mian,2021.2.3,60.01738103401667,
,,,,,,0,0,pic/flanker5.png,pic/flanker1.png,s,l,pic/AffRest2.png,,,,,,,,,,,,,,,,,,,,,,,,,0,1,1,1,0,27,27,11,,,,851.2019618000013,None,850.0172630000015,851.2172484000002,s,1,0.3544891999990796,黑暗,l,1,0.4672333000016806,yh,m,23,2024_Apr_19_1728,mian,2021.2.3,60.01738103401667,
,,,,,,1,0,pic/flanker5.png,pic/flanker3.png,a,l,pic/AffRest2.png,,,,,,,,,,,,,,,,,,,,,,,,,0,1,1,1,0,28,28,71,,,,854.0336287999999,None,852.8504041000015,854.0501936000001,a,1,0.3885569999984,闷热,l,1,0.4672549999995681,yh,m,23,2024_Apr_19_1728,mian,2021.2.3,60.01738103401667,
,,,,,,1,1,pic/flanker6.png,pic/flanker4.png,s,k,pic/AffRest2.png,,,,,,,,,,,,,,,,,,,,,,,,,0,1,1,1,0,29,29,70,,,,856.7832641999994,None,855.6000142999983,856.8000528999983,s,1,0.5303727999998955,充裕,k,1,0.4299815000013041,yh,m,23,2024_Apr_19_1728,mian,2021.2.3,60.01738103401667,
,,,,,,1,0,pic/flanker5.png,pic/flanker3.png,a,l,pic/AffRest2.png,,,,,,,,,,,,,,,,,,,,,,,,,0,1,1,1,0,30,30,15,,,,859.6329339000004,None,858.4500187000012,859.6497722999993,a,1,0.412431499997183,失意,l,1,0.5229596999997739,yh,m,23,2024_Apr_19_1728,mian,2021.2.3,60.01738103401667,
,,,,,,1,1,pic/flanker5.png,pic/flanker3.png,a,k,pic/AffRest2.png,,,,,,,,,,,,,,,,,,,,,,,,,0,1,1,1,0,31,31,20,,,,862.5162037000009,None,861.332923599999,862.5326066000016,a,1,0.4759801000000152,廉洁,k,1,0.6169909999989613,yh,m,23,2024_Apr_19_1728,mian,2021.2.3,60.01738103401667,
,,,,,,0,1,pic/flanker5.png,pic/flanker1.png,s,k,pic/AffRest2.png,,,,,,,,,,,,,,,,,,,,,,,,,0,1,1,1,0,32,32,16,,,,865.5992164000018,None,864.4158687999989,865.6157125999998,s,1,0.4677584000019124,圣洁,k,1,0.45623909999994794,yh,m,23,2024_Apr_19_1728,mian,2021.2.3,60.01738103401667,
,,,,,,0,1,pic/flanker5.png,pic/flanker1.png,s,k,pic/AffRest2.png,,,,,,,,,,,,,,,,,,,,,,,,,0,1,1,1,0,33,33,24,,,,868.4155264000001,None,867.2323295999995,868.4321710000004,s,1,0.39124400000218884,热切,k,1,0.46979780000037863,yh,m,23,2024_Apr_19_1728,mian,2021.2.3,60.01738103401667,
,,,,,,1,1,pic/flanker5.png,pic/flanker3.png,a,k,pic/AffRest2.png,,,,,,,,,,,,,,,,,,,,,,,,,0,1,1,1,0,34,34,12,,,,871.2817155999983,None,870.098516099999,871.2986740000015,a,1,0.40532119999988936,公平,k,1,0.7074618000006012,yh,m,23,2024_Apr_19_1728,mian,2021.2.3,60.01738103401667,
,,,,,,1,0,pic/flanker6.png,pic/flanker4.png,s,l,pic/AffRest2.png,,,,,,,,,,,,,,,,,,,,,,,,,0,1,1,1,0,35,35,29,,,,874.2482177999991,None,873.0649774000012,874.264658,s,1,0.4860521000009612,穷苦,l,1,0.5401301999991119,yh,m,23,2024_Apr_19_1728,mian,2021.2.3,60.01738103401667,
,,,,,,1,1,pic/flanker5.png,pic/flanker3.png,a,k,pic/AffRest2.png,,,,,,,,,,,,,,,,,,,,,,,,,0,1,1,1,0,36,36,4,,,,877.2311410000002,None,876.0498466999998,877.2643606999991,a,1,0.6373748000005435,舒畅,k,1,0.7919441999983974,yh,m,23,2024_Apr_19_1728,mian,2021.2.3,60.01738103401667,
,,,,,,0,0,pic/flanker6.png,pic/flanker2.png,a,l,pic/AffRest2.png,,,,,,,,,,,,,,,,,,,,,,,,,0,1,1,1,0,37,37,73,,,,880.6142170999992,None,879.4310474000013,880.6309339,a,1,0.3572219999987283,丢失,l,1,0.5460304000007454,yh,m,23,2024_Apr_19_1728,mian,2021.2.3,60.01738103401667,
,,,,,,1,1,pic/flanker5.png,pic/flanker3.png,a,k,pic/AffRest2.png,,,,,,,,,,,,,,,,,,,,,,,,,0,1,1,1,0,38,38,36,,,,883.4640557999992,None,882.2809299,883.480615299999,a,1,0.5166093000007095,振作,k,1,0.5504467000027944,yh,m,23,2024_Apr_19_1728,mian,2021.2.3,60.01738103401667,
,,,,,,1,1,pic/flanker6.png,pic/flanker4.png,s,k,pic/AffRest2.png,,,,,,,,,,,,,,,,,,,,,,,,,0,1,1,1,0,39,39,30,,,,886.5303273999998,None,885.3469809000017,886.5470854000014,s,1,0.6283607999976084,清秀,k,1,0.4729384000020218,yh,m,23,2024_Apr_19_1728,mian,2021.2.3,60.01738103401667,
,,,,,,1,1,pic/flanker6.png,pic/flanker4.png,s,k,pic/AffRest2.png,,,,,,,,,,,,,,,,,,,,,,,,,0,1,1,1,0,40,40,38,,,,889.5300182999999,None,888.3467143000016,889.5476598999994,s,1,0.5228964000016276,秀丽,k,1,0.5041892000008374,yh,m,23,2024_Apr_19_1728,mian,2021.2.3,60.01738103401667,
,,,,,,0,1,pic/flanker5.png,pic/flanker1.png,s,k,pic/AffRest2.png,,,,,,,,,,,,,,,,,,,,,,,,,0,1,1,1,0,41,41,64,,,,892.51296,None,891.3296786999999,892.5296746999993,s,1,0.4638749000005191,留恋,k,1,0.637467700002162,yh,m,23,2024_Apr_19_1728,mian,2021.2.3,60.01738103401667,
,,,,,,1,0,pic/flanker6.png,pic/flanker4.png,s,l,pic/AffRest2.png,,,,,,,,,,,,,,,,,,,,,,,,,0,1,1,1,0,42,42,21,,,,895.6127621000014,None,894.4294900999994,895.6293842999985,s,1,0.48733569999967585,伤心,l,1,0.7192174999981944,yh,m,23,2024_Apr_19_1728,mian,2021.2.3,60.01738103401667,
,,,,,,1,0,pic/flanker6.png,pic/flanker4.png,s,l,pic/AffRest2.png,,,,,,,,,,,,,,,,,,,,,,,,,0,1,1,1,0,43,43,69,,,,898.679757599999,None,897.4956977000002,898.6956892000017,s,1,0.4535495999989507,怀疑,l,1,0.5952905999984068,yh,m,23,2024_Apr_19_1728,mian,2021.2.3,60.01738103401667,
,,,,,,1,0,pic/flanker5.png,pic/flanker3.png,a,l,pic/AffRest2.png,,,,,,,,,,,,,,,,,,,,,,,,,0,1,1,1,0,44,44,55,,,,901.6122299999988,None,900.4289860999997,901.6288754999987,a,1,0.4329563999999664,堵塞,l,1,0.6078269000026921,yh,m,23,2024_Apr_19_1728,mian,2021.2.3,60.01738103401667,
,,,,,,0,1,pic/flanker6.png,pic/flanker2.png,a,k,pic/AffRest2.png,,,,,,,,,,,,,,,,,,,,,,,,,0,1,1,1,0,45,45,74,,,,904.5951652000003,None,903.4119544999994,904.6124029999992,a,1,0.459171200000128,有利,k,1,0.879612000000634,yh,m,23,2024_Apr_19_1728,mian,2021.2.3,60.01738103401667,
,,,,,,1,1,pic/flanker5.png,pic/flanker3.png,a,k,pic/AffRest2.png,,,,,,,,,,,,,,,,,,,,,,,,,0,1,1,1,0,46,46,52,,,,907.7784376000018,None,906.5949551999984,907.7959699999992,a,1,0.6848172999998496,雄厚,k,1,0.5937174999999115,yh,m,23,2024_Apr_19_1728,mian,2021.2.3,60.01738103401667,
,,,,,,0,0,pic/flanker5.png,pic/flanker1.png,s,l,pic/AffRest2.png,,,,,,,,,,,,,,,,,,,,,,,,,0,1,1,1,0,47,47,59,,,,911.061222100001,None,909.8778160000002,911.0778853000011,s,1,0.440041800000472,禁止,l,1,0.5086279999995895,yh,m,23,2024_Apr_19_1728,mian,2021.2.3,60.01738103401667,
,,,,,,1,0,pic/flanker5.png,pic/flanker3.png,a,l,pic/AffRest2.png,,,,,,,,,,,,,,,,,,,,,,,,,0,1,1,1,0,48,48,7,,,,913.9608678000004,None,912.7774339999996,913.9775393999989,a,1,0.4079868999979226,消沉,l,1,0.5007535000004282,yh,m,23,2024_Apr_19_1728,mian,2021.2.3,60.01738103401667,
,,,,,,0,0,pic/flanker6.png,pic/flanker2.png,a,l,pic/AffRest2.png,,,,,,,,,,,,,,,,,,,,,,,,,0,1,1,1,0,49,49,33,,,,916.7607884999998,None,915.5774520000014,916.7772044999983,a,1,0.388002100000449,忧虑,l,1,0.48706980000133626,yh,m,23,2024_Apr_19_1728,mian,2021.2.3,60.01738103401667,
,,,,,,1,0,pic/flanker5.png,pic/flanker3.png,a,l,pic/AffRest2.png,,,,,,,,,,,,,,,,,,,,,,,,,0,1,1,1,0,50,50,47,,,,919.4770406999996,None,918.2938099999992,919.4935895000017,a,1,0.4581562999992457,逃避,l,1,0.5249250999986543,yh,m,23,2024_Apr_19_1728,mian,2021.2.3,60.01738103401667,
,,,,,,0,0,pic/flanker5.png,pic/flanker1.png,s,l,pic/AffRest2.png,,,,,,,,,,,,,,,,,,,,,,,,,0,1,1,1,0,51,51,43,,,,922.4100012000017,None,921.2268387000004,922.4267852999983,s,1,0.45652870000049006,损害,l,1,0.5051807999989251,yh,m,23,2024_Apr_19_1728,mian,2021.2.3,60.01738103401667,
,,,,,,0,0,pic/flanker5.png,pic/flanker1.png,s,l,pic/AffRest2.png,,,,,,,,,,,,,,,,,,,,,,,,,0,1,1,1,0,52,52,75,,,,925.3264557000002,None,924.1431773000004,925.3428783999989,s,1,0.5673959999985527,悲观,l,1,0.5450105000018084,yh,m,23,2024_Apr_19_1728,mian,2021.2.3,60.01738103401667,
,,,,,,0,0,pic/flanker5.png,pic/flanker1.png,s,l,pic/AffRest2.png,,,,,,,,,,,,,,,,,,,,,,,,,0,1,1,1,0,53,53,67,,,,928.3927211000009,None,927.2094216000005,928.4094949999999,s,1,0.6031192000009469,沮丧,l,1,0.46405959999901825,yh,m,23,2024_Apr_19_1728,mian,2021.2.3,60.01738103401667,
,,,,,,0,0,pic/flanker5.png,pic/flanker1.png,s,l,pic/AffRest2.png,,,,,,,,,,,,,,,,,,,,,,,,,0,1,1,1,0,54,54,3,,,,931.3598366000006,None,930.175975099999,931.375791800001,s,1,0.3923581999988528,嘲笑,l,1,0.47613320000164094,yh,m,23,2024_Apr_19_1728,mian,2021.2.3,60.01738103401667,
,,,,,,0,0,pic/flanker6.png,pic/flanker2.png,a,l,pic/AffRest2.png,,,,,,,,,,,,,,,,,,,,,,,,,0,1,1,1,0,55,55,1,,,,934.2253874999988,None,933.0424650999994,934.2420732999999,a,1,0.23227870000118855,郁闷,l,1,0.5061478999996325,yh,m,23,2024_Apr_19_1728,mian,2021.2.3,60.01738103401667,
,,,,,,1,0,pic/flanker5.png,pic/flanker3.png,a,l,pic/AffRest2.png,,,,,,,,,,,,,,,,,,,,,,,,,0,1,1,1,0,56,56,79,,,,937.0084327000004,None,935.8252906000016,937.0253026999999,a,1,0.3924600999998802,假冒,l,1,0.42682200000126613,yh,m,23,2024_Apr_19_1728,mian,2021.2.3,60.01738103401667,
,,,,,,0,1,pic/flanker6.png,pic/flanker2.png,a,k,pic/AffRest2.png,,,,,,,,,,,,,,,,,,,,,,,,,0,1,1,1,0,57,57,58,,,,939.6748335000011,None,938.4922270999996,939.6918202999987,a,1,0.30014089999895077,享受,k,1,0.6050291999999899,yh,m,23,2024_Apr_19_1728,mian,2021.2.3,60.01738103401667,
,,,,,,1,1,pic/flanker5.png,pic/flanker3.png,a,k,pic/AffRest2.png,,,,,,,,,,,,,,,,,,,,,,,,,0,1,1,1,0,58,58,68,,,,942.5249570999986,None,941.3416422000009,942.5413042,a,1,0.5029907999996794,典雅,k,1,0.6166212999996787,yh,m,23,2024_Apr_19_1728,mian,2021.2.3,60.01738103401667,
,,,,,,1,1,pic/flanker6.png,pic/flanker4.png,s,k,pic/AffRest2.png,,,,,,,,,,,,,,,,,,,,,,,,,0,1,1,1,0,59,59,78,,,,945.6411231999991,None,944.4578598000007,945.6577469000003,s,1,0.5708056000003126,鲜艳,k,1,0.4456179999979213,yh,m,23,2024_Apr_19_1728,mian,2021.2.3,60.01738103401667,
,,,,,,1,0,pic/flanker6.png,pic/flanker4.png,s,l,pic/AffRest2.png,,,,,,,,,,,,,,,,,,,,,,,,,0,1,1,1,0,60,60,37,,,,948.6074589999989,None,947.424012200001,948.6241611000005,s,1,0.5935065999983635,懒惰,l,1,0.5670234999997774,yh,m,23,2024_Apr_19_1728,mian,2021.2.3,60.01738103401667,
,,,,,,1,1,pic/flanker6.png,pic/flanker4.png,s,k,pic/AffRest2.png,,,,,,,,,,,,,,,,,,,,,,,,,0,1,1,1,0,61,61,46,,,,951.8071146000002,None,950.6238947999991,951.8235478999995,s,1,0.5627299999978277,珍藏,k,1,0.4945542999994359,yh,m,23,2024_Apr_19_1728,mian,2021.2.3,60.01738103401667,
,,,,,,0,0,pic/flanker6.png,pic/flanker2.png,a,l,pic/AffRest2.png,,,,,,,,,,,,,,,,,,,,,,,,,0,1,1,1,0,62,62,25,,,,954.8069710999989,None,953.6235860999986,954.8234401000009,a,1,0.5031944000002113,争吵,l,1,0.5341727000013634,yh,m,23,2024_Apr_19_1728,mian,2021.2.3,60.01738103401667,
,,,,,,0,0,pic/flanker5.png,pic/flanker1.png,s,l,pic/AffRest2.png,,,,,,,,,,,,,,,,,,,,,,,,,0,1,1,1,0,63,63,35,,,,957.7898118000012,None,956.6065423,957.8065938,s,1,0.4350118000002112,别扭,l,1,0.5432834999992338,yh,m,23,2024_Apr_19_1728,mian,2021.2.3,60.01738103401667,
,,,,,,1,1,pic/flanker5.png,pic/flanker3.png,a,k,pic/AffRest2.png,,,,,,,,,,,,,,,,,,,,,,,,,0,1,1,1,0,64,64,76,,,,960.7228493000002,None,959.5394760000017,960.7395021999982,a,1,0.5640079000004334,俊秀,k,1,0.6279282999967108,yh,m,23,2024_Apr_19_1728,mian,2021.2.3,60.01738103401667,
,,,,,,1,0,pic/flanker6.png,pic/flanker4.png,s,l,pic/AffRest2.png,,,,,,,,,,,,,,,,,,,,,,,,,0,1,1,1,0,65,65,61,,,,963.8558082000018,None,962.6726477999982,963.8726489000001,s,1,0.6695527999982005,厌恶,l,1,0.4963556000002427,yh,m,23,2024_Apr_19_1728,mian,2021.2.3,60.01738103401667,
,,,,,,0,1,pic/flanker5.png,pic/flanker1.png,s,k,pic/AffRest2.png,,,,,,,,,,,,,,,,,,,,,,,,,0,1,1,1,0,66,66,8,,,,966.9224116000005,None,965.7390874000012,966.9388436000008,s,1,0.5624654999992345,富丽,k,1,0.4452735999984725,yh,m,23,2024_Apr_19_1728,mian,2021.2.3,60.01738103401667,
,,,,,,0,0,pic/flanker6.png,pic/flanker2.png,a,l,pic/AffRest2.png,,,,,,,,,,,,,,,,,,,,,,,,,0,1,1,1,0,67,67,65,,,,969.9717950000013,None,968.7885395999983,969.9885552000014,a,1,0.3685994000006758,轻率,l,1,0.4488861999998335,yh,m,23,2024_Apr_19_1728,mian,2021.2.3,60.01738103401667,
,,,,,,0,0,pic/flanker6.png,pic/flanker2.png,a,l,pic/AffRest2.png,,,,,,,,,,,,,,,,,,,,,,,,,0,1,1,1,0,68,68,41,,,,972.672007000001,None,971.4884367000013,972.6881322000008,a,1,0.2441328999993857,浪费,l,1,0.6476719999991474,yh,m,23,2024_Apr_19_1728,mian,2021.2.3,60.01738103401667,
,,,,,,1,1,pic/flanker5.png,pic/flanker3.png,a,k,pic/AffRest2.png,,,,,,,,,,,,,,,,,,,,,,,,,0,1,1,1,0,69,69,60,,,,975.4549415000001,None,974.2716271999998,975.4716571999998,a,1,0.5352896000003966,顽强,k,1,0.8110280000000785,yh,m,23,2024_Apr_19_1728,mian,2021.2.3,60.01738103401667,
,,,,,,0,0,pic/flanker5.png,pic/flanker1.png,s,l,pic/AffRest2.png,,,,,,,,,,,,,,,,,,,,,,,,,0,1,1,1,0,70,70,51,,,,978.8545025999993,None,977.6716347000001,978.8709684999994,s,1,0.5434600000007777,焦躁,l,1,0.6606116000002658,yh,m,23,2024_Apr_19_1728,mian,2021.2.3,60.01738103401667,
,,,,,,0,1,pic/flanker6.png,pic/flanker2.png,a,k,pic/AffRest2.png,,,,,,,,,,,,,,,,,,,,,,,,,0,1,1,1,0,71,71,2,,,,982.1045855999982,None,980.9207625000017,982.1207891999984,a,1,0.845204699999158,优雅,k,1,0.9014959999985876,yh,m,23,2024_Apr_19_1728,mian,2021.2.3,60.01738103401667,
,,,,,,0,1,pic/flanker5.png,pic/flanker1.png,s,k,pic/AffRest2.png,,,,,,,,,,,,,,,,,,,,,,,,,0,1,1,1,0,72,72,0,,,,985.7535997000014,None,984.5706152999992,985.7703188000014,s,1,0.32478619999892544,前进,k,1,0.5304890000006708,yh,m,23,2024_Apr_19_1728,mian,2021.2.3,60.01738103401667,
,,,,,,0,1,pic/flanker5.png,pic/flanker1.png,s,k,pic/AffRest2.png,,,,,,,,,,,,,,,,,,,,,,,,,0,1,1,1,0,73,73,32,,,,988.6535934999993,None,987.4702971000006,988.6701137000018,s,1,0.5918891000001167,正直,k,1,0.561543799998617,yh,m,23,2024_Apr_19_1728,mian,2021.2.3,60.01738103401667,
,,,,,,0,1,pic/flanker5.png,pic/flanker1.png,s,k,pic/AffRest2.png,,,,,,,,,,,,,,,,,,,,,,,,,0,1,1,1,0,74,74,40,,,,991.8531674000005,None,990.6698031000014,991.870079100001,s,1,0.3815859999995155,奉献,k,1,0.5335583999985829,yh,m,23,2024_Apr_19_1728,mian,2021.2.3,60.01738103401667,
,,,,,,0,1,pic/flanker6.png,pic/flanker2.png,a,k,pic/AffRest2.png,,,,,,,,,,,,,,,,,,,,,,,,,0,1,1,1,0,75,75,34,,,,994.802835800001,None,993.6195632000017,994.8196074000007,a,1,0.8699291000011726,赞成,k,1,0.49628459999803454,yh,m,23,2024_Apr_19_1728,mian,2021.2.3,60.01738103401667,
,,,,,,0,1,pic/flanker6.png,pic/flanker2.png,a,k,pic/AffRest2.png,,,,,,,,,,,,,,,,,,,,,,,,,0,1,1,1,0,76,76,42,,,,998.0190898000001,None,996.8359025999998,998.0358588000017,a,1,0.39453449999928125,敬佩,k,1,0.46156559999872115,yh,m,23,2024_Apr_19_1728,mian,2021.2.3,60.01738103401667,
,,,,,,1,1,pic/flanker6.png,pic/flanker4.png,s,k,pic/AffRest2.png,,,,,,,,,,,,,,,,,,,,,,,,,0,1,1,1,0,77,77,54,,,,1000.7022203000015,None,999.5189480000008,1000.7190295,s,1,0.5067681000000448,畅销,k,1,0.5466276000006474,yh,m,23,2024_Apr_19_1728,mian,2021.2.3,60.01738103401667,
,,,,,,1,1,pic/flanker6.png,pic/flanker4.png,s,k,pic/AffRest2.png,,,,,,,,,,,,,,,,,,,,,,,,,0,1,1,1,0,78,78,6,,,,1003.7021281000016,None,1002.5191831999982,1003.7186084999994,s,1,0.583039999997709,如愿,k,1,0.5629384000021673,yh,m,23,2024_Apr_19_1728,mian,2021.2.3,60.01738103401667,
,,,,,,1,1,pic/flanker6.png,pic/flanker4.png,s,k,pic/AffRest2.png,,,,,,,,,,,,,,,,,,,,,,,,,0,1,1,1,0,79,79,22,,,,1006.7349529999992,None,1005.551668600001,1006.7514531999987,s,1,0.5225804000001517,精致,k,1,0.4403089999977965,yh,m,23,2024_Apr_19_1728,mian,2021.2.3,60.01738103401667,
,,,,,,,,,,,,pic/AffRest2.png,,,,,,,,,,,,,,,,,,,,,,,,,0,1,1,1,,,,,,,,,,,,,,,,,,,yh,m,23,2024_Apr_19_1728,mian,2021.2.3,60.01738103401667,
,,,,,,1,1,pic/flanker6.png,pic/flanker4.png,s,k,pic/AffRest3.png,,,,,,,,,,,,,,,,,,,,,,,,,0,2,2,2,0,0,0,30,,,,1012.0844900000011,None,1010.9004448999985,1012.1011590000016,s,1,1.079381799998373,瑰丽,k,1,1.1674309000009089,yh,m,23,2024_Apr_19_1728,mian,2021.2.3,60.01738103401667,
,,,,,,0,1,pic/flanker6.png,pic/flanker2.png,a,k,pic/AffRest3.png,,,,,,,,,,,,,,,,,,,,,,,,,0,2,2,2,0,1,1,66,,,,1016.3006645999994,None,1015.1173679999993,1016.317489699999,a,1,0.33211579999988317,舒畅,k,1,0.5580063000015798,yh,m,23,2024_Apr_19_1728,mian,2021.2.3,60.01738103401667,
,,,,,,0,1,pic/flanker5.png,pic/flanker1.png,s,k,pic/AffRest3.png,,,,,,,,,,,,,,,,,,,,,,,,,0,2,2,2,0,2,2,0,,,,1019.0338907000005,None,1017.8505444000002,1019.0502215000015,s,1,0.39968469999803347,丰满,k,1,0.4669411000031687,yh,m,23,2024_Apr_19_1728,mian,2021.2.3,60.01738103401667,
,,,,,,1,1,pic/flanker5.png,pic/flanker3.png,a,k,pic/AffRest3.png,,,,,,,,,,,,,,,,,,,,,,,,,0,2,2,2,0,3,3,60,,,,1021.8834537000002,None,1020.700154099999,1021.9002316000006,a,1,0.40053070000067237,旺盛,k,1,0.5509285000007367,yh,m,23,2024_Apr_19_1728,mian,2021.2.3,60.01738103401667,
,,,,,,1,1,pic/flanker5.png,pic/flanker3.png,a,k,pic/AffRest3.png,,,,,,,,,,,,,,,,,,,,,,,,,0,2,2,2,0,4,4,76,,,,1024.7162581999983,None,1023.5330235000001,1024.7331885999993,a,1,0.5905998999987787,精致,k,1,0.45266690000062226,yh,m,23,2024_Apr_19_1728,mian,2021.2.3,60.01738103401667,
,,,,,,0,0,pic/flanker5.png,pic/flanker1.png,s,l,pic/AffRest3.png,,,,,,,,,,,,,,,,,,,,,,,,,0,2,2,2,0,5,5,11,,,,1027.8144610000018,None,1026.631139699999,1027.831192900001,s,1,0.4055661999991571,失意,l,1,0.6552367000003869,yh,m,23,2024_Apr_19_1728,mian,2021.2.3,60.01738103401667,
,,,,,,0,1,pic/flanker6.png,pic/flanker2.png,a,k,pic/AffRest3.png,,,,,,,,,,,,,,,,,,,,,,,,,0,2,2,2,0,6,6,34,,,,1030.8659509999998,None,1029.6826943999986,1030.8823780999992,a,1,0.5927623999996285,鲜艳,k,1,0.4504335000019637,yh,m,23,2024_Apr_19_1728,mian,2021.2.3,60.01738103401667,
,,,,,,1,0,pic/flanker5.png,pic/flanker3.png,a,l,pic/AffRest3.png,,,,,,,,,,,,,,,,,,,,,,,,,0,2,2,2,0,7,7,15,,,,1033.965391400001,None,1032.7823830999987,1033.9821177999984,a,1,0.5302298999995401,懒惰,l,1,0.46712399999887566,yh,m,23,2024_Apr_19_1728,mian,2021.2.3,60.01738103401667,
,,,,,,1,0,pic/flanker6.png,pic/flanker4.png,s,l,pic/AffRest3.png,,,,,,,,,,,,,,,,,,,,,,,,,0,2,2,2,0,8,8,13,,,,1036.9988276000004,None,1035.8154202000005,1037.0151186000003,s,1,0.6234009999971022,排斥,l,1,0.5880189000017708,yh,m,23,2024_Apr_19_1728,mian,2021.2.3,60.01738103401667,
,,,,,,0,0,pic/flanker6.png,pic/flanker2.png,a,l,pic/AffRest3.png,,,,,,,,,,,,,,,,,,,,,,,,,0,2,2,2,0,9,9,57,,,,1040.2650617,None,1039.081747100001,1040.2814732000006,a,1,0.7907024999985879,堵塞,l,1,0.6972396000019216,yh,m,23,2024_Apr_19_1728,mian,2021.2.3,60.01738103401667,
,,,,,,1,1,pic/flanker5.png,pic/flanker3.png,a,k,pic/AffRest3.png,,,,,,,,,,,,,,,,,,,,,,,,,0,2,2,2,0,10,10,4,,,,1043.7979140999996,None,1042.6147502999993,1043.8145224,a,1,0.4603784999999334,清秀,k,1,0.517242099998839,yh,m,23,2024_Apr_19_1728,mian,2021.2.3,60.01738103401667,
,,,,,,0,1,pic/flanker5.png,pic/flanker1.png,s,k,pic/AffRest3.png,,,,,,,,,,,,,,,,,,,,,,,,,0,2,2,2,0,11,11,64,,,,1046.7641846000006,None,1045.5808902999997,1046.7809173999995,s,1,0.4111248000008345,珍藏,k,1,0.5064440999994986,yh,m,23,2024_Apr_19_1728,mian,2021.2.3,60.01738103401667,
,,,,,,1,0,pic/flanker6.png,pic/flanker4.png,s,l,pic/AffRest3.png,,,,,,,,,,,,,,,,,,,,,,,,,0,2,2,2,0,12,12,5,,,,1049.5304966000003,None,1048.3472862999988,1049.5473324999984,s,1,0.6027992999988783,禁止,l,1,0.5361718999993172,yh,m,23,2024_Apr_19_1728,mian,2021.2.3,60.01738103401667,
,,,,,,0,0,pic/flanker5.png,pic/flanker1.png,s,l,pic/AffRest3.png,,,,,,,,,,,,,,,,,,,,,,,,,0,2,2,2,0,13,13,75,,,,1052.7303530999998,None,1051.5471542000014,1052.7469431999998,s,1,0.7332800999975007,忧虑,l,1,0.5270951999991667,yh,m,23,2024_Apr_19_1728,mian,2021.2.3,60.01738103401667,
,,,,,,0,1,pic/flanker6.png,pic/flanker2.png,a,k,pic/AffRest3.png,,,,,,,,,,,,,,,,,,,,,,,,,0,2,2,2,0,14,14,18,,,,1055.8799755,None,1054.6966551000005,1055.8966232999992,a,1,0.2287501999999222,公平,k,1,0.45758910000222386,yh,m,23,2024_Apr_19_1728,mian,2021.2.3,60.01738103401667,
,,,,,,1,1,pic/flanker5.png,pic/flanker3.png,a,k,pic/AffRest3.png,,,,,,,,,,,,,,,,,,,,,,,,,0,2,2,2,0,15,15,36,,,,1058.5641609000013,None,1057.3796540000003,1058.5798504999984,a,1,0.5986910999999964,典雅,k,1,0.6050739999991492,yh,m,23,2024_Apr_19_1728,mian,2021.2.3,60.01738103401667,
,,,,,,1,0,pic/flanker5.png,pic/flanker3.png,a,l,pic/AffRest3.png,,,,,,,,,,,,,,,,,,,,,,,,,0,2,2,2,0,16,16,47,,,,1061.7461556999988,None,1060.5629649000002,1061.7630094000015,a,1,0.5561419000005117,杂乱,l,1,0.5024531000017305,yh,m,23,2024_Apr_19_1728,mian,2021.2.3,60.01738103401667,
,,,,,,1,0,pic/flanker5.png,pic/flanker3.png,a,l,pic/AffRest3.png,,,,,,,,,,,,,,,,,,,,,,,,,0,2,2,2,0,17,17,7,,,,1064.6625351000002,None,1063.4792449000015,1064.6790476999995,a,1,0.5897857000018121,处罚,l,1,0.541227899997466,yh,m,23,2024_Apr_19_1728,mian,2021.2.3,60.01738103401667,
,,,,,,0,0,pic/flanker5.png,pic/flanker1.png,s,l,pic/AffRest3.png,,,,,,,,,,,,,,,,,,,,,,,,,0,2,2,2,0,18,18,67,,,,1067.8453802000004,None,1066.6623168000006,1067.8620579000017,s,1,0.3786893999968015,冷笑,l,1,0.515723500000604,yh,m,23,2024_Apr_19_1728,mian,2021.2.3,60.01738103401667,
,,,,,,0,0,pic/flanker5.png,pic/flanker1.png,s,l,pic/AffRest3.png,,,,,,,,,,,,,,,,,,,,,,,,,0,2,2,2,0,19,19,3,,,,1070.6787022999997,None,1069.4952248000009,1070.6952807999987,s,1,0.5649658000002091,穷苦,l,1,0.6175399999992806,yh,m,23,2024_Apr_19_1728,mian,2021.2.3,60.01738103401667,
,,,,,,1,1,pic/flanker6.png,pic/flanker4.png,s,k,pic/AffRest3.png,,,,,,,,,,,,,,,,,,,,,,,,,0,2,2,2,0,20,20,38,,,,1073.7599477000003,None,1072.5768079000009,1073.7766650000012,s,1,0.4778068000014173,永恒,k,1,0.6270841000005021,yh,m,23,2024_Apr_19_1728,mian,2021.2.3,60.01738103401667,
,,,,,,0,0,pic/flanker6.png,pic/flanker2.png,a,l,pic/AffRest3.png,,,,,,,,,,,,,,,,,,,,,,,,,0,2,2,2,0,21,21,41,,,,1076.8613253000003,None,1075.6780467999997,1076.8777558000002,a,1,0.25322329999835347,别扭,l,1,0.5485074999996868,yh,m,23,2024_Apr_19_1728,mian,2021.2.3,60.01738103401667,
,,,,,,0,1,pic/flanker6.png,pic/flanker2.png,a,k,pic/AffRest3.png,,,,,,,,,,,,,,,,,,,,,,,,,0,2,2,2,0,22,22,50,,,,1079.5444566000006,None,1078.3611719,1079.5607984000017,a,1,0.35054309999759425,畅销,k,1,0.5850374999972701,yh,m,23,2024_Apr_19_1728,mian,2021.2.3,60.01738103401667,
,,,,,,0,1,pic/flanker5.png,pic/flanker1.png,s,k,pic/AffRest3.png,,,,,,,,,,,,,,,,,,,,,,,,,0,2,2,2,0,23,23,24,,,,1082.4774509000017,None,1081.2940894999992,1082.4945899999984,s,1,0.4110900000014226,羡慕,k,1,0.5726461000012932,yh,m,23,2024_Apr_19_1728,mian,2021.2.3,60.01738103401667,
,,,,,,1,0,pic/flanker5.png,pic/flanker3.png,a,l,pic/AffRest3.png,,,,,,,,,,,,,,,,,,,,,,,,,0,2,2,2,0,24,24,63,,,,1085.3603936,None,1084.1770966000004,1085.3774172000012,a,1,0.44015229999786243,黑暗,l,1,0.46409350000249106,yh,m,23,2024_Apr_19_1728,mian,2021.2.3,60.01738103401667,
,,,,,,0,0,pic/flanker6.png,pic/flanker2.png,a,l,pic/AffRest3.png,,,,,,,,,,,,,,,,,,,,,,,,,0,2,2,2,0,25,25,25,,,,1088.3098858000012,None,1087.1267364999985,1088.327032699999,a,1,0.2681229000008898,烦恼,l,1,0.45294300000023213,yh,m,23,2024_Apr_19_1728,mian,2021.2.3,60.01738103401667,
,,,,,,1,1,pic/flanker5.png,pic/flanker3.png,a,k,pic/AffRest3.png,,,,,,,,,,,,,,,,,,,,,,,,,0,2,2,2,0,26,26,12,,,,1091.0932046000016,None,1089.9098431999992,1091.1099590000013,a,1,0.5230219000004581,优雅,k,1,0.5882826999986719,yh,m,23,2024_Apr_19_1728,mian,2021.2.3,60.01738103401667,
,,,,,,1,1,pic/flanker6.png,pic/flanker4.png,s,k,pic/AffRest3.png,,,,,,,,,,,,,,,,,,,,,,,,,0,2,2,2,0,27,27,46,,,,1094.1093626000002,None,1092.9265367000007,1094.1262615999985,s,1,0.9939517999991949,吉祥,k,1,0.5025987999979407,yh,m,23,2024_Apr_19_1728,mian,2021.2.3,60.01738103401667,
,,,,,,1,0,pic/flanker6.png,pic/flanker4.png,s,l,pic/AffRest3.png,,,,,,,,,,,,,,,,,,,,,,,,,0,2,2,2,0,28,28,29,,,,1097.6090096000007,None,1096.4257853000017,1097.6260384999987,s,1,0.5585493999969913,损害,l,1,0.4411044000007678,yh,m,23,2024_Apr_19_1728,mian,2021.2.3,60.01738103401667,
,,,,,,1,1,pic/flanker6.png,pic/flanker4.png,s,k,pic/AffRest3.png,,,,,,,,,,,,,,,,,,,,,,,,,0,2,2,2,0,29,29,6,,,,1100.558757499999,None,1099.3755053999994,1100.5754960000013,s,1,0.5896281999994244,顽强,k,1,0.6046867999975802,yh,m,23,2024_Apr_19_1728,mian,2021.2.3,60.01738103401667,
,,,,,,1,0,pic/flanker5.png,pic/flanker3.png,a,l,pic/AffRest3.png,,,,,,,,,,,,,,,,,,,,,,,,,0,2,2,2,0,30,30,71,,,,1103.7594209000017,None,1102.5753818000012,1103.775164499999,a,1,0.4768155999990995,浪费,l,1,0.48938690000068163,yh,m,23,2024_Apr_19_1728,mian,2021.2.3,60.01738103401667,
,,,,,,0,1,pic/flanker5.png,pic/flanker1.png,s,k,pic/AffRest3.png,,,,,,,,,,,,,,,,,,,,,,,,,0,2,2,2,0,31,31,32,,,,1106.6414387000004,None,1105.4584028999998,1106.6583543000015,s,1,0.37089930000001914,富足,k,1,0.44533769999907236,yh,m,23,2024_Apr_19_1728,mian,2021.2.3,60.01738103401667,
,,,,,,1,1,pic/flanker5.png,pic/flanker3.png,a,k,pic/AffRest3.png,,,,,,,,,,,,,,,,,,,,,,,,,0,2,2,2,0,32,32,44,,,,1109.4582607999982,None,1108.2747845000013,1109.4746554999983,a,1,0.9806777999983751,富丽,k,1,0.53038480000032,yh,m,23,2024_Apr_19_1728,mian,2021.2.3,60.01738103401667,
,,,,,,1,0,pic/flanker5.png,pic/flanker3.png,a,l,pic/AffRest3.png,,,,,,,,,,,,,,,,,,,,,,,,,0,2,2,2,0,33,33,79,,,,1113.0078410999995,None,1111.8244104000005,1113.0240989999984,a,1,0.47778489999836893,假冒,l,1,0.47616460000062943,yh,m,23,2024_Apr_19_1728,mian,2021.2.3,60.01738103401667,
,,,,,,0,1,pic/flanker5.png,pic/flanker1.png,s,k,pic/AffRest3.png,,,,,,,,,,,,,,,,,,,,,,,,,0,2,2,2,0,34,34,56,,,,1115.8575867,None,1114.6740820000014,1115.8741823000018,s,1,0.3626784999978554,热切,k,1,0.4905157999965013,yh,m,23,2024_Apr_19_1728,mian,2021.2.3,60.01738103401667,
,,,,,,1,0,pic/flanker5.png,pic/flanker3.png,a,l,pic/AffRest3.png,,,,,,,,,,,,,,,,,,,,,,,,,0,2,2,2,0,35,35,23,,,,1118.7073520000013,None,1117.5237527999998,1118.7239455999988,a,1,0.435217800000828,沮丧,l,1,0.5426727999983996,yh,m,23,2024_Apr_19_1728,mian,2021.2.3,60.01738103401667,
,,,,,,1,1,pic/flanker6.png,pic/flanker4.png,s,k,pic/AffRest3.png,,,,,,,,,,,,,,,,,,,,,,,,,0,2,2,2,0,36,36,62,,,,1121.7234806000015,None,1120.540269699999,1121.7399982999996,s,1,0.5077912000015203,生动,k,1,0.4469019999996817,yh,m,23,2024_Apr_19_1728,mian,2021.2.3,60.01738103401667,
,,,,,,1,0,pic/flanker5.png,pic/flanker3.png,a,l,pic/AffRest3.png,,,,,,,,,,,,,,,,,,,,,,,,,0,2,2,2,0,37,37,55,,,,1124.5231777000008,None,1123.339909800001,1124.5396497000002,a,1,0.42146539999885135,闷热,l,1,0.3402305999989039,yh,m,23,2024_Apr_19_1728,mian,2021.2.3,60.01738103401667,
,,,,,,0,1,pic/flanker5.png,pic/flanker1.png,s,k,pic/AffRest3.png,,,,,,,,,,,,,,,,,,,,,,,,,0,2,2,2,0,38,38,72,,,,1127.3396097000004,None,1126.156268300001,1127.3562158999994,s,1,0.37349339999855147,圣洁,k,1,0.5065283000003546,yh,m,23,2024_Apr_19_1728,mian,2021.2.3,60.01738103401667,
,,,,,,0,0,pic/flanker5.png,pic/flanker1.png,s,l,pic/AffRest3.png,,,,,,,,,,,,,,,,,,,,,,,,,0,2,2,2,0,39,39,27,,,,1130.2224729000009,None,1129.0392883999994,1130.2392927,s,1,0.37412419999964186,心慌,l,1,0.39833440000074916,yh,m,23,2024_Apr_19_1728,mian,2021.2.3,60.01738103401667,
,,,,,,0,1,pic/flanker5.png,pic/flanker1.png,s,k,pic/AffRest3.png,,,,,,,,,,,,,,,,,,,,,,,,,0,2,2,2,0,40,40,8,,,,1132.8205716999983,None,1131.6395391000005,1132.8540567000018,s,1,0.48702330000014626,赞成,k,1,0.44253049999679206,yh,m,23,2024_Apr_19_1728,mian,2021.2.3,60.01738103401667,
,,,,,,0,1,pic/flanker6.png,pic/flanker2.png,a,k,pic/AffRest3.png,,,,,,,,,,,,,,,,,,,,,,,,,0,2,2,2,0,41,41,2,,,,1135.639373099999,None,1134.455458299999,1135.6551968999993,a,1,0.17966810000143596,有利,k,1,0.49300050000238116,yh,m,23,2024_Apr_19_1728,mian,2021.2.3,60.01738103401667,
,,,,,,1,1,pic/flanker5.png,pic/flanker3.png,a,k,pic/AffRest3.png,,,,,,,,,,,,,,,,,,,,,,,,,0,2,2,2,0,42,42,20,,,,1138.1720196999995,None,1136.9886093999994,1138.1888161999996,a,1,0.4512337000014668,廉洁,k,1,0.622395400001551,yh,m,23,2024_Apr_19_1728,mian,2021.2.3,60.01738103401667,
,,,,,,0,0,pic/flanker5.png,pic/flanker1.png,s,l,pic/AffRest3.png,,,,,,,,,,,,,,,,,,,,,,,,,0,2,2,2,0,43,43,35,,,,1141.1881906000017,None,1140.0050566999998,1141.2047996000001,s,1,0.6343790999999328,自卑,l,1,0.4592095000007248,yh,m,23,2024_Apr_19_1728,mian,2021.2.3,60.01738103401667,
,,,,,,0,0,pic/flanker5.png,pic/flanker1.png,s,l,pic/AffRest3.png,,,,,,,,,,,,,,,,,,,,,,,,,0,2,2,2,0,44,44,43,,,,1144.1714685000006,None,1142.9881064,1144.1880256000004,s,1,0.3478861000003235,逃避,l,1,0.42261190000135684,yh,m,23,2024_Apr_19_1728,mian,2021.2.3,60.01738103401667,
,,,,,,1,0,pic/flanker6.png,pic/flanker4.png,s,l,pic/AffRest3.png,,,,,,,,,,,,,,,,,,,,,,,,,0,2,2,2,0,45,45,69,,,,1146.9376473999982,None,1145.7544362000008,1146.9540506000012,s,1,0.6240125999975135,慌忙,l,1,0.4444861999982095,yh,m,23,2024_Apr_19_1728,mian,2021.2.3,60.01738103401667,
,,,,,,0,0,pic/flanker6.png,pic/flanker2.png,a,l,pic/AffRest3.png,,,,,,,,,,,,,,,,,,,,,,,,,0,2,2,2,0,46,46,17,,,,1149.9538156999988,None,1148.7705696000012,1149.9706775999985,a,1,0.7827324999998382,争吵,l,1,0.6325389000012365,yh,m,23,2024_Apr_19_1728,mian,2021.2.3,60.01738103401667,
,,,,,,1,0,pic/flanker6.png,pic/flanker4.png,s,l,pic/AffRest3.png,,,,,,,,,,,,,,,,,,,,,,,,,0,2,2,2,0,47,47,37,,,,1153.3202797999984,None,1152.1369932999987,1153.3370116000006,s,1,0.7409766999990097,轻率,l,1,0.5712469999998575,yh,m,23,2024_Apr_19_1728,mian,2021.2.3,60.01738103401667,
,,,,,,0,1,pic/flanker6.png,pic/flanker2.png,a,k,pic/AffRest3.png,,,,,,,,,,,,,,,,,,,,,,,,,0,2,2,2,0,48,48,58,,,,1156.586708499999,None,1155.4037423000009,1156.6036090000016,a,1,0.34840260000055423,正直,k,1,0.5066522999986773,yh,m,23,2024_Apr_19_1728,mian,2021.2.3,60.01738103401667,
,,,,,,0,1,pic/flanker6.png,pic/flanker2.png,a,k,pic/AffRest3.png,,,,,,,,,,,,,,,,,,,,,,,,,0,2,2,2,0,49,49,26,,,,1159.3862678000005,None,1158.2029521000004,1159.4029924999995,a,1,0.40711759999976493,留恋,k,1,0.4883015000013984,yh,m,23,2024_Apr_19_1728,mian,2021.2.3,60.01738103401667,
,,,,,,1,0,pic/flanker6.png,pic/flanker4.png,s,l,pic/AffRest3.png,,,,,,,,,,,,,,,,,,,,,,,,,0,2,2,2,0,50,50,45,,,,1162.1861573999995,None,1161.0028826999987,1162.2026165999996,s,1,0.45567960000335006,丢失,l,1,0.3387357999999949,yh,m,23,2024_Apr_19_1728,mian,2021.2.3,60.01738103401667,
,,,,,,0,0,pic/flanker6.png,pic/flanker2.png,a,l,pic/AffRest3.png,,,,,,,,,,,,,,,,,,,,,,,,,0,2,2,2,0,51,51,73,,,,1164.8857774999997,None,1163.702475099999,1164.9026349999986,a,1,0.3194662999994762,郁闷,l,1,0.7678383000020403,yh,m,23,2024_Apr_19_1728,mian,2021.2.3,60.01738103401667,
,,,,,,0,0,pic/flanker6.png,pic/flanker2.png,a,l,pic/AffRest3.png,,,,,,,,,,,,,,,,,,,,,,,,,0,2,2,2,0,52,52,1,,,,1167.8688938999985,None,1166.6855004999998,1167.8854420999996,a,1,0.38193519999913406,厌恶,l,1,0.41156020000198623,yh,m,23,2024_Apr_19_1728,mian,2021.2.3,60.01738103401667,
,,,,,,1,1,pic/flanker5.png,pic/flanker3.png,a,k,pic/AffRest3.png,,,,,,,,,,,,,,,,,,,,,,,,,0,2,2,2,0,53,53,28,,,,1170.501783399999,None,1169.3185907000006,1170.5186337000014,a,1,0.5839544000009482,俊秀,k,1,0.5516494999974384,yh,m,23,2024_Apr_19_1728,mian,2021.2.3,60.01738103401667,
,,,,,,0,1,pic/flanker5.png,pic/flanker1.png,s,k,pic/AffRest3.png,,,,,,,,,,,,,,,,,,,,,,,,,0,2,2,2,0,54,54,16,,,,1173.701864999999,None,1172.5184332999997,1173.7181203,s,1,0.4920821000014257,卓越,k,1,0.44293309999920893,yh,m,23,2024_Apr_19_1728,mian,2021.2.3,60.01738103401667,
,,,,,,0,0,pic/flanker6.png,pic/flanker2.png,a,l,pic/AffRest3.png,,,,,,,,,,,,,,,,,,,,,,,,,0,2,2,2,0,55,55,33,,,,1176.684545600001,None,1175.501327599999,1176.7012671999983,a,1,0.3046906999989005,怀疑,l,1,0.4383357000006072,yh,m,23,2024_Apr_19_1728,mian,2021.2.3,60.01738103401667,
,,,,,,1,0,pic/flanker5.png,pic/flanker3.png,a,l,pic/AffRest3.png,,,,,,,,,,,,,,,,,,,,,,,,,0,2,2,2,0,56,56,31,,,,1179.4853702,None,1178.3010175000018,1179.5010933999984,a,1,0.5761630999986664,鲁莽,l,1,0.43346350000138045,yh,m,23,2024_Apr_19_1728,mian,2021.2.3,60.01738103401667,
,,,,,,1,1,pic/flanker6.png,pic/flanker4.png,s,k,pic/AffRest3.png,,,,,,,,,,,,,,,,,,,,,,,,,0,2,2,2,0,57,57,54,,,,1182.4509194999991,None,1181.2674961000012,1182.4674029000016,s,1,0.6265901000006124,充裕,k,1,0.4760786000006192,yh,m,23,2024_Apr_19_1728,mian,2021.2.3,60.01738103401667,
,,,,,,1,1,pic/flanker6.png,pic/flanker4.png,s,k,pic/AffRest3.png,,,,,,,,,,,,,,,,,,,,,,,,,0,2,2,2,0,58,58,14,,,,1185.6005581999998,None,1184.4169145999986,1185.6171113000019,s,1,0.6487181000011333,敬佩,k,1,0.45353500000055647,yh,m,23,2024_Apr_19_1728,mian,2021.2.3,60.01738103401667,
,,,,,,0,1,pic/flanker5.png,pic/flanker1.png,s,k,pic/AffRest3.png,,,,,,,,,,,,,,,,,,,,,,,,,0,2,2,2,0,59,59,40,,,,1188.6001088999983,None,1187.4170320000012,1188.6177118999985,s,1,0.3477622999998857,诚恳,k,1,0.42358859999876586,yh,m,23,2024_Apr_19_1728,mian,2021.2.3,60.01738103401667,
,,,,,,1,0,pic/flanker6.png,pic/flanker4.png,s,l,pic/AffRest3.png,,,,,,,,,,,,,,,,,,,,,,,,,0,2,2,2,0,60,60,53,,,,1191.2664654,None,1190.0830666000002,1191.2838144999987,s,1,0.5501260999990336,消沉,l,1,0.5349432000002707,yh,m,23,2024_Apr_19_1728,mian,2021.2.3,60.01738103401667,
,,,,,,1,0,pic/flanker5.png,pic/flanker3.png,a,l,pic/AffRest3.png,,,,,,,,,,,,,,,,,,,,,,,,,0,2,2,2,0,61,61,39,,,,1194.414430500001,None,1193.2312265,1194.4311122,a,1,0.47318920000179787,缺乏,l,1,0.5189064000005601,yh,m,23,2024_Apr_19_1728,mian,2021.2.3,60.01738103401667,
,,,,,,0,0,pic/flanker5.png,pic/flanker1.png,s,l,pic/AffRest3.png,,,,,,,,,,,,,,,,,,,,,,,,,0,2,2,2,0,62,62,51,,,,1197.4666503000008,None,1196.2826781000003,1197.4824154000016,s,1,0.38651690000187955,伤心,l,1,0.6147842999998829,yh,m,23,2024_Apr_19_1728,mian,2021.2.3,60.01738103401667,
,,,,,,0,0,pic/flanker5.png,pic/flanker1.png,s,l,pic/AffRest3.png,,,,,,,,,,,,,,,,,,,,,,,,,0,2,2,2,0,63,63,59,,,,1200.4164686000004,None,1199.2323557000018,1200.4322551000005,s,1,0.5137205999999424,嘲笑,l,1,0.591197400000965,yh,m,23,2024_Apr_19_1728,mian,2021.2.3,60.01738103401667,
,,,,,,0,0,pic/flanker5.png,pic/flanker1.png,s,l,pic/AffRest3.png,,,,,,,,,,,,,,,,,,,,,,,,,0,2,2,2,0,64,64,19,,,,1203.4819558000017,None,1202.2985329000003,1203.4986123999988,s,1,0.42589050000242423,胡涂,l,1,0.4441404999997758,yh,m,23,2024_Apr_19_1728,mian,2021.2.3,60.01738103401667,
,,,,,,1,1,pic/flanker5.png,pic/flanker3.png,a,k,pic/AffRest3.png,,,,,,,,,,,,,,,,,,,,,,,,,0,2,2,2,0,65,65,68,,,,1206.1981256,None,1205.0151861999984,1206.2150379000013,a,1,0.46733630000017,如愿,k,1,0.547917799998686,yh,m,23,2024_Apr_19_1728,mian,2021.2.3,60.01738103401667,
,,,,,,0,0,pic/flanker6.png,pic/flanker2.png,a,l,pic/AffRest3.png,,,,,,,,,,,,,,,,,,,,,,,,,0,2,2,2,0,66,66,49,,,,1209.1146931000003,None,1207.9313948999988,1209.1317555999995,a,1,0.3792767000013555,撒谎,l,1,0.55061189999833,yh,m,23,2024_Apr_19_1728,mian,2021.2.3,60.01738103401667,
,,,,,,0,0,pic/flanker6.png,pic/flanker2.png,a,l,pic/AffRest3.png,,,,,,,,,,,,,,,,,,,,,,,,,0,2,2,2,0,67,67,9,,,,1212.064416000001,None,1210.8811840999988,1212.0810268999994,a,1,0.3540744999991148,罚款,l,1,0.5940556999994442,yh,m,23,2024_Apr_19_1728,mian,2021.2.3,60.01738103401667,
,,,,,,0,1,pic/flanker6.png,pic/flanker2.png,a,k,pic/AffRest3.png,,,,,,,,,,,,,,,,,,,,,,,,,0,2,2,2,0,68,68,10,,,,1214.9473771000012,None,1213.7640232999984,1214.964108600001,a,1,0.3589179000009608,豪放,k,1,0.527691600000253,yh,m,23,2024_Apr_19_1728,mian,2021.2.3,60.01738103401667,
,,,,,,1,1,pic/flanker6.png,pic/flanker4.png,s,k,pic/AffRest3.png,,,,,,,,,,,,,,,,,,,,,,,,,0,2,2,2,0,69,69,22,,,,1217.7811121000013,None,1216.5974406999994,1217.7974437999983,s,1,0.6414921999967191,前进,k,1,0.5409403999983624,yh,m,23,2024_Apr_19_1728,mian,2021.2.3,60.01738103401667,
,,,,,,1,0,pic/flanker6.png,pic/flanker4.png,s,l,pic/AffRest3.png,,,,,,,,,,,,,,,,,,,,,,,,,0,2,2,2,0,70,70,61,,,,1220.9467990999983,None,1219.7635711000003,1220.9635401000014,s,1,0.5234118000007584,悲观,l,1,0.4921227999984694,yh,m,23,2024_Apr_19_1728,mian,2021.2.3,60.01738103401667,
,,,,,,1,1,pic/flanker5.png,pic/flanker3.png,a,k,pic/AffRest3.png,,,,,,,,,,,,,,,,,,,,,,,,,0,2,2,2,0,71,71,52,,,,1223.813553,None,1222.630062600001,1223.8297133000015,a,1,0.599957499998709,秀丽,k,1,0.5341372000002593,yh,m,23,2024_Apr_19_1728,mian,2021.2.3,60.01738103401667,
,,,,,,1,0,pic/flanker6.png,pic/flanker4.png,s,l,pic/AffRest3.png,,,,,,,,,,,,,,,,,,,,,,,,,0,2,2,2,0,72,72,77,,,,1226.7961496999997,None,1225.6130238000005,1226.8130165000002,s,1,0.6643894000008004,落后,l,1,0.5268805999985489,yh,m,23,2024_Apr_19_1728,mian,2021.2.3,60.01738103401667,
,,,,,,1,1,pic/flanker6.png,pic/flanker4.png,s,k,pic/AffRest3.png,,,,,,,,,,,,,,,,,,,,,,,,,0,2,2,2,0,73,73,78,,,,1229.9792199000003,None,1228.7960190000013,1229.9956712999992,s,1,0.6776233999989927,爽朗,k,1,0.8249094999991939,yh,m,23,2024_Apr_19_1728,mian,2021.2.3,60.01738103401667,
,,,,,,0,1,pic/flanker5.png,pic/flanker1.png,s,k,pic/AffRest3.png,,,,,,,,,,,,,,,,,,,,,,,,,0,2,2,2,0,74,74,48,,,,1233.5303295000012,None,1232.3457124000015,1233.5454200999993,s,1,0.3467642999967211,振作,k,1,0.6991721000013058,yh,m,23,2024_Apr_19_1728,mian,2021.2.3,60.01738103401667,
,,,,,,1,0,pic/flanker6.png,pic/flanker4.png,s,l,pic/AffRest3.png,,,,,,,,,,,,,,,,,,,,,,,,,0,2,2,2,0,75,75,21,,,,1236.4952435999985,None,1235.3120116999999,1236.5119903999985,s,1,0.5779382999971858,孤单,l,1,0.5517232999991393,yh,m,23,2024_Apr_19_1728,mian,2021.2.3,60.01738103401667,
,,,,,,0,0,pic/flanker6.png,pic/flanker2.png,a,l,pic/AffRest3.png,,,,,,,,,,,,,,,,,,,,,,,,,0,2,2,2,0,76,76,65,,,,1239.494928,None,1238.3118479000004,1239.511806800001,a,1,0.8052182999999786,焦躁,l,1,0.5749891000014031,yh,m,23,2024_Apr_19_1728,mian,2021.2.3,60.01738103401667,
,,,,,,0,1,pic/flanker6.png,pic/flanker2.png,a,k,pic/AffRest3.png,,,,,,,,,,,,,,,,,,,,,,,,,0,2,2,2,0,77,77,42,,,,1242.7781538999989,None,1241.5947692000009,1242.794578699999,a,1,0.24752069999885862,奉献,k,1,0.6059294000006048,yh,m,23,2024_Apr_19_1728,mian,2021.2.3,60.01738103401667,
,,,,,,0,1,pic/flanker6.png,pic/flanker2.png,a,k,pic/AffRest3.png,,,,,,,,,,,,,,,,,,,,,,,,,0,2,2,2,0,78,78,74,,,,1245.494423600001,None,1244.3115271999995,1245.5108768999999,a,1,0.34012950000033015,享受,k,1,0.5215867000006256,yh,m,23,2024_Apr_19_1728,mian,2021.2.3,60.01738103401667,
,,,,,,1,1,pic/flanker6.png,pic/flanker4.png,s,k,pic/AffRest3.png,,,,,,,,,,,,,,,,,,,,,,,,,0,2,2,2,0,79,79,70,,,,1248.4105200000013,None,1247.2276749999983,1248.4273106,s,1,0.638070199998765,雄厚,k,1,0.6034158000002208,yh,m,23,2024_Apr_19_1728,mian,2021.2.3,60.01738103401667,
,,,,,,,,,,,,pic/AffRest3.png,,,,,,,,,,,,,,,,,,,,,,,,,0,2,2,2,,,,,,,,,,,,,,,,,,,yh,m,23,2024_Apr_19_1728,mian,2021.2.3,60.01738103401667,
,,,,,,1,0,pic/flanker6.png,pic/flanker4.png,s,l,pic/EndExp.PNG,,,,,,,,,,,,,,,,,,,,,,,,,0,3,3,3,0,0,0,69,,,,1253.9750391000016,None,1252.7918518000006,1253.9915613999983,s,1,0.5384107000027143,堵塞,l,1,0.5212803999966127,yh,m,23,2024_Apr_19_1728,mian,2021.2.3,60.01738103401667,
