target,反应类型,条件,truetarget,CorAns,Position,congruency,AffValue,flankerPic,targetPic,corAnsF,corAnsA,RestPic,returnPractice.thisRepN,returnPractice.thisTrialN,returnPractice.thisN,returnPractice.thisIndex,pracNum.thisRepN,pracNum.thisTrialN,pracNum.thisN,pracNum.thisIndex,NumBlock1.thisRepN,NumBlock1.thisTrialN,NumBlock1.thisN,NumBlock1.thisIndex,NumBlock2.thisRepN,NumBlock2.thisTrialN,NumBlock2.thisN,NumBlock2.thisIndex,returnPrac.thisRepN,returnPrac.thisTrialN,returnPrac.thisN,returnPrac.thisIndex,PracAff.thisRepN,PracAff.thisTrialN,PracAff.thisN,PracAff.thisIndex,AffBlocks.thisRepN,AffBlocks.thisTrialN,AffBlocks.thisN,AffBlocks.thisIndex,AffBlock1.thisRepN,AffBlock1.thisTrialN,AffBlock1.thisN,AffBlock1.thisIndex,respNum2word.keys,respNum2word.corr,respNum2word.rt,text.started,text.stopped,blank.started,blank.stopped,respFlanker.keys,respFlanker.corr,respFlanker.rt,thisWord,respAffWord.keys,respAffWord.corr,respAffWord.rt,姓名,性别,年龄（周岁）,date,expName,psychopyVersion,frameRate,
2A,1,1,A,a,"[0.2, 0.2]",,,,,,,,0,0,0,0,0,0,0,0,,,,,,,,,,,,,,,,,,,,,,,,,a,1,3.2425698999977612,,,,,,,,,,,,YM,f,20,2024_Apr_18_1509,mian,2021.2.3,59.97674101990075,
A9,1,2,A,a,"[-0.2, 0.2]",,,,,,,,0,0,0,0,0,1,1,1,,,,,,,,,,,,,,,,,,,,,,,,,a,1,0.5812691999999515,,,,,,,,,,,,YM,f,20,2024_Apr_18_1509,mian,2021.2.3,59.97674101990075,
7e,2,1,7.0,a,"[-0.2, -0.2]",,,,,,,,0,0,0,0,0,2,2,2,,,,,,,,,,,,,,,,,,,,,,,,,a,1,2.6672901999991154,,,,,,,,,,,,YM,f,20,2024_Apr_18_1509,mian,2021.2.3,59.97674101990075,
9H,2,2,9.0,a,"[0.2, -0.2]",,,,,,,,0,0,0,0,0,3,3,3,,,,,,,,,,,,,,,,,,,,,,,,,a,1,0.8353365000002668,,,,,,,,,,,,YM,f,20,2024_Apr_18_1509,mian,2021.2.3,59.97674101990075,
h4,1,1,h,l,"[0.2, 0.2]",,,,,,,,0,0,0,0,0,4,4,4,,,,,,,,,,,,,,,,,,,,,,,,,l,1,1.104259199997614,,,,,,,,,,,,YM,f,20,2024_Apr_18_1509,mian,2021.2.3,59.97674101990075,
4H,1,2,H,a,"[-0.2, 0.2]",,,,,,,,0,0,0,0,0,5,5,5,,,,,,,,,,,,,,,,,,,,,,,,,a,1,1.5341608999988239,,,,,,,,,,,,YM,f,20,2024_Apr_18_1509,mian,2021.2.3,59.97674101990075,
F8,2,1,8.0,l,"[-0.2, -0.2]",,,,,,,,0,0,0,0,0,6,6,6,,,,,,,,,,,,,,,,,,,,,,,,,l,1,1.7148046999973303,,,,,,,,,,,,YM,f,20,2024_Apr_18_1509,mian,2021.2.3,59.97674101990075,
h7,2,2,7.0,a,"[0.2, -0.2]",,,,,,,,0,0,0,0,0,7,7,7,,,,,,,,,,,,,,,,,,,,,,,,,a,1,0.6325689000004786,,,,,,,,,,,,YM,f,20,2024_Apr_18_1509,mian,2021.2.3,59.97674101990075,
5e,1,1,e,l,"[0.2, 0.2]",,,,,,,,0,0,0,0,0,8,8,8,,,,,,,,,,,,,,,,,,,,,,,,,l,1,1.037307000002329,,,,,,,,,,,,YM,f,20,2024_Apr_18_1509,mian,2021.2.3,59.97674101990075,
e8,1,2,e,l,"[-0.2, 0.2]",,,,,,,,0,0,0,0,0,9,9,9,,,,,,,,,,,,,,,,,,,,,,,,,l,1,1.1621283999993466,,,,,,,,,,,,YM,f,20,2024_Apr_18_1509,mian,2021.2.3,59.97674101990075,
4E,2,1,4.0,l,"[-0.2, -0.2]",,,,,,,,0,0,0,0,0,10,10,10,,,,,,,,,,,,,,,,,,,,,,,,,l,1,1.5055807000026107,,,,,,,,,,,,YM,f,20,2024_Apr_18_1509,mian,2021.2.3,59.97674101990075,
5H,2,2,5.0,a,"[0.2, -0.2]",,,,,,,,0,0,0,0,0,11,11,11,,,,,,,,,,,,,,,,,,,,,,,,,a,1,0.7712898999998288,,,,,,,,,,,,YM,f,20,2024_Apr_18_1509,mian,2021.2.3,59.97674101990075,
9E,1,1,E,a,"[0.2, 0.2]",,,,,,,,0,0,0,0,0,12,12,12,,,,,,,,,,,,,,,,,,,,,,,,,a,1,0.9075182000015047,,,,,,,,,,,,YM,f,20,2024_Apr_18_1509,mian,2021.2.3,59.97674101990075,
h9,1,2,h,l,"[-0.2, 0.2]",,,,,,,,0,0,0,0,0,13,13,13,,,,,,,,,,,,,,,,,,,,,,,,,l,1,0.7743712999981653,,,,,,,,,,,,YM,f,20,2024_Apr_18_1509,mian,2021.2.3,59.97674101990075,
2a,2,1,2.0,l,"[-0.2, -0.2]",,,,,,,,0,0,0,0,0,14,14,14,,,,,,,,,,,,,,,,,,,,,,,,,l,1,0.552823800000624,,,,,,,,,,,,YM,f,20,2024_Apr_18_1509,mian,2021.2.3,59.97674101990075,
e5,2,2,5.0,a,"[0.2, -0.2]",,,,,,,,0,0,0,0,0,15,15,15,,,,,,,,,,,,,,,,,,,,,,,,,a,1,0.5453552000035415,,,,,,,,,,,,YM,f,20,2024_Apr_18_1509,mian,2021.2.3,59.97674101990075,
A5,1,1,A,a,"[0.2, 0.2]",,,,,,,,0,0,0,0,0,16,16,16,,,,,,,,,,,,,,,,,,,,,,,,,a,1,0.5937183999994886,,,,,,,,,,,,YM,f,20,2024_Apr_18_1509,mian,2021.2.3,59.97674101990075,
a6,1,2,a,l,"[-0.2, 0.2]",,,,,,,,0,0,0,0,0,17,17,17,,,,,,,,,,,,,,,,,,,,,,,,,l,1,0.6137120000021241,,,,,,,,,,,,YM,f,20,2024_Apr_18_1509,mian,2021.2.3,59.97674101990075,
2F,2,1,2.0,l,"[-0.2, -0.2]",,,,,,,,0,0,0,0,0,18,18,18,,,,,,,,,,,,,,,,,,,,,,,,,l,1,1.0593336999991152,,,,,,,,,,,,YM,f,20,2024_Apr_18_1509,mian,2021.2.3,59.97674101990075,
e4,2,2,4.0,l,"[0.2, -0.2]",,,,,,,,0,0,0,0,0,19,19,19,,,,,,,,,,,,,,,,,,,,,,,,,a,0,0.6073071999999229,,,,,,,,,,,,YM,f,20,2024_Apr_18_1509,mian,2021.2.3,59.97674101990075,
,,,,,,,,,,,,,0,0,0,0,,,,,,,,,,,,,,,,,,,,,,,,,,,,,,,,,,,,,,,,,,,YM,f,20,2024_Apr_18_1509,mian,2021.2.3,59.97674101990075,
2A,1,1,A,a,"[0.2, 0.2]",,,,,,,,1,0,1,0,0,0,0,0,,,,,,,,,,,,,,,,,,,,,,,,,a,1,0.7854947999985598,,,,,,,,,,,,YM,f,20,2024_Apr_18_1509,mian,2021.2.3,59.97674101990075,
A9,1,2,A,a,"[-0.2, 0.2]",,,,,,,,1,0,1,0,0,1,1,1,,,,,,,,,,,,,,,,,,,,,,,,,a,1,0.4593237999979465,,,,,,,,,,,,YM,f,20,2024_Apr_18_1509,mian,2021.2.3,59.97674101990075,
7e,2,1,7.0,a,"[-0.2, -0.2]",,,,,,,,1,0,1,0,0,2,2,2,,,,,,,,,,,,,,,,,,,,,,,,,l,0,0.6758643000030133,,,,,,,,,,,,YM,f,20,2024_Apr_18_1509,mian,2021.2.3,59.97674101990075,
9H,2,2,9.0,a,"[0.2, -0.2]",,,,,,,,1,0,1,0,0,3,3,3,,,,,,,,,,,,,,,,,,,,,,,,,a,1,0.8742495999977109,,,,,,,,,,,,YM,f,20,2024_Apr_18_1509,mian,2021.2.3,59.97674101990075,
h4,1,1,h,l,"[0.2, 0.2]",,,,,,,,1,0,1,0,0,4,4,4,,,,,,,,,,,,,,,,,,,,,,,,,l,1,0.8599003000017547,,,,,,,,,,,,YM,f,20,2024_Apr_18_1509,mian,2021.2.3,59.97674101990075,
4H,1,2,H,a,"[-0.2, 0.2]",,,,,,,,1,0,1,0,0,5,5,5,,,,,,,,,,,,,,,,,,,,,,,,,a,1,1.218348900001729,,,,,,,,,,,,YM,f,20,2024_Apr_18_1509,mian,2021.2.3,59.97674101990075,
F8,2,1,8.0,l,"[-0.2, -0.2]",,,,,,,,1,0,1,0,0,6,6,6,,,,,,,,,,,,,,,,,,,,,,,,,l,1,0.5136012000002665,,,,,,,,,,,,YM,f,20,2024_Apr_18_1509,mian,2021.2.3,59.97674101990075,
h7,2,2,7.0,a,"[0.2, -0.2]",,,,,,,,1,0,1,0,0,7,7,7,,,,,,,,,,,,,,,,,,,,,,,,,a,1,1.0634544999993523,,,,,,,,,,,,YM,f,20,2024_Apr_18_1509,mian,2021.2.3,59.97674101990075,
5e,1,1,e,l,"[0.2, 0.2]",,,,,,,,1,0,1,0,0,8,8,8,,,,,,,,,,,,,,,,,,,,,,,,,l,1,1.5261844000015117,,,,,,,,,,,,YM,f,20,2024_Apr_18_1509,mian,2021.2.3,59.97674101990075,
e8,1,2,e,l,"[-0.2, 0.2]",,,,,,,,1,0,1,0,0,9,9,9,,,,,,,,,,,,,,,,,,,,,,,,,l,1,1.6664036000001943,,,,,,,,,,,,YM,f,20,2024_Apr_18_1509,mian,2021.2.3,59.97674101990075,
4E,2,1,4.0,l,"[-0.2, -0.2]",,,,,,,,1,0,1,0,0,10,10,10,,,,,,,,,,,,,,,,,,,,,,,,,l,1,1.0482865999983915,,,,,,,,,,,,YM,f,20,2024_Apr_18_1509,mian,2021.2.3,59.97674101990075,
5H,2,2,5.0,a,"[0.2, -0.2]",,,,,,,,1,0,1,0,0,11,11,11,,,,,,,,,,,,,,,,,,,,,,,,,a,1,0.4330012999998871,,,,,,,,,,,,YM,f,20,2024_Apr_18_1509,mian,2021.2.3,59.97674101990075,
9E,1,1,E,a,"[0.2, 0.2]",,,,,,,,1,0,1,0,0,12,12,12,,,,,,,,,,,,,,,,,,,,,,,,,a,1,0.7883610999997472,,,,,,,,,,,,YM,f,20,2024_Apr_18_1509,mian,2021.2.3,59.97674101990075,
h9,1,2,h,l,"[-0.2, 0.2]",,,,,,,,1,0,1,0,0,13,13,13,,,,,,,,,,,,,,,,,,,,,,,,,l,1,1.1508114999996906,,,,,,,,,,,,YM,f,20,2024_Apr_18_1509,mian,2021.2.3,59.97674101990075,
2a,2,1,2.0,l,"[-0.2, -0.2]",,,,,,,,1,0,1,0,0,14,14,14,,,,,,,,,,,,,,,,,,,,,,,,,l,1,1.6194896999986668,,,,,,,,,,,,YM,f,20,2024_Apr_18_1509,mian,2021.2.3,59.97674101990075,
e5,2,2,5.0,a,"[0.2, -0.2]",,,,,,,,1,0,1,0,0,15,15,15,,,,,,,,,,,,,,,,,,,,,,,,,a,1,0.8136421000017435,,,,,,,,,,,,YM,f,20,2024_Apr_18_1509,mian,2021.2.3,59.97674101990075,
A5,1,1,A,a,"[0.2, 0.2]",,,,,,,,1,0,1,0,0,16,16,16,,,,,,,,,,,,,,,,,,,,,,,,,a,1,0.6420002000013483,,,,,,,,,,,,YM,f,20,2024_Apr_18_1509,mian,2021.2.3,59.97674101990075,
a6,1,2,a,l,"[-0.2, 0.2]",,,,,,,,1,0,1,0,0,17,17,17,,,,,,,,,,,,,,,,,,,,,,,,,l,1,2.9840110000004643,,,,,,,,,,,,YM,f,20,2024_Apr_18_1509,mian,2021.2.3,59.97674101990075,
2F,2,1,2.0,l,"[-0.2, -0.2]",,,,,,,,1,0,1,0,0,18,18,18,,,,,,,,,,,,,,,,,,,,,,,,,l,1,0.7418106000004627,,,,,,,,,,,,YM,f,20,2024_Apr_18_1509,mian,2021.2.3,59.97674101990075,
e4,2,2,4.0,l,"[0.2, -0.2]",,,,,,,,1,0,1,0,0,19,19,19,,,,,,,,,,,,,,,,,,,,,,,,,l,1,1.0244022000006225,,,,,,,,,,,,YM,f,20,2024_Apr_18_1509,mian,2021.2.3,59.97674101990075,
,,,,,,,,,,,,,1,0,1,0,,,,,,,,,,,,,,,,,,,,,,,,,,,,,,,,,,,,,,,,,,,YM,f,20,2024_Apr_18_1509,mian,2021.2.3,59.97674101990075,
7h,1,1,h,l,"[0.2, 0.2]",,,,,,,,,,,,,,,,0,0,0,0,,,,,,,,,,,,,,,,,,,,,l,1,1.1753000999997312,,,,,,,,,,,,YM,f,20,2024_Apr_18_1509,mian,2021.2.3,59.97674101990075,
8F,1,2,F,a,"[-0.2, 0.2]",,,,,,,,,,,,,,,,0,1,1,1,,,,,,,,,,,,,,,,,,,,,a,1,1.1728110000003653,,,,,,,,,,,,YM,f,20,2024_Apr_18_1509,mian,2021.2.3,59.97674101990075,
8h,2,1,8.0,l,"[-0.2, -0.2]",,,,,,,,,,,,,,,,0,2,2,2,,,,,,,,,,,,,,,,,,,,,l,1,1.1115528000009363,,,,,,,,,,,,YM,f,20,2024_Apr_18_1509,mian,2021.2.3,59.97674101990075,
a2,2,2,2.0,l,"[0.2, -0.2]",,,,,,,,,,,,,,,,0,3,3,3,,,,,,,,,,,,,,,,,,,,,l,1,0.9957515999994939,,,,,,,,,,,,YM,f,20,2024_Apr_18_1509,mian,2021.2.3,59.97674101990075,
8f,1,1,f,l,"[0.2, 0.2]",,,,,,,,,,,,,,,,0,4,4,4,,,,,,,,,,,,,,,,,,,,,l,1,1.4992339000018546,,,,,,,,,,,,YM,f,20,2024_Apr_18_1509,mian,2021.2.3,59.97674101990075,
6a,1,2,a,l,"[-0.2, 0.2]",,,,,,,,,,,,,,,,0,5,5,5,,,,,,,,,,,,,,,,,,,,,l,1,0.6861110999998346,,,,,,,,,,,,YM,f,20,2024_Apr_18_1509,mian,2021.2.3,59.97674101990075,
h6,2,1,6.0,l,"[-0.2, -0.2]",,,,,,,,,,,,,,,,0,6,6,6,,,,,,,,,,,,,,,,,,,,,l,1,2.2155353000016476,,,,,,,,,,,,YM,f,20,2024_Apr_18_1509,mian,2021.2.3,59.97674101990075,
f9,2,2,9.0,a,"[0.2, -0.2]",,,,,,,,,,,,,,,,0,7,7,7,,,,,,,,,,,,,,,,,,,,,a,1,0.6429781000006187,,,,,,,,,,,,YM,f,20,2024_Apr_18_1509,mian,2021.2.3,59.97674101990075,
E4,1,1,E,a,"[0.2, 0.2]",,,,,,,,,,,,,,,,0,8,8,8,,,,,,,,,,,,,,,,,,,,,a,1,0.6397252999995544,,,,,,,,,,,,YM,f,20,2024_Apr_18_1509,mian,2021.2.3,59.97674101990075,
6e,1,2,e,l,"[-0.2, 0.2]",,,,,,,,,,,,,,,,0,9,9,9,,,,,,,,,,,,,,,,,,,,,l,1,2.166122300001007,,,,,,,,,,,,YM,f,20,2024_Apr_18_1509,mian,2021.2.3,59.97674101990075,
5G,2,1,5.0,a,"[-0.2, -0.2]",,,,,,,,,,,,,,,,0,10,10,10,,,,,,,,,,,,,,,,,,,,,l,0,1.2386089999999967,,,,,,,,,,,,YM,f,20,2024_Apr_18_1509,mian,2021.2.3,59.97674101990075,
h3,2,2,3.0,a,"[0.2, -0.2]",,,,,,,,,,,,,,,,0,11,11,11,,,,,,,,,,,,,,,,,,,,,a,1,0.8376085000018065,,,,,,,,,,,,YM,f,20,2024_Apr_18_1509,mian,2021.2.3,59.97674101990075,
9e,1,1,e,l,"[0.2, 0.2]",,,,,,,,,,,,,,,,0,12,12,12,,,,,,,,,,,,,,,,,,,,,l,1,1.1744723000010708,,,,,,,,,,,,YM,f,20,2024_Apr_18_1509,mian,2021.2.3,59.97674101990075,
a8,1,2,a,l,"[-0.2, 0.2]",,,,,,,,,,,,,,,,0,13,13,13,,,,,,,,,,,,,,,,,,,,,l,1,1.2326393000003009,,,,,,,,,,,,YM,f,20,2024_Apr_18_1509,mian,2021.2.3,59.97674101990075,
e8,2,1,8.0,l,"[-0.2, -0.2]",,,,,,,,,,,,,,,,0,14,14,14,,,,,,,,,,,,,,,,,,,,,l,1,1.7050147999980254,,,,,,,,,,,,YM,f,20,2024_Apr_18_1509,mian,2021.2.3,59.97674101990075,
3f,2,2,3.0,a,"[0.2, -0.2]",,,,,,,,,,,,,,,,0,15,15,15,,,,,,,,,,,,,,,,,,,,,a,1,1.192256099999213,,,,,,,,,,,,YM,f,20,2024_Apr_18_1509,mian,2021.2.3,59.97674101990075,
7f,1,1,f,l,"[0.2, 0.2]",,,,,,,,,,,,,,,,0,16,16,16,,,,,,,,,,,,,,,,,,,,,l,1,1.224433699997462,,,,,,,,,,,,YM,f,20,2024_Apr_18_1509,mian,2021.2.3,59.97674101990075,
a7,1,2,a,l,"[-0.2, 0.2]",,,,,,,,,,,,,,,,0,17,17,17,,,,,,,,,,,,,,,,,,,,,l,1,1.3379529999983788,,,,,,,,,,,,YM,f,20,2024_Apr_18_1509,mian,2021.2.3,59.97674101990075,
5A,2,1,5.0,a,"[-0.2, -0.2]",,,,,,,,,,,,,,,,0,18,18,18,,,,,,,,,,,,,,,,,,,,,a,1,1.6433967000011762,,,,,,,,,,,,YM,f,20,2024_Apr_18_1509,mian,2021.2.3,59.97674101990075,
8g,2,2,8.0,l,"[0.2, -0.2]",,,,,,,,,,,,,,,,0,19,19,19,,,,,,,,,,,,,,,,,,,,,l,1,0.6865878999997221,,,,,,,,,,,,YM,f,20,2024_Apr_18_1509,mian,2021.2.3,59.97674101990075,
9a,1,1,a,l,"[0.2, 0.2]",,,,,,,,,,,,,,,,0,20,20,20,,,,,,,,,,,,,,,,,,,,,l,1,1.4051558999999543,,,,,,,,,,,,YM,f,20,2024_Apr_18_1509,mian,2021.2.3,59.97674101990075,
f7,1,2,f,l,"[-0.2, 0.2]",,,,,,,,,,,,,,,,0,21,21,21,,,,,,,,,,,,,,,,,,,,,l,1,0.7960923999999068,,,,,,,,,,,,YM,f,20,2024_Apr_18_1509,mian,2021.2.3,59.97674101990075,
g9,2,1,9.0,a,"[-0.2, -0.2]",,,,,,,,,,,,,,,,0,22,22,22,,,,,,,,,,,,,,,,,,,,,a,1,0.6964291000003868,,,,,,,,,,,,YM,f,20,2024_Apr_18_1509,mian,2021.2.3,59.97674101990075,
3h,2,2,3.0,a,"[0.2, -0.2]",,,,,,,,,,,,,,,,0,23,23,23,,,,,,,,,,,,,,,,,,,,,a,1,0.9098159000022861,,,,,,,,,,,,YM,f,20,2024_Apr_18_1509,mian,2021.2.3,59.97674101990075,
E6,1,1,E,a,"[0.2, 0.2]",,,,,,,,,,,,,,,,0,24,24,24,,,,,,,,,,,,,,,,,,,,,a,1,1.6132337999988522,,,,,,,,,,,,YM,f,20,2024_Apr_18_1509,mian,2021.2.3,59.97674101990075,
F6,1,2,F,a,"[-0.2, 0.2]",,,,,,,,,,,,,,,,0,25,25,25,,,,,,,,,,,,,,,,,,,,,a,1,0.553308400001697,,,,,,,,,,,,YM,f,20,2024_Apr_18_1509,mian,2021.2.3,59.97674101990075,
3A,2,1,3.0,a,"[-0.2, -0.2]",,,,,,,,,,,,,,,,0,26,26,26,,,,,,,,,,,,,,,,,,,,,a,1,0.6648897000013676,,,,,,,,,,,,YM,f,20,2024_Apr_18_1509,mian,2021.2.3,59.97674101990075,
8H,2,2,8.0,l,"[0.2, -0.2]",,,,,,,,,,,,,,,,0,27,27,27,,,,,,,,,,,,,,,,,,,,,l,1,0.5511692000000039,,,,,,,,,,,,YM,f,20,2024_Apr_18_1509,mian,2021.2.3,59.97674101990075,
5a,1,1,a,l,"[0.2, 0.2]",,,,,,,,,,,,,,,,0,28,28,28,,,,,,,,,,,,,,,,,,,,,l,1,0.8215854999980365,,,,,,,,,,,,YM,f,20,2024_Apr_18_1509,mian,2021.2.3,59.97674101990075,
2h,1,2,h,l,"[-0.2, 0.2]",,,,,,,,,,,,,,,,0,29,29,29,,,,,,,,,,,,,,,,,,,,,l,1,0.5875515000006999,,,,,,,,,,,,YM,f,20,2024_Apr_18_1509,mian,2021.2.3,59.97674101990075,
e5,2,1,5.0,a,"[-0.2, -0.2]",,,,,,,,,,,,,,,,0,30,30,30,,,,,,,,,,,,,,,,,,,,,a,1,0.9722040000015113,,,,,,,,,,,,YM,f,20,2024_Apr_18_1509,mian,2021.2.3,59.97674101990075,
a3,2,2,3.0,a,"[0.2, -0.2]",,,,,,,,,,,,,,,,0,31,31,31,,,,,,,,,,,,,,,,,,,,,a,1,0.5535974000013084,,,,,,,,,,,,YM,f,20,2024_Apr_18_1509,mian,2021.2.3,59.97674101990075,
f3,1,1,f,l,"[0.2, 0.2]",,,,,,,,,,,,,,,,0,32,32,32,,,,,,,,,,,,,,,,,,,,,l,1,1.272891399999935,,,,,,,,,,,,YM,f,20,2024_Apr_18_1509,mian,2021.2.3,59.97674101990075,
2E,1,2,E,a,"[-0.2, 0.2]",,,,,,,,,,,,,,,,0,33,33,33,,,,,,,,,,,,,,,,,,,,,a,1,2.0035354000028747,,,,,,,,,,,,YM,f,20,2024_Apr_18_1509,mian,2021.2.3,59.97674101990075,
2H,2,1,2.0,l,"[-0.2, -0.2]",,,,,,,,,,,,,,,,0,34,34,34,,,,,,,,,,,,,,,,,,,,,l,1,0.8241101999992679,,,,,,,,,,,,YM,f,20,2024_Apr_18_1509,mian,2021.2.3,59.97674101990075,
H8,2,2,8.0,l,"[0.2, -0.2]",,,,,,,,,,,,,,,,0,35,35,35,,,,,,,,,,,,,,,,,,,,,l,1,0.5638879999969504,,,,,,,,,,,,YM,f,20,2024_Apr_18_1509,mian,2021.2.3,59.97674101990075,
9g,1,1,g,l,"[0.2, 0.2]",,,,,,,,,,,,,,,,0,36,36,36,,,,,,,,,,,,,,,,,,,,,l,1,0.49568030000227736,,,,,,,,,,,,YM,f,20,2024_Apr_18_1509,mian,2021.2.3,59.97674101990075,
5h,1,2,h,l,"[-0.2, 0.2]",,,,,,,,,,,,,,,,0,37,37,37,,,,,,,,,,,,,,,,,,,,,l,1,0.5613432999998622,,,,,,,,,,,,YM,f,20,2024_Apr_18_1509,mian,2021.2.3,59.97674101990075,
e4,2,1,4.0,l,"[-0.2, -0.2]",,,,,,,,,,,,,,,,0,38,38,38,,,,,,,,,,,,,,,,,,,,,l,1,0.5326391999988118,,,,,,,,,,,,YM,f,20,2024_Apr_18_1509,mian,2021.2.3,59.97674101990075,
9h,2,2,9.0,a,"[0.2, -0.2]",,,,,,,,,,,,,,,,0,39,39,39,,,,,,,,,,,,,,,,,,,,,a,1,0.6637162000006356,,,,,,,,,,,,YM,f,20,2024_Apr_18_1509,mian,2021.2.3,59.97674101990075,
G3,1,1,G,a,"[0.2, 0.2]",,,,,,,,,,,,,,,,0,40,40,40,,,,,,,,,,,,,,,,,,,,,a,1,1.9999629000012646,,,,,,,,,,,,YM,f,20,2024_Apr_18_1509,mian,2021.2.3,59.97674101990075,
9A,1,2,A,a,"[-0.2, 0.2]",,,,,,,,,,,,,,,,0,41,41,41,,,,,,,,,,,,,,,,,,,,,a,1,0.7828479999989213,,,,,,,,,,,,YM,f,20,2024_Apr_18_1509,mian,2021.2.3,59.97674101990075,
H5,2,1,5.0,a,"[-0.2, -0.2]",,,,,,,,,,,,,,,,0,42,42,42,,,,,,,,,,,,,,,,,,,,,a,1,3.4061870000005,,,,,,,,,,,,YM,f,20,2024_Apr_18_1509,mian,2021.2.3,59.97674101990075,
4e,2,2,4.0,l,"[0.2, -0.2]",,,,,,,,,,,,,,,,0,43,43,43,,,,,,,,,,,,,,,,,,,,,l,1,0.7078901999993832,,,,,,,,,,,,YM,f,20,2024_Apr_18_1509,mian,2021.2.3,59.97674101990075,
E2,1,1,E,a,"[0.2, 0.2]",,,,,,,,,,,,,,,,0,44,44,44,,,,,,,,,,,,,,,,,,,,,l,0,0.9625223000002734,,,,,,,,,,,,YM,f,20,2024_Apr_18_1509,mian,2021.2.3,59.97674101990075,
A5,1,2,A,a,"[-0.2, 0.2]",,,,,,,,,,,,,,,,0,45,45,45,,,,,,,,,,,,,,,,,,,,,a,1,0.660314799999469,,,,,,,,,,,,YM,f,20,2024_Apr_18_1509,mian,2021.2.3,59.97674101990075,
2A,2,1,2.0,l,"[-0.2, -0.2]",,,,,,,,,,,,,,,,0,46,46,46,,,,,,,,,,,,,,,,,,,,,l,1,1.0227525999980571,,,,,,,,,,,,YM,f,20,2024_Apr_18_1509,mian,2021.2.3,59.97674101990075,
6G,2,2,6.0,l,"[0.2, -0.2]",,,,,,,,,,,,,,,,0,47,47,47,,,,,,,,,,,,,,,,,,,,,l,1,0.9391738999984227,,,,,,,,,,,,YM,f,20,2024_Apr_18_1509,mian,2021.2.3,59.97674101990075,
H3,1,1,H,a,"[0.2, 0.2]",,,,,,,,,,,,,,,,0,48,48,48,,,,,,,,,,,,,,,,,,,,,a,1,1.2684255999993184,,,,,,,,,,,,YM,f,20,2024_Apr_18_1509,mian,2021.2.3,59.97674101990075,
H2,1,2,H,a,"[-0.2, 0.2]",,,,,,,,,,,,,,,,0,49,49,49,,,,,,,,,,,,,,,,,,,,,a,1,0.3944955000006303,,,,,,,,,,,,YM,f,20,2024_Apr_18_1509,mian,2021.2.3,59.97674101990075,
e9,2,1,9.0,a,"[-0.2, -0.2]",,,,,,,,,,,,,,,,0,50,50,50,,,,,,,,,,,,,,,,,,,,,a,1,0.8584841999982018,,,,,,,,,,,,YM,f,20,2024_Apr_18_1509,mian,2021.2.3,59.97674101990075,
2G,2,2,2.0,l,"[0.2, -0.2]",,,,,,,,,,,,,,,,0,51,51,51,,,,,,,,,,,,,,,,,,,,,l,1,0.6045483999987482,,,,,,,,,,,,YM,f,20,2024_Apr_18_1509,mian,2021.2.3,59.97674101990075,
4f,1,1,f,l,"[0.2, 0.2]",,,,,,,,,,,,,,,,0,52,52,52,,,,,,,,,,,,,,,,,,,,,l,1,3.1208728999990853,,,,,,,,,,,,YM,f,20,2024_Apr_18_1509,mian,2021.2.3,59.97674101990075,
H6,1,2,H,a,"[-0.2, 0.2]",,,,,,,,,,,,,,,,0,53,53,53,,,,,,,,,,,,,,,,,,,,,a,1,0.6621679000018048,,,,,,,,,,,,YM,f,20,2024_Apr_18_1509,mian,2021.2.3,59.97674101990075,
A4,2,1,4.0,l,"[-0.2, -0.2]",,,,,,,,,,,,,,,,0,54,54,54,,,,,,,,,,,,,,,,,,,,,l,1,0.6507299000004423,,,,,,,,,,,,YM,f,20,2024_Apr_18_1509,mian,2021.2.3,59.97674101990075,
3F,2,2,3.0,a,"[0.2, -0.2]",,,,,,,,,,,,,,,,0,55,55,55,,,,,,,,,,,,,,,,,,,,,l,0,0.7402397000005294,,,,,,,,,,,,YM,f,20,2024_Apr_18_1509,mian,2021.2.3,59.97674101990075,
7e,1,1,e,l,"[0.2, 0.2]",,,,,,,,,,,,,,,,0,56,56,56,,,,,,,,,,,,,,,,,,,,,l,1,2.9630247999994026,,,,,,,,,,,,YM,f,20,2024_Apr_18_1509,mian,2021.2.3,59.97674101990075,
F9,1,2,F,a,"[-0.2, 0.2]",,,,,,,,,,,,,,,,0,57,57,57,,,,,,,,,,,,,,,,,,,,,a,1,1.47826619999978,,,,,,,,,,,,YM,f,20,2024_Apr_18_1509,mian,2021.2.3,59.97674101990075,
e2,2,1,2.0,l,"[-0.2, -0.2]",,,,,,,,,,,,,,,,0,58,58,58,,,,,,,,,,,,,,,,,,,,,l,1,0.6253743000015675,,,,,,,,,,,,YM,f,20,2024_Apr_18_1509,mian,2021.2.3,59.97674101990075,
5F,2,2,5.0,a,"[0.2, -0.2]",,,,,,,,,,,,,,,,0,59,59,59,,,,,,,,,,,,,,,,,,,,,a,1,1.2497973999998067,,,,,,,,,,,,YM,f,20,2024_Apr_18_1509,mian,2021.2.3,59.97674101990075,
f6,1,1,f,l,"[0.2, 0.2]",,,,,,,,,,,,,,,,0,60,60,60,,,,,,,,,,,,,,,,,,,,,l,1,2.998054100000445,,,,,,,,,,,,YM,f,20,2024_Apr_18_1509,mian,2021.2.3,59.97674101990075,
7G,1,2,G,a,"[-0.2, 0.2]",,,,,,,,,,,,,,,,0,61,61,61,,,,,,,,,,,,,,,,,,,,,a,1,0.8415332000004128,,,,,,,,,,,,YM,f,20,2024_Apr_18_1509,mian,2021.2.3,59.97674101990075,
e6,2,1,6.0,l,"[-0.2, -0.2]",,,,,,,,,,,,,,,,0,62,62,62,,,,,,,,,,,,,,,,,,,,,l,1,0.7281591000028129,,,,,,,,,,,,YM,f,20,2024_Apr_18_1509,mian,2021.2.3,59.97674101990075,
3G,2,2,3.0,a,"[0.2, -0.2]",,,,,,,,,,,,,,,,0,63,63,63,,,,,,,,,,,,,,,,,,,,,a,1,0.566978899998503,,,,,,,,,,,,YM,f,20,2024_Apr_18_1509,mian,2021.2.3,59.97674101990075,
5E,1,1,E,a,"[0.2, 0.2]",,,,,,,,,,,,,,,,0,64,64,64,,,,,,,,,,,,,,,,,,,,,a,1,0.6890839000006963,,,,,,,,,,,,YM,f,20,2024_Apr_18_1509,mian,2021.2.3,59.97674101990075,
A6,1,2,A,a,"[-0.2, 0.2]",,,,,,,,,,,,,,,,0,65,65,65,,,,,,,,,,,,,,,,,,,,,a,1,0.7628429999967921,,,,,,,,,,,,YM,f,20,2024_Apr_18_1509,mian,2021.2.3,59.97674101990075,
E3,2,1,3.0,a,"[-0.2, -0.2]",,,,,,,,,,,,,,,,0,66,66,66,,,,,,,,,,,,,,,,,,,,,a,1,1.1036971000030462,,,,,,,,,,,,YM,f,20,2024_Apr_18_1509,mian,2021.2.3,59.97674101990075,
2f,2,2,2.0,l,"[0.2, -0.2]",,,,,,,,,,,,,,,,0,67,67,67,,,,,,,,,,,,,,,,,,,,,l,1,0.5072886999987531,,,,,,,,,,,,YM,f,20,2024_Apr_18_1509,mian,2021.2.3,59.97674101990075,
g3,1,1,g,l,"[0.2, 0.2]",,,,,,,,,,,,,,,,0,68,68,68,,,,,,,,,,,,,,,,,,,,,l,1,1.167927200000122,,,,,,,,,,,,YM,f,20,2024_Apr_18_1509,mian,2021.2.3,59.97674101990075,
E8,1,2,E,a,"[-0.2, 0.2]",,,,,,,,,,,,,,,,0,69,69,69,,,,,,,,,,,,,,,,,,,,,a,1,1.4756484999998065,,,,,,,,,,,,YM,f,20,2024_Apr_18_1509,mian,2021.2.3,59.97674101990075,
6g,2,1,6.0,l,"[-0.2, -0.2]",,,,,,,,,,,,,,,,0,70,70,70,,,,,,,,,,,,,,,,,,,,,l,1,0.9612632999997004,,,,,,,,,,,,YM,f,20,2024_Apr_18_1509,mian,2021.2.3,59.97674101990075,
5H,2,2,5.0,a,"[0.2, -0.2]",,,,,,,,,,,,,,,,0,71,71,71,,,,,,,,,,,,,,,,,,,,,a,1,0.718515299999126,,,,,,,,,,,,YM,f,20,2024_Apr_18_1509,mian,2021.2.3,59.97674101990075,
4A,1,1,A,a,"[0.2, 0.2]",,,,,,,,,,,,,,,,0,72,72,72,,,,,,,,,,,,,,,,,,,,,a,1,1.2111154999984137,,,,,,,,,,,,YM,f,20,2024_Apr_18_1509,mian,2021.2.3,59.97674101990075,
7F,1,2,F,a,"[-0.2, 0.2]",,,,,,,,,,,,,,,,0,73,73,73,,,,,,,,,,,,,,,,,,,,,a,1,0.9872957000006863,,,,,,,,,,,,YM,f,20,2024_Apr_18_1509,mian,2021.2.3,59.97674101990075,
6H,2,1,6.0,l,"[-0.2, -0.2]",,,,,,,,,,,,,,,,0,74,74,74,,,,,,,,,,,,,,,,,,,,,l,1,1.07844500000283,,,,,,,,,,,,YM,f,20,2024_Apr_18_1509,mian,2021.2.3,59.97674101990075,
3a,2,2,3.0,a,"[0.2, -0.2]",,,,,,,,,,,,,,,,0,75,75,75,,,,,,,,,,,,,,,,,,,,,a,1,0.7360112999995181,,,,,,,,,,,,YM,f,20,2024_Apr_18_1509,mian,2021.2.3,59.97674101990075,
9F,1,1,F,a,"[0.2, 0.2]",,,,,,,,,,,,,,,,0,76,76,76,,,,,,,,,,,,,,,,,,,,,a,1,3.036894699998811,,,,,,,,,,,,YM,f,20,2024_Apr_18_1509,mian,2021.2.3,59.97674101990075,
G7,1,2,G,a,"[-0.2, 0.2]",,,,,,,,,,,,,,,,0,77,77,77,,,,,,,,,,,,,,,,,,,,,a,1,0.7800077000028978,,,,,,,,,,,,YM,f,20,2024_Apr_18_1509,mian,2021.2.3,59.97674101990075,
a6,2,1,6.0,l,"[-0.2, -0.2]",,,,,,,,,,,,,,,,0,78,78,78,,,,,,,,,,,,,,,,,,,,,l,1,1.4464750999977696,,,,,,,,,,,,YM,f,20,2024_Apr_18_1509,mian,2021.2.3,59.97674101990075,
4h,2,2,4.0,l,"[0.2, -0.2]",,,,,,,,,,,,,,,,0,79,79,79,,,,,,,,,,,,,,,,,,,,,l,1,0.5869329999986803,,,,,,,,,,,,YM,f,20,2024_Apr_18_1509,mian,2021.2.3,59.97674101990075,
6A,1,1,A,a,"[0.2, 0.2]",,,,,,,,,,,,,,,,,,,,0,0,0,0,,,,,,,,,,,,,,,,,a,1,1.0036055999989912,,,,,,,,,,,,YM,f,20,2024_Apr_18_1509,mian,2021.2.3,59.97674101990075,
4H,1,2,H,a,"[-0.2, 0.2]",,,,,,,,,,,,,,,,,,,,0,1,1,1,,,,,,,,,,,,,,,,,a,1,0.3761330999986967,,,,,,,,,,,,YM,f,20,2024_Apr_18_1509,mian,2021.2.3,59.97674101990075,
3H,2,1,3.0,a,"[-0.2, -0.2]",,,,,,,,,,,,,,,,,,,,0,2,2,2,,,,,,,,,,,,,,,,,a,1,1.1895465000015975,,,,,,,,,,,,YM,f,20,2024_Apr_18_1509,mian,2021.2.3,59.97674101990075,
a9,2,2,9.0,a,"[0.2, -0.2]",,,,,,,,,,,,,,,,,,,,0,3,3,3,,,,,,,,,,,,,,,,,a,1,0.7141271000000415,,,,,,,,,,,,YM,f,20,2024_Apr_18_1509,mian,2021.2.3,59.97674101990075,
E7,1,1,E,a,"[0.2, 0.2]",,,,,,,,,,,,,,,,,,,,0,4,4,4,,,,,,,,,,,,,,,,,a,1,0.5597108000001754,,,,,,,,,,,,YM,f,20,2024_Apr_18_1509,mian,2021.2.3,59.97674101990075,
6h,1,2,h,l,"[-0.2, 0.2]",,,,,,,,,,,,,,,,,,,,0,5,5,5,,,,,,,,,,,,,,,,,l,1,0.6079664000026241,,,,,,,,,,,,YM,f,20,2024_Apr_18_1509,mian,2021.2.3,59.97674101990075,
8A,2,1,8.0,l,"[-0.2, -0.2]",,,,,,,,,,,,,,,,,,,,0,6,6,6,,,,,,,,,,,,,,,,,l,1,0.5257146999974793,,,,,,,,,,,,YM,f,20,2024_Apr_18_1509,mian,2021.2.3,59.97674101990075,
f5,2,2,5.0,a,"[0.2, -0.2]",,,,,,,,,,,,,,,,,,,,0,7,7,7,,,,,,,,,,,,,,,,,a,1,0.5326113000010082,,,,,,,,,,,,YM,f,20,2024_Apr_18_1509,mian,2021.2.3,59.97674101990075,
2a,1,1,a,l,"[0.2, 0.2]",,,,,,,,,,,,,,,,,,,,0,8,8,8,,,,,,,,,,,,,,,,,l,1,2.449376700002176,,,,,,,,,,,,YM,f,20,2024_Apr_18_1509,mian,2021.2.3,59.97674101990075,
F7,1,2,F,a,"[-0.2, 0.2]",,,,,,,,,,,,,,,,,,,,0,9,9,9,,,,,,,,,,,,,,,,,a,1,0.7140647999985958,,,,,,,,,,,,YM,f,20,2024_Apr_18_1509,mian,2021.2.3,59.97674101990075,
h2,2,1,2.0,l,"[-0.2, -0.2]",,,,,,,,,,,,,,,,,,,,0,10,10,10,,,,,,,,,,,,,,,,,l,1,0.8079655999972601,,,,,,,,,,,,YM,f,20,2024_Apr_18_1509,mian,2021.2.3,59.97674101990075,
F5,2,2,5.0,a,"[0.2, -0.2]",,,,,,,,,,,,,,,,,,,,0,11,11,11,,,,,,,,,,,,,,,,,a,1,0.6463211000009323,,,,,,,,,,,,YM,f,20,2024_Apr_18_1509,mian,2021.2.3,59.97674101990075,
A9,1,1,A,a,"[0.2, 0.2]",,,,,,,,,,,,,,,,,,,,0,12,12,12,,,,,,,,,,,,,,,,,a,1,1.2037245999999868,,,,,,,,,,,,YM,f,20,2024_Apr_18_1509,mian,2021.2.3,59.97674101990075,
3e,1,2,e,l,"[-0.2, 0.2]",,,,,,,,,,,,,,,,,,,,0,13,13,13,,,,,,,,,,,,,,,,,l,1,0.8737639999999374,,,,,,,,,,,,YM,f,20,2024_Apr_18_1509,mian,2021.2.3,59.97674101990075,
f8,2,1,8.0,l,"[-0.2, -0.2]",,,,,,,,,,,,,,,,,,,,0,14,14,14,,,,,,,,,,,,,,,,,l,1,0.6990616000002774,,,,,,,,,,,,YM,f,20,2024_Apr_18_1509,mian,2021.2.3,59.97674101990075,
G2,2,2,2.0,l,"[0.2, -0.2]",,,,,,,,,,,,,,,,,,,,0,15,15,15,,,,,,,,,,,,,,,,,l,1,0.49983609999981127,,,,,,,,,,,,YM,f,20,2024_Apr_18_1509,mian,2021.2.3,59.97674101990075,
F2,1,1,F,a,"[0.2, 0.2]",,,,,,,,,,,,,,,,,,,,0,16,16,16,,,,,,,,,,,,,,,,,a,1,0.761068099996919,,,,,,,,,,,,YM,f,20,2024_Apr_18_1509,mian,2021.2.3,59.97674101990075,
5e,1,2,e,l,"[-0.2, 0.2]",,,,,,,,,,,,,,,,,,,,0,17,17,17,,,,,,,,,,,,,,,,,l,1,0.4528752000005625,,,,,,,,,,,,YM,f,20,2024_Apr_18_1509,mian,2021.2.3,59.97674101990075,
A3,2,1,3.0,a,"[-0.2, -0.2]",,,,,,,,,,,,,,,,,,,,0,18,18,18,,,,,,,,,,,,,,,,,a,1,0.8071636000022409,,,,,,,,,,,,YM,f,20,2024_Apr_18_1509,mian,2021.2.3,59.97674101990075,
4g,2,2,4.0,l,"[0.2, -0.2]",,,,,,,,,,,,,,,,,,,,0,19,19,19,,,,,,,,,,,,,,,,,l,1,0.6287918999987596,,,,,,,,,,,,YM,f,20,2024_Apr_18_1509,mian,2021.2.3,59.97674101990075,
h7,1,1,h,l,"[0.2, 0.2]",,,,,,,,,,,,,,,,,,,,0,20,20,20,,,,,,,,,,,,,,,,,l,1,0.6631917000013345,,,,,,,,,,,,YM,f,20,2024_Apr_18_1509,mian,2021.2.3,59.97674101990075,
3g,1,2,g,l,"[-0.2, 0.2]",,,,,,,,,,,,,,,,,,,,0,21,21,21,,,,,,,,,,,,,,,,,l,1,0.7961106999973708,,,,,,,,,,,,YM,f,20,2024_Apr_18_1509,mian,2021.2.3,59.97674101990075,
8a,2,1,8.0,l,"[-0.2, -0.2]",,,,,,,,,,,,,,,,,,,,0,22,22,22,,,,,,,,,,,,,,,,,l,1,0.5931376000007731,,,,,,,,,,,,YM,f,20,2024_Apr_18_1509,mian,2021.2.3,59.97674101990075,
4E,2,2,4.0,l,"[0.2, -0.2]",,,,,,,,,,,,,,,,,,,,0,23,23,23,,,,,,,,,,,,,,,,,l,1,0.5915048000024399,,,,,,,,,,,,YM,f,20,2024_Apr_18_1509,mian,2021.2.3,59.97674101990075,
E5,1,1,E,a,"[0.2, 0.2]",,,,,,,,,,,,,,,,,,,,0,24,24,24,,,,,,,,,,,,,,,,,a,1,2.3318557999991754,,,,,,,,,,,,YM,f,20,2024_Apr_18_1509,mian,2021.2.3,59.97674101990075,
g6,1,2,g,l,"[-0.2, 0.2]",,,,,,,,,,,,,,,,,,,,0,25,25,25,,,,,,,,,,,,,,,,,l,1,0.7666587999992771,,,,,,,,,,,,YM,f,20,2024_Apr_18_1509,mian,2021.2.3,59.97674101990075,
2e,2,1,2.0,l,"[-0.2, -0.2]",,,,,,,,,,,,,,,,,,,,0,26,26,26,,,,,,,,,,,,,,,,,l,1,0.6017393000001903,,,,,,,,,,,,YM,f,20,2024_Apr_18_1509,mian,2021.2.3,59.97674101990075,
h8,2,2,8.0,l,"[0.2, -0.2]",,,,,,,,,,,,,,,,,,,,0,27,27,27,,,,,,,,,,,,,,,,,l,1,2.146175400001084,,,,,,,,,,,,YM,f,20,2024_Apr_18_1509,mian,2021.2.3,59.97674101990075,
G6,1,1,G,a,"[0.2, 0.2]",,,,,,,,,,,,,,,,,,,,0,28,28,28,,,,,,,,,,,,,,,,,a,1,2.081648600000335,,,,,,,,,,,,YM,f,20,2024_Apr_18_1509,mian,2021.2.3,59.97674101990075,
a4,1,2,a,l,"[-0.2, 0.2]",,,,,,,,,,,,,,,,,,,,0,29,29,29,,,,,,,,,,,,,,,,,l,1,1.1390301000028558,,,,,,,,,,,,YM,f,20,2024_Apr_18_1509,mian,2021.2.3,59.97674101990075,
9H,2,1,9.0,a,"[-0.2, -0.2]",,,,,,,,,,,,,,,,,,,,0,30,30,30,,,,,,,,,,,,,,,,,a,1,1.8669644000001426,,,,,,,,,,,,YM,f,20,2024_Apr_18_1509,mian,2021.2.3,59.97674101990075,
7H,2,2,7.0,a,"[0.2, -0.2]",,,,,,,,,,,,,,,,,,,,0,31,31,31,,,,,,,,,,,,,,,,,a,1,0.8372288999999,,,,,,,,,,,,YM,f,20,2024_Apr_18_1509,mian,2021.2.3,59.97674101990075,
9f,1,1,f,l,"[0.2, 0.2]",,,,,,,,,,,,,,,,,,,,0,32,32,32,,,,,,,,,,,,,,,,,l,1,1.7797810999982175,,,,,,,,,,,,YM,f,20,2024_Apr_18_1509,mian,2021.2.3,59.97674101990075,
8E,1,2,E,a,"[-0.2, 0.2]",,,,,,,,,,,,,,,,,,,,0,33,33,33,,,,,,,,,,,,,,,,,a,1,0.5078833999978087,,,,,,,,,,,,YM,f,20,2024_Apr_18_1509,mian,2021.2.3,59.97674101990075,
A2,2,1,2.0,l,"[-0.2, -0.2]",,,,,,,,,,,,,,,,,,,,0,34,34,34,,,,,,,,,,,,,,,,,l,1,1.5216057999969053,,,,,,,,,,,,YM,f,20,2024_Apr_18_1509,mian,2021.2.3,59.97674101990075,
H7,2,2,7.0,a,"[0.2, -0.2]",,,,,,,,,,,,,,,,,,,,0,35,35,35,,,,,,,,,,,,,,,,,a,1,0.5478536000009626,,,,,,,,,,,,YM,f,20,2024_Apr_18_1509,mian,2021.2.3,59.97674101990075,
h9,1,1,h,l,"[0.2, 0.2]",,,,,,,,,,,,,,,,,,,,0,36,36,36,,,,,,,,,,,,,,,,,l,1,0.988096900000528,,,,,,,,,,,,YM,f,20,2024_Apr_18_1509,mian,2021.2.3,59.97674101990075,
8G,1,2,G,a,"[-0.2, 0.2]",,,,,,,,,,,,,,,,,,,,0,37,37,37,,,,,,,,,,,,,,,,,a,1,0.8623226999989129,,,,,,,,,,,,YM,f,20,2024_Apr_18_1509,mian,2021.2.3,59.97674101990075,
H4,2,1,4.0,l,"[-0.2, -0.2]",,,,,,,,,,,,,,,,,,,,0,38,38,38,,,,,,,,,,,,,,,,,l,1,0.8799386999999115,,,,,,,,,,,,YM,f,20,2024_Apr_18_1509,mian,2021.2.3,59.97674101990075,
A8,2,2,8.0,l,"[0.2, -0.2]",,,,,,,,,,,,,,,,,,,,0,39,39,39,,,,,,,,,,,,,,,,,l,1,0.46326720000070054,,,,,,,,,,,,YM,f,20,2024_Apr_18_1509,mian,2021.2.3,59.97674101990075,
g7,1,1,g,l,"[0.2, 0.2]",,,,,,,,,,,,,,,,,,,,0,40,40,40,,,,,,,,,,,,,,,,,l,1,0.7111070999999356,,,,,,,,,,,,YM,f,20,2024_Apr_18_1509,mian,2021.2.3,59.97674101990075,
H9,1,2,H,a,"[-0.2, 0.2]",,,,,,,,,,,,,,,,,,,,0,41,41,41,,,,,,,,,,,,,,,,,a,1,0.5242921999997634,,,,,,,,,,,,YM,f,20,2024_Apr_18_1509,mian,2021.2.3,59.97674101990075,
9E,2,1,9.0,a,"[-0.2, -0.2]",,,,,,,,,,,,,,,,,,,,0,42,42,42,,,,,,,,,,,,,,,,,a,1,0.5325051999971038,,,,,,,,,,,,YM,f,20,2024_Apr_18_1509,mian,2021.2.3,59.97674101990075,
a5,2,2,5.0,a,"[0.2, -0.2]",,,,,,,,,,,,,,,,,,,,0,43,43,43,,,,,,,,,,,,,,,,,a,1,0.5305525000003399,,,,,,,,,,,,YM,f,20,2024_Apr_18_1509,mian,2021.2.3,59.97674101990075,
3E,1,1,E,a,"[0.2, 0.2]",,,,,,,,,,,,,,,,,,,,0,44,44,44,,,,,,,,,,,,,,,,,a,1,0.6705069000017829,,,,,,,,,,,,YM,f,20,2024_Apr_18_1509,mian,2021.2.3,59.97674101990075,
6f,1,2,f,l,"[-0.2, 0.2]",,,,,,,,,,,,,,,,,,,,0,45,45,45,,,,,,,,,,,,,,,,,l,1,0.6045809999995981,,,,,,,,,,,,YM,f,20,2024_Apr_18_1509,mian,2021.2.3,59.97674101990075,
g8,2,1,8.0,l,"[-0.2, -0.2]",,,,,,,,,,,,,,,,,,,,0,46,46,46,,,,,,,,,,,,,,,,,a,0,1.9168729999983043,,,,,,,,,,,,YM,f,20,2024_Apr_18_1509,mian,2021.2.3,59.97674101990075,
4F,2,2,4.0,l,"[0.2, -0.2]",,,,,,,,,,,,,,,,,,,,0,47,47,47,,,,,,,,,,,,,,,,,l,1,1.4719735999969998,,,,,,,,,,,,YM,f,20,2024_Apr_18_1509,mian,2021.2.3,59.97674101990075,
4a,1,1,a,l,"[0.2, 0.2]",,,,,,,,,,,,,,,,,,,,0,48,48,48,,,,,,,,,,,,,,,,,a,0,0.6525254000007408,,,,,,,,,,,,YM,f,20,2024_Apr_18_1509,mian,2021.2.3,59.97674101990075,
e3,1,2,e,l,"[-0.2, 0.2]",,,,,,,,,,,,,,,,,,,,0,49,49,49,,,,,,,,,,,,,,,,,l,1,1.7329868999986502,,,,,,,,,,,,YM,f,20,2024_Apr_18_1509,mian,2021.2.3,59.97674101990075,
5g,2,1,5.0,a,"[-0.2, -0.2]",,,,,,,,,,,,,,,,,,,,0,50,50,50,,,,,,,,,,,,,,,,,a,1,1.129166599999735,,,,,,,,,,,,YM,f,20,2024_Apr_18_1509,mian,2021.2.3,59.97674101990075,
f4,2,2,4.0,l,"[0.2, -0.2]",,,,,,,,,,,,,,,,,,,,0,51,51,51,,,,,,,,,,,,,,,,,l,1,1.388908299999457,,,,,,,,,,,,YM,f,20,2024_Apr_18_1509,mian,2021.2.3,59.97674101990075,
6E,1,1,E,a,"[0.2, 0.2]",,,,,,,,,,,,,,,,,,,,0,52,52,52,,,,,,,,,,,,,,,,,a,1,1.2508300999979838,,,,,,,,,,,,YM,f,20,2024_Apr_18_1509,mian,2021.2.3,59.97674101990075,
7A,1,2,A,a,"[-0.2, 0.2]",,,,,,,,,,,,,,,,,,,,0,53,53,53,,,,,,,,,,,,,,,,,a,1,0.49122930000157794,,,,,,,,,,,,YM,f,20,2024_Apr_18_1509,mian,2021.2.3,59.97674101990075,
F4,2,1,4.0,l,"[-0.2, -0.2]",,,,,,,,,,,,,,,,,,,,0,54,54,54,,,,,,,,,,,,,,,,,l,1,1.0521332999996957,,,,,,,,,,,,YM,f,20,2024_Apr_18_1509,mian,2021.2.3,59.97674101990075,
2g,2,2,2.0,l,"[0.2, -0.2]",,,,,,,,,,,,,,,,,,,,0,55,55,55,,,,,,,,,,,,,,,,,l,1,0.5646080000005895,,,,,,,,,,,,YM,f,20,2024_Apr_18_1509,mian,2021.2.3,59.97674101990075,
7E,1,1,E,a,"[0.2, 0.2]",,,,,,,,,,,,,,,,,,,,0,56,56,56,,,,,,,,,,,,,,,,,a,1,2.1609637000001385,,,,,,,,,,,,YM,f,20,2024_Apr_18_1509,mian,2021.2.3,59.97674101990075,
G4,1,2,G,a,"[-0.2, 0.2]",,,,,,,,,,,,,,,,,,,,0,57,57,57,,,,,,,,,,,,,,,,,a,1,0.44548650000069756,,,,,,,,,,,,YM,f,20,2024_Apr_18_1509,mian,2021.2.3,59.97674101990075,
2F,2,1,2.0,l,"[-0.2, -0.2]",,,,,,,,,,,,,,,,,,,,0,58,58,58,,,,,,,,,,,,,,,,,l,1,1.8296869000005245,,,,,,,,,,,,YM,f,20,2024_Apr_18_1509,mian,2021.2.3,59.97674101990075,
E9,2,2,9.0,a,"[0.2, -0.2]",,,,,,,,,,,,,,,,,,,,0,59,59,59,,,,,,,,,,,,,,,,,a,1,0.6917847999975493,,,,,,,,,,,,YM,f,20,2024_Apr_18_1509,mian,2021.2.3,59.97674101990075,
5f,1,1,f,l,"[0.2, 0.2]",,,,,,,,,,,,,,,,,,,,0,60,60,60,,,,,,,,,,,,,,,,,l,1,1.53555150000102,,,,,,,,,,,,YM,f,20,2024_Apr_18_1509,mian,2021.2.3,59.97674101990075,
e7,1,2,e,l,"[-0.2, 0.2]",,,,,,,,,,,,,,,,,,,,0,61,61,61,,,,,,,,,,,,,,,,,l,1,0.774645799996506,,,,,,,,,,,,YM,f,20,2024_Apr_18_1509,mian,2021.2.3,59.97674101990075,
f2,2,1,2.0,l,"[-0.2, -0.2]",,,,,,,,,,,,,,,,,,,,0,62,62,62,,,,,,,,,,,,,,,,,l,1,0.6633593000005931,,,,,,,,,,,,YM,f,20,2024_Apr_18_1509,mian,2021.2.3,59.97674101990075,
G9,2,2,9.0,a,"[0.2, -0.2]",,,,,,,,,,,,,,,,,,,,0,63,63,63,,,,,,,,,,,,,,,,,a,1,0.7407882999978028,,,,,,,,,,,,YM,f,20,2024_Apr_18_1509,mian,2021.2.3,59.97674101990075,
7g,1,1,g,l,"[0.2, 0.2]",,,,,,,,,,,,,,,,,,,,0,64,64,64,,,,,,,,,,,,,,,,,l,1,1.0520115999970585,,,,,,,,,,,,YM,f,20,2024_Apr_18_1509,mian,2021.2.3,59.97674101990075,
F8,1,2,F,a,"[-0.2, 0.2]",,,,,,,,,,,,,,,,,,,,0,65,65,65,,,,,,,,,,,,,,,,,a,1,0.6626058000001649,,,,,,,,,,,,YM,f,20,2024_Apr_18_1509,mian,2021.2.3,59.97674101990075,
A7,2,1,7.0,a,"[-0.2, -0.2]",,,,,,,,,,,,,,,,,,,,0,66,66,66,,,,,,,,,,,,,,,,,a,1,0.7598309999993944,,,,,,,,,,,,YM,f,20,2024_Apr_18_1509,mian,2021.2.3,59.97674101990075,
4G,2,2,4.0,l,"[0.2, -0.2]",,,,,,,,,,,,,,,,,,,,0,67,67,67,,,,,,,,,,,,,,,,,l,1,0.7606894000018656,,,,,,,,,,,,YM,f,20,2024_Apr_18_1509,mian,2021.2.3,59.97674101990075,
g2,1,1,g,l,"[0.2, 0.2]",,,,,,,,,,,,,,,,,,,,0,68,68,68,,,,,,,,,,,,,,,,,l,1,1.2692472000017005,,,,,,,,,,,,YM,f,20,2024_Apr_18_1509,mian,2021.2.3,59.97674101990075,
g4,1,2,g,l,"[-0.2, 0.2]",,,,,,,,,,,,,,,,,,,,0,69,69,69,,,,,,,,,,,,,,,,,l,1,2.1745651999990514,,,,,,,,,,,,YM,f,20,2024_Apr_18_1509,mian,2021.2.3,59.97674101990075,
7a,2,1,7.0,a,"[-0.2, -0.2]",,,,,,,,,,,,,,,,,,,,0,70,70,70,,,,,,,,,,,,,,,,,a,1,0.5243025000017951,,,,,,,,,,,,YM,f,20,2024_Apr_18_1509,mian,2021.2.3,59.97674101990075,
8e,2,2,8.0,l,"[0.2, -0.2]",,,,,,,,,,,,,,,,,,,,0,71,71,71,,,,,,,,,,,,,,,,,l,1,0.6542492000007769,,,,,,,,,,,,YM,f,20,2024_Apr_18_1509,mian,2021.2.3,59.97674101990075,
h4,1,1,h,l,"[0.2, 0.2]",,,,,,,,,,,,,,,,,,,,0,72,72,72,,,,,,,,,,,,,,,,,l,1,0.5572623000007297,,,,,,,,,,,,YM,f,20,2024_Apr_18_1509,mian,2021.2.3,59.97674101990075,
G8,1,2,G,a,"[-0.2, 0.2]",,,,,,,,,,,,,,,,,,,,0,73,73,73,,,,,,,,,,,,,,,,,a,1,0.6515365999985079,,,,,,,,,,,,YM,f,20,2024_Apr_18_1509,mian,2021.2.3,59.97674101990075,
6F,2,1,6.0,l,"[-0.2, -0.2]",,,,,,,,,,,,,,,,,,,,0,74,74,74,,,,,,,,,,,,,,,,,l,1,2.2510583000002953,,,,,,,,,,,,YM,f,20,2024_Apr_18_1509,mian,2021.2.3,59.97674101990075,
g5,2,2,5.0,a,"[0.2, -0.2]",,,,,,,,,,,,,,,,,,,,0,75,75,75,,,,,,,,,,,,,,,,,a,1,0.6883825000004435,,,,,,,,,,,,YM,f,20,2024_Apr_18_1509,mian,2021.2.3,59.97674101990075,
G5,1,1,G,a,"[0.2, 0.2]",,,,,,,,,,,,,,,,,,,,0,76,76,76,,,,,,,,,,,,,,,,,l,0,0.9348805000008724,,,,,,,,,,,,YM,f,20,2024_Apr_18_1509,mian,2021.2.3,59.97674101990075,
h5,1,2,h,l,"[-0.2, 0.2]",,,,,,,,,,,,,,,,,,,,0,77,77,77,,,,,,,,,,,,,,,,,l,1,0.6117888000007952,,,,,,,,,,,,YM,f,20,2024_Apr_18_1509,mian,2021.2.3,59.97674101990075,
9G,2,1,9.0,a,"[-0.2, -0.2]",,,,,,,,,,,,,,,,,,,,0,78,78,78,,,,,,,,,,,,,,,,,a,1,0.9811158000011346,,,,,,,,,,,,YM,f,20,2024_Apr_18_1509,mian,2021.2.3,59.97674101990075,
F3,2,2,3.0,a,"[0.2, -0.2]",,,,,,,,,,,,,,,,,,,,0,79,79,79,,,,,,,,,,,,,,,,,a,1,1.9753540999990946,,,,,,,,,,,,YM,f,20,2024_Apr_18_1509,mian,2021.2.3,59.97674101990075,
,,,,,,0,0,pic/flanker5.png,pic/flanker1.png,s,l,,,,,,,,,,,,,,,,,,0,0,0,0,0,0,0,3,,,,,,,,,,,,596.8745297000023,None,595.6877552000005,596.8917880000008,s,1,1.2504589999989548,浪费,l,1,1.9080706999993708,YM,f,20,2024_Apr_18_1509,mian,2021.2.3,59.97674101990075,
,,,,,,1,0,pic/flanker5.png,pic/flanker3.png,a,l,,,,,,,,,,,,,,,,,,0,0,0,0,0,1,1,7,,,,,,,,,,,,601.9417210000029,None,600.7584518000003,601.9584244000034,None,0,,嘲笑,l,1,1.2549088999985543,YM,f,20,2024_Apr_18_1509,mian,2021.2.3,59.97674101990075,
,,,,,,0,0,pic/flanker6.png,pic/flanker2.png,a,l,,,,,,,,,,,,,,,,,,0,0,0,0,0,2,2,1,,,,,,,,,,,,606.4246958000003,None,605.2408968000018,606.4413979000019,a,1,0.6572377999982564,穷苦,l,1,0.7423497999989195,YM,f,20,2024_Apr_18_1509,mian,2021.2.3,59.97674101990075,
,,,,,,1,0,pic/flanker6.png,pic/flanker4.png,s,l,,,,,,,,,,,,,,,,,,0,0,0,0,0,3,3,5,,,,,,,,,,,,609.8250675000018,None,608.6416709000005,609.8416896000017,s,1,0.5180765000004612,禁止,l,1,0.6806842000005418,YM,f,20,2024_Apr_18_1509,mian,2021.2.3,59.97674101990075,
,,,,,,1,1,pic/flanker6.png,pic/flanker4.png,s,k,,,,,,,,,,,,,,,,,,0,0,0,0,0,4,4,6,,,,,,,,,,,,613.0245126000009,None,611.8416862000013,613.0416683000003,s,1,0.5952546999978949,豪放,k,1,0.7006928000009793,YM,f,20,2024_Apr_18_1509,mian,2021.2.3,59.97674101990075,
,,,,,,1,1,pic/flanker5.png,pic/flanker3.png,a,k,,,,,,,,,,,,,,,,,,0,0,0,0,0,5,5,4,,,,,,,,,,,,616.1751518000019,None,614.9917431000031,616.1916479000029,a,1,0.5123174999971525,留恋,k,1,1.489033699999709,YM,f,20,2024_Apr_18_1509,mian,2021.2.3,59.97674101990075,
,,,,,,0,1,pic/flanker5.png,pic/flanker1.png,s,k,,,,,,,,,,,,,,,,,,0,0,0,0,0,6,6,0,,,,,,,,,,,,620.025146,None,618.8417068000017,620.0416562000028,s,1,0.507358300001215,富足,k,1,0.6427865999976348,YM,f,20,2024_Apr_18_1509,mian,2021.2.3,59.97674101990075,
,,,,,,0,1,pic/flanker6.png,pic/flanker2.png,a,k,,,,,,,,,,,,,,,,,,0,0,0,0,0,7,7,2,,,,,,,,,,,,623.0244444000018,None,621.8415135000032,623.0409292000004,a,1,0.35373940000135917,圣洁,k,1,0.6512256999994861,YM,f,20,2024_Apr_18_1509,mian,2021.2.3,59.97674101990075,
,,,,,,,,,,,,,,,,,,,,,,,,,,,,,0,0,0,0,,,,,,,,,,,,,,,,,,,,,,,,,,,YM,f,20,2024_Apr_18_1509,mian,2021.2.3,59.97674101990075,
,,,,,,0,0,pic/flanker5.png,pic/flanker1.png,s,l,,,,,,,,,,,,,,,,,,1,0,1,0,0,0,0,3,,,,,,,,,,,,644.541727900003,None,643.3366184000006,644.541727900003,s,1,0.3508671999989019,伤心,l,1,0.6773267999997188,YM,f,20,2024_Apr_18_1509,mian,2021.2.3,59.97674101990075,
,,,,,,1,0,pic/flanker5.png,pic/flanker3.png,a,l,,,,,,,,,,,,,,,,,,1,0,1,0,0,1,1,7,,,,,,,,,,,,647.5416231000017,None,646.3583626,647.5581083000034,a,1,0.4301634000003105,懒惰,l,1,0.7153164000010293,YM,f,20,2024_Apr_18_1509,mian,2021.2.3,59.97674101990075,
,,,,,,0,1,pic/flanker5.png,pic/flanker1.png,s,k,,,,,,,,,,,,,,,,,,1,0,1,0,0,2,2,0,,,,,,,,,,,,650.7250381000013,None,649.5415493,650.7415934000019,s,1,0.40014460000020335,圣洁,k,1,0.5681871000015235,YM,f,20,2024_Apr_18_1509,mian,2021.2.3,59.97674101990075,
,,,,,,0,1,pic/flanker6.png,pic/flanker2.png,a,k,,,,,,,,,,,,,,,,,,1,0,1,0,0,3,3,2,,,,,,,,,,,,653.5915609000003,None,652.4085767000033,653.6082006000033,a,1,0.2827571000016178,有利,k,1,0.7731346000000485,YM,f,20,2024_Apr_18_1509,mian,2021.2.3,59.97674101990075,
,,,,,,1,1,pic/flanker6.png,pic/flanker4.png,s,k,,,,,,,,,,,,,,,,,,1,0,1,0,0,4,4,6,,,,,,,,,,,,656.5414533000003,None,655.3581618000026,656.5581859000013,s,1,0.4951191000000108,奉献,k,1,0.6862853999991785,YM,f,20,2024_Apr_18_1509,mian,2021.2.3,59.97674101990075,
,,,,,,1,0,pic/flanker6.png,pic/flanker4.png,s,l,,,,,,,,,,,,,,,,,,1,0,1,0,0,5,5,5,,,,,,,,,,,,659.5916227000016,None,658.4085395000002,659.6080094000026,s,1,0.47347390000140877,排斥,l,1,0.6677478000019619,YM,f,20,2024_Apr_18_1509,mian,2021.2.3,59.97674101990075,
,,,,,,0,0,pic/flanker6.png,pic/flanker2.png,a,l,,,,,,,,,,,,,,,,,,1,0,1,0,0,6,6,1,,,,,,,,,,,,662.7415357000027,None,661.5584841000018,662.7582670000011,a,1,0.1826933000011195,冷笑,l,1,0.7806057999987388,YM,f,20,2024_Apr_18_1509,mian,2021.2.3,59.97674101990075,
,,,,,,1,1,pic/flanker5.png,pic/flanker3.png,a,k,,,,,,,,,,,,,,,,,,1,0,1,0,0,7,7,4,,,,,,,,,,,,665.758294700001,None,664.5750342000028,665.7749405000031,s,0,0.23006579999855603,诚恳,k,1,1.0696208000008482,YM,f,20,2024_Apr_18_1509,mian,2021.2.3,59.97674101990075,
,,,,,,,,,,,,,,,,,,,,,,,,,,,,,1,0,1,0,,,,,,,,,,,,,,,,,,,,,,,,,,,YM,f,20,2024_Apr_18_1509,mian,2021.2.3,59.97674101990075,
,,,,,,0,0,pic/flanker6.png,pic/flanker2.png,a,l,pic/AffRest1.png,,,,,,,,,,,,,,,,,,,,,,,,,0,0,0,0,0,0,0,57,,,,674.5915514000008,None,673.4031418000013,674.6083576000019,a,1,0.3034981999990123,轻率,l,1,1.0044936999984202,YM,f,20,2024_Apr_18_1509,mian,2021.2.3,59.97674101990075,
,,,,,,0,1,pic/flanker5.png,pic/flanker1.png,s,k,pic/AffRest1.png,,,,,,,,,,,,,,,,,,,,,,,,,0,0,0,0,0,1,1,24,,,,677.9081934000023,None,676.7240726000018,677.9249389000033,s,1,0.38543919999938225,前进,k,1,0.764826800001174,YM,f,20,2024_Apr_18_1509,mian,2021.2.3,59.97674101990075,
,,,,,,1,0,pic/flanker6.png,pic/flanker4.png,s,l,pic/AffRest1.png,,,,,,,,,,,,,,,,,,,,,,,,,0,0,0,0,0,2,2,77,,,,681.0749920000017,None,679.891800100002,681.0915426000029,s,1,0.45517539999855217,黑暗,l,1,0.6890106999999261,YM,f,20,2024_Apr_18_1509,mian,2021.2.3,59.97674101990075,
,,,,,,0,1,pic/flanker5.png,pic/flanker1.png,s,k,pic/AffRest1.png,,,,,,,,,,,,,,,,,,,,,,,,,0,0,0,0,0,3,3,8,,,,684.1248379000026,None,682.9416356000002,684.1416402000032,s,1,0.4311288999997487,丰满,k,1,0.6676365999992413,YM,f,20,2024_Apr_18_1509,mian,2021.2.3,59.97674101990075,
,,,,,,0,1,pic/flanker5.png,pic/flanker1.png,s,k,pic/AffRest1.png,,,,,,,,,,,,,,,,,,,,,,,,,0,0,0,0,0,4,4,0,,,,687.0750736000009,None,685.8914138,687.0915950000017,s,1,0.4825310999985959,奉献,k,1,0.6100316000010935,YM,f,20,2024_Apr_18_1509,mian,2021.2.3,59.97674101990075,
,,,,,,1,0,pic/flanker6.png,pic/flanker4.png,s,l,pic/AffRest1.png,,,,,,,,,,,,,,,,,,,,,,,,,0,0,0,0,0,5,5,45,,,,690.0749604000011,None,688.8915161000004,690.0915144000028,s,1,0.4685441000001447,假冒,l,1,0.6808899999996356,YM,f,20,2024_Apr_18_1509,mian,2021.2.3,59.97674101990075,
,,,,,,0,0,pic/flanker6.png,pic/flanker2.png,a,l,pic/AffRest1.png,,,,,,,,,,,,,,,,,,,,,,,,,0,0,0,0,0,6,6,73,,,,693.2917364000023,None,692.1080280000024,693.3084144000022,a,1,0.4022785999986809,孤单,l,1,0.9373863000000711,YM,f,20,2024_Apr_18_1509,mian,2021.2.3,59.97674101990075,
,,,,,,1,1,pic/flanker6.png,pic/flanker4.png,s,k,pic/AffRest1.png,,,,,,,,,,,,,,,,,,,,,,,,,0,0,0,0,0,7,7,62,,,,696.6248645000014,None,695.4413222000003,696.6416331,s,1,1.0840060000009544,如愿,k,1,1.0021496000008483,YM,f,20,2024_Apr_18_1509,mian,2021.2.3,59.97674101990075,
,,,,,,1,1,pic/flanker5.png,pic/flanker3.png,a,k,pic/AffRest1.png,,,,,,,,,,,,,,,,,,,,,,,,,0,0,0,0,0,8,8,28,,,,700.7079748000033,None,699.525195000002,700.724563300002,a,1,0.4470234000000346,赞成,k,1,0.6620612000006076,YM,f,20,2024_Apr_18_1509,mian,2021.2.3,59.97674101990075,
,,,,,,1,1,pic/flanker6.png,pic/flanker4.png,s,k,pic/AffRest1.png,,,,,,,,,,,,,,,,,,,,,,,,,0,0,0,0,0,9,9,38,,,,703.7250224000018,None,702.5414700000001,703.7415567000025,s,1,0.4094863999998779,敬佩,k,1,0.5514471999995294,YM,f,20,2024_Apr_18_1509,mian,2021.2.3,59.97674101990075,
,,,,,,1,1,pic/flanker6.png,pic/flanker4.png,s,k,pic/AffRest1.png,,,,,,,,,,,,,,,,,,,,,,,,,0,0,0,0,0,10,10,70,,,,706.5914031000029,None,705.4081059000018,706.6080162000035,s,1,0.4146633999989717,廉洁,k,1,0.5652402000014263,YM,f,20,2024_Apr_18_1509,mian,2021.2.3,59.97674101990075,
,,,,,,0,0,pic/flanker5.png,pic/flanker1.png,s,l,pic/AffRest1.png,,,,,,,,,,,,,,,,,,,,,,,,,0,0,0,0,0,11,11,3,,,,709.4081827000009,None,708.2249710000033,709.4247302000003,s,1,0.3626256000025023,焦躁,l,1,0.7679548999985855,YM,f,20,2024_Apr_18_1509,mian,2021.2.3,59.97674101990075,
,,,,,,0,0,pic/flanker6.png,pic/flanker2.png,a,l,pic/AffRest1.png,,,,,,,,,,,,,,,,,,,,,,,,,0,0,0,0,0,12,12,65,,,,712.5745557000009,None,711.3908487000008,712.5912971000034,a,1,0.4306092000006174,郁闷,l,1,0.9331296000018483,YM,f,20,2024_Apr_18_1509,mian,2021.2.3,59.97674101990075,
,,,,,,0,0,pic/flanker5.png,pic/flanker1.png,s,l,pic/AffRest1.png,,,,,,,,,,,,,,,,,,,,,,,,,0,0,0,0,0,13,13,51,,,,715.8581163000017,None,714.6748144000012,715.8747678,s,1,0.37991360000160057,消沉,l,1,0.6298697999991418,YM,f,20,2024_Apr_18_1509,mian,2021.2.3,59.97674101990075,
,,,,,,0,1,pic/flanker6.png,pic/flanker2.png,a,k,pic/AffRest1.png,,,,,,,,,,,,,,,,,,,,,,,,,0,0,0,0,0,14,14,58,,,,718.908204000003,None,717.725025300002,718.9250342000014,a,1,0.3749944000010146,俊秀,k,1,0.6794966000015847,YM,f,20,2024_Apr_18_1509,mian,2021.2.3,59.97674101990075,
,,,,,,1,1,pic/flanker6.png,pic/flanker4.png,s,k,pic/AffRest1.png,,,,,,,,,,,,,,,,,,,,,,,,,0,0,0,0,0,15,15,22,,,,721.9748714000016,None,720.7914576000003,721.9914547000008,s,1,0.4274389999991399,正直,k,1,1.1505756000005931,YM,f,20,2024_Apr_18_1509,mian,2021.2.3,59.97674101990075,
,,,,,,0,1,pic/flanker5.png,pic/flanker1.png,s,k,pic/AffRest1.png,,,,,,,,,,,,,,,,,,,,,,,,,0,0,0,0,0,16,16,56,,,,725.6079355000002,None,724.4248120000011,725.6246123000019,s,1,0.37727430000086315,有利,k,1,0.5627600000007078,YM,f,20,2024_Apr_18_1509,mian,2021.2.3,59.97674101990075,
,,,,,,1,0,pic/flanker5.png,pic/flanker3.png,a,l,pic/AffRest1.png,,,,,,,,,,,,,,,,,,,,,,,,,0,0,0,0,0,17,17,71,,,,728.5415052000026,None,727.357889400002,728.5582399000014,a,1,0.42089320000013686,罚款,l,1,0.8703313000005437,YM,f,20,2024_Apr_18_1509,mian,2021.2.3,59.97674101990075,
,,,,,,0,0,pic/flanker5.png,pic/flanker1.png,s,l,pic/AffRest1.png,,,,,,,,,,,,,,,,,,,,,,,,,0,0,0,0,0,18,18,67,,,,731.824876900002,None,730.6414925000026,731.8413951000002,s,1,0.43354489999910584,撒谎,l,1,0.6340326999998069,YM,f,20,2024_Apr_18_1509,mian,2021.2.3,59.97674101990075,
,,,,,,0,1,pic/flanker6.png,pic/flanker2.png,a,k,pic/AffRest1.png,,,,,,,,,,,,,,,,,,,,,,,,,0,0,0,0,0,19,19,50,,,,734.8082086000031,None,733.6247340000009,734.8246536000006,a,1,0.397732299999916,诚恳,k,1,1.1934805999990203,YM,f,20,2024_Apr_18_1509,mian,2021.2.3,59.97674101990075,
,,,,,,1,0,pic/flanker6.png,pic/flanker4.png,s,l,pic/AffRest1.png,,,,,,,,,,,,,,,,,,,,,,,,,0,0,0,0,0,20,20,37,,,,738.3414904000019,None,737.1579039000026,738.3581878000005,s,1,0.42529499999727705,伤心,l,1,1.669058399998903,YM,f,20,2024_Apr_18_1509,mian,2021.2.3,59.97674101990075,
,,,,,,0,1,pic/flanker6.png,pic/flanker2.png,a,k,pic/AffRest1.png,,,,,,,,,,,,,,,,,,,,,,,,,0,0,0,0,0,21,21,2,,,,742.3417960000006,None,741.1580048000033,742.3578635000013,a,1,0.40528099999937695,享受,k,1,0.5821113000019977,YM,f,20,2024_Apr_18_1509,mian,2021.2.3,59.97674101990075,
,,,,,,0,0,pic/flanker5.png,pic/flanker1.png,s,l,pic/AffRest1.png,,,,,,,,,,,,,,,,,,,,,,,,,0,0,0,0,0,22,22,35,,,,745.1917575000007,None,744.0081120000032,745.2079176000007,s,1,0.38797519999934593,鲁莽,l,1,0.6299470999983896,YM,f,20,2024_Apr_18_1509,mian,2021.2.3,59.97674101990075,
,,,,,,0,0,pic/flanker5.png,pic/flanker1.png,s,l,pic/AffRest1.png,,,,,,,,,,,,,,,,,,,,,,,,,0,0,0,0,0,23,23,43,,,,748.1079082000033,None,746.9246061000013,748.1247618000016,s,1,0.4378160000014759,忧虑,l,1,0.6258302999995067,YM,f,20,2024_Apr_18_1509,mian,2021.2.3,59.97674101990075,
,,,,,,1,0,pic/flanker5.png,pic/flanker3.png,a,l,pic/AffRest1.png,,,,,,,,,,,,,,,,,,,,,,,,,0,0,0,0,0,24,24,15,,,,751.2246672000001,None,750.0414858000004,751.2413069000031,a,1,0.42346810000162804,穷苦,l,1,0.5455866000011156,YM,f,20,2024_Apr_18_1509,mian,2021.2.3,59.97674101990075,
,,,,,,1,1,pic/flanker5.png,pic/flanker3.png,a,k,pic/AffRest1.png,,,,,,,,,,,,,,,,,,,,,,,,,0,0,0,0,0,25,25,36,,,,754.041250600003,None,752.8581915000032,754.0580789000014,a,1,0.470465400001558,爽朗,k,1,0.7448360000016692,YM,f,20,2024_Apr_18_1509,mian,2021.2.3,59.97674101990075,
,,,,,,0,1,pic/flanker5.png,pic/flanker1.png,s,k,pic/AffRest1.png,,,,,,,,,,,,,,,,,,,,,,,,,0,0,0,0,0,26,26,32,,,,757.1080035000014,None,755.9247174000011,757.1245169000031,s,1,0.3657542000000831,雄厚,k,1,1.1450181999971392,YM,f,20,2024_Apr_18_1509,mian,2021.2.3,59.97674101990075,
,,,,,,1,0,pic/flanker6.png,pic/flanker4.png,s,l,pic/AffRest1.png,,,,,,,,,,,,,,,,,,,,,,,,,0,0,0,0,0,27,27,5,,,,760.5249538000025,None,759.3412826000022,760.5413866000017,s,1,0.4699880999978632,争吵,l,1,0.7694295000001148,YM,f,20,2024_Apr_18_1509,mian,2021.2.3,59.97674101990075,
,,,,,,1,0,pic/flanker5.png,pic/flanker3.png,a,l,pic/AffRest1.png,,,,,,,,,,,,,,,,,,,,,,,,,0,0,0,0,0,28,28,79,,,,763.7747780000027,None,762.5916319000025,763.7914795000033,a,1,0.4879709000015282,自卑,l,1,0.8873849000010523,YM,f,20,2024_Apr_18_1509,mian,2021.2.3,59.97674101990075,
,,,,,,0,0,pic/flanker6.png,pic/flanker2.png,a,l,pic/AffRest1.png,,,,,,,,,,,,,,,,,,,,,,,,,0,0,0,0,0,29,29,41,,,,766.9915357000027,None,765.8082205999999,767.0080693000018,a,1,0.38349960000050487,浪费,l,1,0.612877399998979,YM,f,20,2024_Apr_18_1509,mian,2021.2.3,59.97674101990075,
,,,,,,0,0,pic/flanker5.png,pic/flanker1.png,s,l,pic/AffRest1.png,,,,,,,,,,,,,,,,,,,,,,,,,0,0,0,0,0,30,30,27,,,,770.0409423000019,None,768.8579046000013,770.0582269000006,s,1,0.42912950000027195,懒惰,l,1,0.5570578999977442,YM,f,20,2024_Apr_18_1509,mian,2021.2.3,59.97674101990075,
,,,,,,0,0,pic/flanker6.png,pic/flanker2.png,a,l,pic/AffRest1.png,,,,,,,,,,,,,,,,,,,,,,,,,0,0,0,0,0,31,31,9,,,,773.0248079000012,None,771.8413874000034,773.0414982000002,a,1,0.39991469999949913,落后,l,1,0.63191359999837,YM,f,20,2024_Apr_18_1509,mian,2021.2.3,59.97674101990075,
,,,,,,1,1,pic/flanker6.png,pic/flanker4.png,s,k,pic/AffRest1.png,,,,,,,,,,,,,,,,,,,,,,,,,0,0,0,0,0,32,32,78,,,,776.1081714000029,None,774.9247856000002,776.1248221000023,s,1,0.46867349999956787,羡慕,k,1,1.8345007999996596,YM,f,20,2024_Apr_18_1509,mian,2021.2.3,59.97674101990075,
,,,,,,0,1,pic/flanker5.png,pic/flanker1.png,s,k,pic/AffRest1.png,,,,,,,,,,,,,,,,,,,,,,,,,0,0,0,0,0,33,33,48,,,,780.474840400002,None,779.2914009000015,780.4913813000021,s,1,0.4138041999976849,公平,k,1,0.6230078000007779,YM,f,20,2024_Apr_18_1509,mian,2021.2.3,59.97674101990075,
,,,,,,1,1,pic/flanker5.png,pic/flanker3.png,a,k,pic/AffRest1.png,,,,,,,,,,,,,,,,,,,,,,,,,0,0,0,0,0,34,34,52,,,,783.5415480000011,None,782.3580516000002,783.5582814000009,a,1,0.46928180000031716,振作,k,1,0.9231695000016771,YM,f,20,2024_Apr_18_1509,mian,2021.2.3,59.97674101990075,
,,,,,,1,1,pic/flanker6.png,pic/flanker4.png,s,k,pic/AffRest1.png,,,,,,,,,,,,,,,,,,,,,,,,,0,0,0,0,0,35,35,6,,,,786.9912507000008,None,785.8080182000012,787.0079769000004,s,1,0.7245913999977347,生动,k,1,0.6327225999993971,YM,f,20,2024_Apr_18_1509,mian,2021.2.3,59.97674101990075,
,,,,,,0,0,pic/flanker6.png,pic/flanker2.png,a,l,pic/AffRest1.png,,,,,,,,,,,,,,,,,,,,,,,,,0,0,0,0,0,36,36,25,,,,790.2908317000001,None,789.108032600001,790.308061300002,a,1,0.6796924999980547,嘲笑,l,1,0.6403667999984464,YM,f,20,2024_Apr_18_1509,mian,2021.2.3,59.97674101990075,
,,,,,,0,1,pic/flanker5.png,pic/flanker1.png,s,k,pic/AffRest1.png,,,,,,,,,,,,,,,,,,,,,,,,,0,0,0,0,0,37,37,16,,,,793.6079777000014,None,792.4245921000002,793.6245753000003,s,1,0.48444000000017695,永恒,k,1,0.6578442999998515,YM,f,20,2024_Apr_18_1509,mian,2021.2.3,59.97674101990075,
,,,,,,0,1,pic/flanker5.png,pic/flanker1.png,s,k,pic/AffRest1.png,,,,,,,,,,,,,,,,,,,,,,,,,0,0,0,0,0,38,38,40,,,,796.6415031000033,None,795.458030400001,796.6579686000005,s,1,0.3888595999997051,鲜艳,k,1,0.7085138000002189,YM,f,20,2024_Apr_18_1509,mian,2021.2.3,59.97674101990075,
,,,,,,1,1,pic/flanker6.png,pic/flanker4.png,s,k,pic/AffRest1.png,,,,,,,,,,,,,,,,,,,,,,,,,0,0,0,0,0,39,39,14,,,,799.6409708000028,None,798.4580671000003,799.6574809000012,s,1,0.7827518999984022,卓越,k,1,0.6437920999997004,YM,f,20,2024_Apr_18_1509,mian,2021.2.3,59.97674101990075,
,,,,,,0,1,pic/flanker6.png,pic/flanker2.png,a,k,pic/AffRest1.png,,,,,,,,,,,,,,,,,,,,,,,,,0,0,0,0,0,40,40,66,,,,803.1248035000026,None,801.9413869000018,803.1414474000012,a,1,0.6625934000003326,秀丽,k,1,0.6085467000011704,YM,f,20,2024_Apr_18_1509,mian,2021.2.3,59.97674101990075,
,,,,,,0,0,pic/flanker6.png,pic/flanker2.png,a,l,pic/AffRest1.png,,,,,,,,,,,,,,,,,,,,,,,,,0,0,0,0,0,41,41,17,,,,806.2917153000017,None,805.1079431000035,806.3082463000028,a,1,0.39430560000255355,处罚,l,1,0.9604499000015494,YM,f,20,2024_Apr_18_1509,mian,2021.2.3,59.97674101990075,
,,,,,,1,1,pic/flanker5.png,pic/flanker3.png,a,k,pic/AffRest1.png,,,,,,,,,,,,,,,,,,,,,,,,,0,0,0,0,0,42,42,76,,,,809.5246871000018,None,808.3413858000022,809.5413974000003,a,1,0.42272400000001653,清秀,k,1,0.5295330000008107,YM,f,20,2024_Apr_18_1509,mian,2021.2.3,59.97674101990075,
,,,,,,0,1,pic/flanker6.png,pic/flanker2.png,a,k,pic/AffRest1.png,,,,,,,,,,,,,,,,,,,,,,,,,0,0,0,0,0,43,43,18,,,,812.507970300001,None,811.3244831000011,812.5246996000024,a,1,0.39819079999870155,充裕,k,1,0.5891893000007258,YM,f,20,2024_Apr_18_1509,mian,2021.2.3,59.97674101990075,
,,,,,,1,0,pic/flanker6.png,pic/flanker4.png,s,l,pic/AffRest1.png,,,,,,,,,,,,,,,,,,,,,,,,,0,0,0,0,0,44,44,69,,,,815.541103800002,None,814.3581069000029,815.5580918000014,s,1,0.4889799000011408,别扭,l,1,0.7487834000021394,YM,f,20,2024_Apr_18_1509,mian,2021.2.3,59.97674101990075,
,,,,,,1,1,pic/flanker5.png,pic/flanker3.png,a,k,pic/AffRest1.png,,,,,,,,,,,,,,,,,,,,,,,,,0,0,0,0,0,45,45,60,,,,818.7245855000001,None,817.5407364000021,818.7407563000015,a,1,0.4573837999996613,顽强,l,0,0.5955570000005537,YM,f,20,2024_Apr_18_1509,mian,2021.2.3,59.97674101990075,
,,,,,,1,0,pic/flanker5.png,pic/flanker3.png,a,l,pic/AffRest1.png,,,,,,,,,,,,,,,,,,,,,,,,,0,0,0,0,0,46,46,63,,,,821.7076676000033,None,820.5244686000005,821.7243533000001,a,1,0.41444700000283774,失意,l,1,0.8466447999999218,YM,f,20,2024_Apr_18_1509,mian,2021.2.3,59.97674101990075,
,,,,,,0,1,pic/flanker5.png,pic/flanker1.png,s,k,pic/AffRest1.png,,,,,,,,,,,,,,,,,,,,,,,,,0,0,0,0,0,47,47,72,,,,824.9913208000035,None,823.8075718,825.0080437000033,s,1,0.4814759000000777,瑰丽,k,1,0.5977626000021701,YM,f,20,2024_Apr_18_1509,mian,2021.2.3,59.97674101990075,
,,,,,,1,1,pic/flanker5.png,pic/flanker3.png,a,k,pic/AffRest1.png,,,,,,,,,,,,,,,,,,,,,,,,,0,0,0,0,0,48,48,4,,,,827.9247565000005,None,826.7414253000024,827.9413705000006,a,1,0.47385360000043875,优雅,k,1,1.1399974000014481,YM,f,20,2024_Apr_18_1509,mian,2021.2.3,59.97674101990075,
,,,,,,0,0,pic/flanker5.png,pic/flanker1.png,s,l,pic/AffRest1.png,,,,,,,,,,,,,,,,,,,,,,,,,0,0,0,0,0,49,49,11,,,,831.5408657000007,None,830.3580355000013,831.5576298000015,s,1,0.5359911000014108,胡涂,l,1,0.6809230999970168,YM,f,20,2024_Apr_18_1509,mian,2021.2.3,59.97674101990075,
,,,,,,0,0,pic/flanker5.png,pic/flanker1.png,s,l,pic/AffRest1.png,,,,,,,,,,,,,,,,,,,,,,,,,0,0,0,0,0,50,50,59,,,,834.7580602000016,None,833.5746030000009,834.7746915000025,s,1,0.48131220000141184,排斥,l,1,0.8065048999997089,YM,f,20,2024_Apr_18_1509,mian,2021.2.3,59.97674101990075,
,,,,,,0,1,pic/flanker6.png,pic/flanker2.png,a,k,pic/AffRest1.png,,,,,,,,,,,,,,,,,,,,,,,,,0,0,0,0,0,51,51,26,,,,837.9916183000023,None,836.8080548000034,838.0079228000031,a,1,0.44495739999911166,吉祥,k,1,0.669957300000533,YM,f,20,2024_Apr_18_1509,mian,2021.2.3,59.97674101990075,
,,,,,,0,1,pic/flanker6.png,pic/flanker2.png,a,k,pic/AffRest1.png,,,,,,,,,,,,,,,,,,,,,,,,,0,0,0,0,0,52,52,74,,,,840.9913008000003,None,839.808095700002,841.0081038000026,a,1,0.39864029999807826,富丽,k,1,0.545998800000234,YM,f,20,2024_Apr_18_1509,mian,2021.2.3,59.97674101990075,
,,,,,,0,1,pic/flanker5.png,pic/flanker1.png,s,k,pic/AffRest1.png,,,,,,,,,,,,,,,,,,,,,,,,,0,0,0,0,0,53,53,64,,,,843.8246730999999,None,842.6413858000014,843.8413222000017,s,1,0.37786179999966407,热切,k,1,0.5576146999992488,YM,f,20,2024_Apr_18_1509,mian,2021.2.3,59.97674101990075,
,,,,,,1,1,pic/flanker5.png,pic/flanker3.png,a,k,pic/AffRest1.png,,,,,,,,,,,,,,,,,,,,,,,,,0,0,0,0,0,54,54,20,,,,846.7580057000014,None,845.5747071000005,846.7746911000031,a,1,0.4895254000002751,精致,k,1,0.5735288999967452,YM,f,20,2024_Apr_18_1509,mian,2021.2.3,59.97674101990075,
,,,,,,1,0,pic/flanker6.png,pic/flanker4.png,s,l,pic/AffRest1.png,,,,,,,,,,,,,,,,,,,,,,,,,0,0,0,0,0,55,55,53,,,,849.874576000002,None,848.6913257000015,849.8913003000016,s,1,0.49865779999890947,烦恼,l,1,0.6288887000009709,YM,f,20,2024_Apr_18_1509,mian,2021.2.3,59.97674101990075,
,,,,,,1,0,pic/flanker6.png,pic/flanker4.png,s,l,pic/AffRest1.png,,,,,,,,,,,,,,,,,,,,,,,,,0,0,0,0,0,56,56,21,,,,852.9579794000019,None,851.7747498000026,852.9746435000015,s,1,0.4761194000020623,怀疑,l,1,0.9376144000016211,YM,f,20,2024_Apr_18_1509,mian,2021.2.3,59.97674101990075,
,,,,,,1,0,pic/flanker5.png,pic/flanker3.png,a,l,pic/AffRest1.png,,,,,,,,,,,,,,,,,,,,,,,,,0,0,0,0,0,57,57,23,,,,856.3582846000027,None,855.1747310000028,856.3750041000021,a,1,0.46168949999992037,损害,l,1,0.6354125000034401,YM,f,20,2024_Apr_18_1509,mian,2021.2.3,59.97674101990075,
,,,,,,1,1,pic/flanker6.png,pic/flanker4.png,s,k,pic/AffRest1.png,,,,,,,,,,,,,,,,,,,,,,,,,0,0,0,0,0,58,58,30,,,,859.3079147000026,None,858.1245964000009,859.3249705000017,s,1,0.6086586999990686,豪放,k,1,0.6284019999984594,YM,f,20,2024_Apr_18_1509,mian,2021.2.3,59.97674101990075,
,,,,,,1,1,pic/flanker5.png,pic/flanker3.png,a,k,pic/AffRest1.png,,,,,,,,,,,,,,,,,,,,,,,,,0,0,0,0,0,59,59,44,,,,862.4748739000024,None,861.2912460000007,862.4914947000034,a,1,0.46354909999718075,留恋,k,1,1.919649899999058,YM,f,20,2024_Apr_18_1509,mian,2021.2.3,59.97674101990075,
,,,,,,1,0,pic/flanker5.png,pic/flanker3.png,a,l,pic/AffRest1.png,,,,,,,,,,,,,,,,,,,,,,,,,0,0,0,0,0,60,60,39,,,,866.9077788000031,None,865.7245945000031,866.9246560000029,a,1,0.6317453000010573,冷笑,l,1,0.873019500002556,YM,f,20,2024_Apr_18_1509,mian,2021.2.3,59.97674101990075,
,,,,,,0,1,pic/flanker6.png,pic/flanker2.png,a,k,pic/AffRest1.png,,,,,,,,,,,,,,,,,,,,,,,,,0,0,0,0,0,61,61,10,,,,870.2909577000028,None,869.1071365000025,870.3075617000031,a,1,0.4112217000001692,珍藏,k,1,0.643087899999955,YM,f,20,2024_Apr_18_1509,mian,2021.2.3,59.97674101990075,
,,,,,,1,1,pic/flanker6.png,pic/flanker4.png,s,k,pic/AffRest1.png,,,,,,,,,,,,,,,,,,,,,,,,,0,0,0,0,0,62,62,46,,,,873.3910624000018,None,872.2079647000028,873.4077075000023,s,1,0.5039175000019895,典雅,k,1,0.5250076000011177,YM,f,20,2024_Apr_18_1509,mian,2021.2.3,59.97674101990075,
,,,,,,1,0,pic/flanker5.png,pic/flanker3.png,a,l,pic/AffRest1.png,,,,,,,,,,,,,,,,,,,,,,,,,0,0,0,0,0,63,63,31,,,,876.2581166000018,None,875.0746230000004,876.274516700003,a,1,0.46601409999857424,慌忙,l,1,0.5632077999980538,YM,f,20,2024_Apr_18_1509,mian,2021.2.3,59.97674101990075,
,,,,,,0,0,pic/flanker6.png,pic/flanker2.png,a,l,pic/AffRest1.png,,,,,,,,,,,,,,,,,,,,,,,,,0,0,0,0,0,64,64,1,,,,879.2744566000001,None,878.0911705000035,879.2913248000004,a,1,0.42903060000026016,堵塞,l,1,0.6558418999993592,YM,f,20,2024_Apr_18_1509,mian,2021.2.3,59.97674101990075,
,,,,,,0,0,pic/flanker5.png,pic/flanker1.png,s,l,pic/AffRest1.png,,,,,,,,,,,,,,,,,,,,,,,,,0,0,0,0,0,65,65,19,,,,882.2410807000015,None,881.0580498000018,882.2579900000019,s,1,0.3997749999980442,缺乏,l,1,0.5753153000005113,YM,f,20,2024_Apr_18_1509,mian,2021.2.3,59.97674101990075,
,,,,,,1,0,pic/flanker6.png,pic/flanker4.png,s,l,pic/AffRest1.png,,,,,,,,,,,,,,,,,,,,,,,,,0,0,0,0,0,66,66,13,,,,885.2578709000009,None,884.0743771000016,885.2742948000014,s,1,0.468513100000564,闷热,l,1,0.6004999000033422,YM,f,20,2024_Apr_18_1509,mian,2021.2.3,59.97674101990075,
,,,,,,1,0,pic/flanker5.png,pic/flanker3.png,a,l,pic/AffRest1.png,,,,,,,,,,,,,,,,,,,,,,,,,0,0,0,0,0,67,67,55,,,,888.3746046000015,None,887.1912876000024,888.3912563000013,a,1,0.4573817999989842,悲观,l,1,0.6686491000000387,YM,f,20,2024_Apr_18_1509,mian,2021.2.3,59.97674101990075,
,,,,,,0,0,pic/flanker6.png,pic/flanker2.png,a,l,pic/AffRest1.png,,,,,,,,,,,,,,,,,,,,,,,,,0,0,0,0,0,68,68,49,,,,891.5246085000035,None,890.3412646000033,891.5412374000007,a,1,0.3790389999994659,丢失,l,1,0.7166579999975511,YM,f,20,2024_Apr_18_1509,mian,2021.2.3,59.97674101990075,
,,,,,,1,0,pic/flanker6.png,pic/flanker4.png,s,l,pic/AffRest1.png,,,,,,,,,,,,,,,,,,,,,,,,,0,0,0,0,0,69,69,29,,,,894.4747163000029,None,893.2912841000034,894.4912072000006,s,1,0.4778132000028563,沮丧,l,1,0.6168884999970032,YM,f,20,2024_Apr_18_1509,mian,2021.2.3,59.97674101990075,
,,,,,,1,0,pic/flanker5.png,pic/flanker3.png,a,l,pic/AffRest1.png,,,,,,,,,,,,,,,,,,,,,,,,,0,0,0,0,0,70,70,47,,,,897.6245676000035,None,896.441123200002,897.6411748999999,a,1,0.5167804000011529,厌恶,l,1,0.5008911000004446,YM,f,20,2024_Apr_18_1509,mian,2021.2.3,59.97674101990075,
,,,,,,0,0,pic/flanker5.png,pic/flanker1.png,s,l,pic/AffRest1.png,,,,,,,,,,,,,,,,,,,,,,,,,0,0,0,0,0,71,71,75,,,,900.4745823000012,None,899.2912313000015,900.4910436000027,s,1,0.5053539000000455,逃避,l,1,0.4961455999982718,YM,f,20,2024_Apr_18_1509,mian,2021.2.3,59.97674101990075,
,,,,,,0,1,pic/flanker6.png,pic/flanker2.png,a,k,pic/AffRest1.png,,,,,,,,,,,,,,,,,,,,,,,,,0,0,0,0,0,72,72,34,,,,903.5413155000024,None,902.3576373000033,903.557905200003,a,1,0.37602879999758443,舒畅,k,1,0.8100260999999591,YM,f,20,2024_Apr_18_1509,mian,2021.2.3,59.97674101990075,
,,,,,,1,0,pic/flanker6.png,pic/flanker4.png,s,l,pic/AffRest1.png,,,,,,,,,,,,,,,,,,,,,,,,,0,0,0,0,0,73,73,61,,,,906.5579233000026,None,905.3747635,906.5746468000034,s,1,0.5038746999998693,杂乱,l,1,0.7010033000005933,YM,f,20,2024_Apr_18_1509,mian,2021.2.3,59.97674101990075,
,,,,,,0,1,pic/flanker6.png,pic/flanker2.png,a,k,pic/AffRest1.png,,,,,,,,,,,,,,,,,,,,,,,,,0,0,0,0,0,74,74,42,,,,909.7579364000012,None,908.5744157000008,909.7743246000027,a,1,0.38803530000222963,富足,k,1,0.7139301999995951,YM,f,20,2024_Apr_18_1509,mian,2021.2.3,59.97674101990075,
,,,,,,1,0,pic/flanker5.png,pic/flanker3.png,a,l,pic/AffRest1.png,,,,,,,,,,,,,,,,,,,,,,,,,0,0,0,0,0,75,75,7,,,,912.7578762000012,None,911.5746203000017,912.774413500003,a,1,0.44987140000012005,心慌,l,1,0.5306578000017907,YM,f,20,2024_Apr_18_1509,mian,2021.2.3,59.97674101990075,
,,,,,,1,1,pic/flanker6.png,pic/flanker4.png,s,k,pic/AffRest1.png,,,,,,,,,,,,,,,,,,,,,,,,,0,0,0,0,0,76,76,54,,,,915.6746503000031,None,914.491003500003,915.691308700003,s,1,0.5466971999994712,旺盛,k,1,0.5819231000023137,YM,f,20,2024_Apr_18_1509,mian,2021.2.3,59.97674101990075,
,,,,,,1,1,pic/flanker5.png,pic/flanker3.png,a,k,pic/AffRest1.png,,,,,,,,,,,,,,,,,,,,,,,,,0,0,0,0,0,77,77,68,,,,918.7912032000022,None,917.6078725000007,918.807703100003,a,1,0.42848460000095656,畅销,k,1,1.888179499997932,YM,f,20,2024_Apr_18_1509,mian,2021.2.3,59.97674101990075,
,,,,,,0,0,pic/flanker6.png,pic/flanker2.png,a,l,pic/AffRest1.png,,,,,,,,,,,,,,,,,,,,,,,,,0,0,0,0,0,78,78,33,,,,923.0579096000001,None,921.874355400003,923.0742985000034,a,1,0.3883623000001535,禁止,l,1,0.5795663999997487,YM,f,20,2024_Apr_18_1509,mian,2021.2.3,59.97674101990075,
,,,,,,1,1,pic/flanker5.png,pic/flanker3.png,a,k,pic/AffRest1.png,,,,,,,,,,,,,,,,,,,,,,,,,0,0,0,0,0,79,79,12,,,,925.9246817000021,None,924.7416114000007,925.9412609999999,a,1,0.4671615000006568,圣洁,k,1,0.6144448999984888,YM,f,20,2024_Apr_18_1509,mian,2021.2.3,59.97674101990075,
,,,,,,,,,,,,pic/AffRest1.png,,,,,,,,,,,,,,,,,,,,,,,,,0,0,0,0,,,,,,,,,,,,,,,,,,,YM,f,20,2024_Apr_18_1509,mian,2021.2.3,59.97674101990075,
,,,,,,1,0,pic/flanker5.png,pic/flanker3.png,a,l,pic/AffRest2.png,,,,,,,,,,,,,,,,,,,,,,,,,0,1,1,1,0,0,0,47,,,,939.8079211000004,None,938.6221627000014,939.8246789000004,a,1,0.3896765999998024,落后,l,1,0.5973217999999179,YM,f,20,2024_Apr_18_1509,mian,2021.2.3,59.97674101990075,
,,,,,,0,0,pic/flanker5.png,pic/flanker1.png,s,l,pic/AffRest2.png,,,,,,,,,,,,,,,,,,,,,,,,,0,1,1,1,0,1,1,75,,,,942.6578990000016,None,941.4744783000024,942.6745070000034,s,1,0.48607320000155596,郁闷,l,1,0.631197599999723,YM,f,20,2024_Apr_18_1509,mian,2021.2.3,59.97674101990075,
,,,,,,1,1,pic/flanker5.png,pic/flanker3.png,a,k,pic/AffRest2.png,,,,,,,,,,,,,,,,,,,,,,,,,0,1,1,1,0,2,2,4,,,,945.8247701,None,944.6411891000025,945.8414697000007,a,1,0.3844680000001972,热切,k,1,0.6099500999989687,YM,f,20,2024_Apr_18_1509,mian,2021.2.3,59.97674101990075,
,,,,,,0,0,pic/flanker5.png,pic/flanker1.png,s,l,pic/AffRest2.png,,,,,,,,,,,,,,,,,,,,,,,,,0,1,1,1,0,3,3,35,,,,948.7079424000003,None,947.5244918000026,948.7244143000025,s,1,0.6939219999985653,丢失,l,1,0.6773473000030208,YM,f,20,2024_Apr_18_1509,mian,2021.2.3,59.97674101990075,
,,,,,,0,0,pic/flanker6.png,pic/flanker2.png,a,l,pic/AffRest2.png,,,,,,,,,,,,,,,,,,,,,,,,,0,1,1,1,0,4,4,57,,,,951.9577571000009,None,950.7744738000001,951.9745651000012,a,1,0.3481783000024734,伤心,l,1,0.4883716000003915,YM,f,20,2024_Apr_18_1509,mian,2021.2.3,59.97674101990075,
,,,,,,0,0,pic/flanker5.png,pic/flanker1.png,s,l,pic/AffRest2.png,,,,,,,,,,,,,,,,,,,,,,,,,0,1,1,1,0,5,5,43,,,,954.8580840000031,None,953.674500000001,954.8742868000008,s,1,0.4568470999984129,孤单,l,1,1.3107872000000498,YM,f,20,2024_Apr_18_1509,mian,2021.2.3,59.97674101990075,
,,,,,,1,0,pic/flanker6.png,pic/flanker4.png,s,l,pic/AffRest2.png,,,,,,,,,,,,,,,,,,,,,,,,,0,1,1,1,0,6,6,5,,,,958.5577196000013,None,957.3743884000032,958.574551200003,s,1,0.7354995999994571,损害,l,1,0.9875329000024067,YM,f,20,2024_Apr_18_1509,mian,2021.2.3,59.97674101990075,
,,,,,,0,0,pic/flanker6.png,pic/flanker2.png,a,l,pic/AffRest2.png,,,,,,,,,,,,,,,,,,,,,,,,,0,1,1,1,0,7,7,17,,,,962.1905588000009,None,961.0079126000019,962.2070916000011,a,1,0.3922275000004447,撒谎,l,1,0.7893325000004552,YM,f,20,2024_Apr_18_1509,mian,2021.2.3,59.97674101990075,
,,,,,,1,1,pic/flanker5.png,pic/flanker3.png,a,k,pic/AffRest2.png,,,,,,,,,,,,,,,,,,,,,,,,,0,1,1,1,0,8,8,28,,,,965.3743764000028,None,964.1914333000022,965.3912626000019,a,1,0.6856984000005468,圣洁,k,1,1.6226338000014948,YM,f,20,2024_Apr_18_1509,mian,2021.2.3,59.97674101990075,
,,,,,,0,0,pic/flanker5.png,pic/flanker1.png,s,l,pic/AffRest2.png,,,,,,,,,,,,,,,,,,,,,,,,,0,1,1,1,0,9,9,27,,,,969.5237605000002,None,968.3410460000014,969.5403389000021,s,1,0.43270679999841377,心慌,l,1,0.5701021999993827,YM,f,20,2024_Apr_18_1509,mian,2021.2.3,59.97674101990075,
,,,,,,1,0,pic/flanker6.png,pic/flanker4.png,s,l,pic/AffRest2.png,,,,,,,,,,,,,,,,,,,,,,,,,0,1,1,1,0,10,10,53,,,,972.5744981000025,None,971.3908533000031,972.5912611000022,s,1,0.4655338999982632,沮丧,l,1,1.1702336999987892,YM,f,20,2024_Apr_18_1509,mian,2021.2.3,59.97674101990075,
,,,,,,0,1,pic/flanker5.png,pic/flanker1.png,s,k,pic/AffRest2.png,,,,,,,,,,,,,,,,,,,,,,,,,0,1,1,1,0,11,11,64,,,,976.1577332000015,None,974.9741779000033,976.174485800002,s,1,0.42544339999949443,畅销,k,1,0.5539236999975401,YM,f,20,2024_Apr_18_1509,mian,2021.2.3,59.97674101990075,
,,,,,,0,1,pic/flanker5.png,pic/flanker1.png,s,k,pic/AffRest2.png,,,,,,,,,,,,,,,,,,,,,,,,,0,1,1,1,0,12,12,72,,,,979.0744600000035,None,977.8911237000029,979.0912157000021,s,1,0.42462060000252677,秀丽,k,1,0.538476300000184,YM,f,20,2024_Apr_18_1509,mian,2021.2.3,59.97674101990075,
,,,,,,1,0,pic/flanker6.png,pic/flanker4.png,s,l,pic/AffRest2.png,,,,,,,,,,,,,,,,,,,,,,,,,0,1,1,1,0,13,13,61,,,,982.0246350000016,None,980.8410390000026,982.041204000001,s,1,0.4751399999986461,忧虑,l,1,0.5852083999998285,YM,f,20,2024_Apr_18_1509,mian,2021.2.3,59.97674101990075,
,,,,,,0,1,pic/flanker6.png,pic/flanker2.png,a,k,pic/AffRest2.png,,,,,,,,,,,,,,,,,,,,,,,,,0,1,1,1,0,14,14,42,,,,985.1244405000034,None,983.9410579000032,985.1409943000035,a,1,0.388249799998448,赞成,k,1,0.6266724000015529,YM,f,20,2024_Apr_18_1509,mian,2021.2.3,59.97674101990075,
,,,,,,1,1,pic/flanker6.png,pic/flanker4.png,s,k,pic/AffRest2.png,,,,,,,,,,,,,,,,,,,,,,,,,0,1,1,1,0,15,15,78,,,,988.1245961000022,None,986.9409668000008,988.1410897000023,s,1,0.38886559999809833,有利,k,1,0.4564755999999761,YM,f,20,2024_Apr_18_1509,mian,2021.2.3,59.97674101990075,
,,,,,,1,1,pic/flanker5.png,pic/flanker3.png,a,k,pic/AffRest2.png,,,,,,,,,,,,,,,,,,,,,,,,,0,1,1,1,0,16,16,52,,,,990.8076493000008,None,989.6243678999999,990.8242304000014,a,1,0.4049689999992552,羡慕,k,1,0.514997799997218,YM,f,20,2024_Apr_18_1509,mian,2021.2.3,59.97674101990075,
,,,,,,1,1,pic/flanker5.png,pic/flanker3.png,a,k,pic/AffRest2.png,,,,,,,,,,,,,,,,,,,,,,,,,0,1,1,1,0,17,17,20,,,,993.757167900003,None,992.5743822000004,993.7744663000012,a,1,0.4628664999981993,奉献,k,1,0.6064488000010897,YM,f,20,2024_Apr_18_1509,mian,2021.2.3,59.97674101990075,
,,,,,,1,1,pic/flanker6.png,pic/flanker4.png,s,k,pic/AffRest2.png,,,,,,,,,,,,,,,,,,,,,,,,,0,1,1,1,0,18,18,38,,,,996.7077821000021,None,995.5243217000025,996.7243845000012,s,1,0.4870867999998154,优雅,k,1,0.4956605000006675,YM,f,20,2024_Apr_18_1509,mian,2021.2.3,59.97674101990075,
,,,,,,0,1,pic/flanker5.png,pic/flanker1.png,s,k,pic/AffRest2.png,,,,,,,,,,,,,,,,,,,,,,,,,0,1,1,1,0,19,19,40,,,,999.6245447000001,None,998.4409958000033,999.6410739000021,s,1,0.4039984999981243,敬佩,k,1,0.4460589999980584,YM,f,20,2024_Apr_18_1509,mian,2021.2.3,59.97674101990075,
,,,,,,0,1,pic/flanker6.png,pic/flanker2.png,a,k,pic/AffRest2.png,,,,,,,,,,,,,,,,,,,,,,,,,0,1,1,1,0,20,20,10,,,,1002.4742933000016,None,1001.2911636000026,1002.4911762000011,a,1,0.43192830000043614,豪放,k,1,0.5816147000005003,YM,f,20,2024_Apr_18_1509,mian,2021.2.3,59.97674101990075,
,,,,,,0,1,pic/flanker5.png,pic/flanker1.png,s,k,pic/AffRest2.png,,,,,,,,,,,,,,,,,,,,,,,,,0,1,1,1,0,21,21,48,,,,1005.5241980000028,None,1004.3409871000003,1005.5409407000006,s,1,0.41578519999893615,生动,k,1,0.6090344999975059,YM,f,20,2024_Apr_18_1509,mian,2021.2.3,59.97674101990075,
,,,,,,1,1,pic/flanker6.png,pic/flanker4.png,s,k,pic/AffRest2.png,,,,,,,,,,,,,,,,,,,,,,,,,0,1,1,1,0,22,22,54,,,,1008.5411379000034,None,1007.3575305000013,1008.5578187000028,s,1,0.4428430000007211,鲜艳,k,1,1.2693351999987499,YM,f,20,2024_Apr_18_1509,mian,2021.2.3,59.97674101990075,
,,,,,,1,0,pic/flanker5.png,pic/flanker3.png,a,l,pic/AffRest2.png,,,,,,,,,,,,,,,,,,,,,,,,,0,1,1,1,0,23,23,39,,,,1012.1070243000031,None,1010.9244135000008,1012.1243699000006,a,1,0.44087579999904847,自卑,k,0,0.5501916000030178,YM,f,20,2024_Apr_18_1509,mian,2021.2.3,59.97674101990075,
,,,,,,0,0,pic/flanker6.png,pic/flanker2.png,a,l,pic/AffRest2.png,,,,,,,,,,,,,,,,,,,,,,,,,0,1,1,1,0,24,24,1,,,,1015.1576668000016,None,1013.9745421000007,1015.174414000001,a,1,0.43518350000158534,懒惰,l,1,0.5561855000014475,YM,f,20,2024_Apr_18_1509,mian,2021.2.3,59.97674101990075,
,,,,,,0,0,pic/flanker6.png,pic/flanker2.png,a,l,pic/AffRest2.png,,,,,,,,,,,,,,,,,,,,,,,,,0,1,1,1,0,25,25,65,,,,1018.0076558000001,None,1016.8244011000024,1018.0244767000004,a,1,0.3997979000014311,厌恶,l,1,0.4481430999985605,YM,f,20,2024_Apr_18_1509,mian,2021.2.3,59.97674101990075,
,,,,,,1,1,pic/flanker5.png,pic/flanker3.png,a,k,pic/AffRest2.png,,,,,,,,,,,,,,,,,,,,,,,,,0,1,1,1,0,26,26,76,,,,1020.8911619999999,None,1019.7073900000032,1020.9076515000015,a,1,0.3940474000009999,爽朗,k,1,0.5399582000027294,YM,f,20,2024_Apr_18_1509,mian,2021.2.3,59.97674101990075,
,,,,,,0,0,pic/flanker5.png,pic/flanker1.png,s,l,pic/AffRest2.png,,,,,,,,,,,,,,,,,,,,,,,,,0,1,1,1,0,27,27,59,,,,1023.857202500003,None,1022.6744704000012,1023.8736546,s,1,0.4448139000014635,黑暗,l,1,0.8207524999997986,YM,f,20,2024_Apr_18_1509,mian,2021.2.3,59.97674101990075,
,,,,,,1,0,pic/flanker5.png,pic/flanker3.png,a,l,pic/AffRest2.png,,,,,,,,,,,,,,,,,,,,,,,,,0,1,1,1,0,28,28,63,,,,1026.9741306000033,None,1025.7908379,1026.9910181000014,a,1,0.38380419999884907,焦躁,l,1,0.5699146000006294,YM,f,20,2024_Apr_18_1509,mian,2021.2.3,59.97674101990075,
,,,,,,1,1,pic/flanker5.png,pic/flanker3.png,a,k,pic/AffRest2.png,,,,,,,,,,,,,,,,,,,,,,,,,0,1,1,1,0,29,29,36,,,,1029.8410756000012,None,1028.6577431000005,1029.8578033000013,a,1,0.3911566999995557,雄厚,k,1,0.5892133000015747,YM,f,20,2024_Apr_18_1509,mian,2021.2.3,59.97674101990075,
,,,,,,1,1,pic/flanker6.png,pic/flanker4.png,s,k,pic/AffRest2.png,,,,,,,,,,,,,,,,,,,,,,,,,0,1,1,1,0,30,30,70,,,,1032.724076800001,None,1031.5410481,1032.7407785000032,s,1,0.5496971000029589,典雅,k,1,0.689095499998075,YM,f,20,2024_Apr_18_1509,mian,2021.2.3,59.97674101990075,
,,,,,,1,0,pic/flanker6.png,pic/flanker4.png,s,l,pic/AffRest2.png,,,,,,,,,,,,,,,,,,,,,,,,,0,1,1,1,0,31,31,37,,,,1036.0075096,None,1034.8240932000008,1036.0245774000032,s,1,0.6276670999977796,穷苦,k,0,0.5474195999995572,YM,f,20,2024_Apr_18_1509,mian,2021.2.3,59.97674101990075,
,,,,,,1,1,pic/flanker6.png,pic/flanker4.png,s,k,pic/AffRest2.png,,,,,,,,,,,,,,,,,,,,,,,,,0,1,1,1,0,32,32,6,,,,1039.023972400002,None,1037.8404253000008,1039.040667600002,s,1,0.49447780000264174,前进,k,1,0.7396093999996083,YM,f,20,2024_Apr_18_1509,mian,2021.2.3,59.97674101990075,
,,,,,,0,1,pic/flanker6.png,pic/flanker2.png,a,k,pic/AffRest2.png,,,,,,,,,,,,,,,,,,,,,,,,,0,1,1,1,0,33,33,18,,,,1042.3244602000013,None,1041.1409770000027,1042.3410398000015,a,1,0.48950589999731164,正直,k,1,0.5936202999982925,YM,f,20,2024_Apr_18_1509,mian,2021.2.3,59.97674101990075,
,,,,,,1,1,pic/flanker5.png,pic/flanker3.png,a,k,pic/AffRest2.png,,,,,,,,,,,,,,,,,,,,,,,,,0,1,1,1,0,34,34,44,,,,1045.4078429,None,1044.2241669000032,1045.4243664000023,a,1,0.5263857999998436,舒畅,k,1,0.5599642999986827,YM,f,20,2024_Apr_18_1509,mian,2021.2.3,59.97674101990075,
,,,,,,0,1,pic/flanker6.png,pic/flanker2.png,a,k,pic/AffRest2.png,,,,,,,,,,,,,,,,,,,,,,,,,0,1,1,1,0,35,35,58,,,,1048.474448500001,None,1047.291042500001,1048.4910014000016,a,1,0.5186573999999382,俊秀,k,1,0.6548182000005909,YM,f,20,2024_Apr_18_1509,mian,2021.2.3,59.97674101990075,
,,,,,,1,1,pic/flanker6.png,pic/flanker4.png,s,k,pic/AffRest2.png,,,,,,,,,,,,,,,,,,,,,,,,,0,1,1,1,0,36,36,46,,,,1051.6570764000026,None,1050.474377100003,1051.6743035,s,1,0.43681999999898835,富足,k,1,1.3915994000017236,YM,f,20,2024_Apr_18_1509,mian,2021.2.3,59.97674101990075,
,,,,,,0,0,pic/flanker6.png,pic/flanker2.png,a,l,pic/AffRest2.png,,,,,,,,,,,,,,,,,,,,,,,,,0,1,1,1,0,37,37,25,,,,1055.3407703000012,None,1054.1569879000017,1055.3576756000002,a,1,0.6518214999996417,消沉,l,1,0.5423422999992908,YM,f,20,2024_Apr_18_1509,mian,2021.2.3,59.97674101990075,
,,,,,,0,0,pic/flanker6.png,pic/flanker2.png,a,l,pic/AffRest2.png,,,,,,,,,,,,,,,,,,,,,,,,,0,1,1,1,0,38,38,33,,,,1058.4241069000018,None,1057.2409894000011,1058.4410887000013,a,1,0.378612599997723,禁止,l,1,0.6038541999987501,YM,f,20,2024_Apr_18_1509,mian,2021.2.3,59.97674101990075,
,,,,,,0,1,pic/flanker5.png,pic/flanker1.png,s,k,pic/AffRest2.png,,,,,,,,,,,,,,,,,,,,,,,,,0,1,1,1,0,39,39,8,,,,1061.4579250000024,None,1060.2743464000014,1061.4742749000034,s,1,0.573119399999996,充裕,k,1,0.9630044999976235,YM,f,20,2024_Apr_18_1509,mian,2021.2.3,59.97674101990075,
,,,,,,0,0,pic/flanker5.png,pic/flanker1.png,s,l,pic/AffRest2.png,,,,,,,,,,,,,,,,,,,,,,,,,0,1,1,1,0,40,40,11,,,,1064.9243215000024,None,1063.7412274000017,1064.9409701000004,s,1,0.39309160000266274,逃避,l,1,0.5590456999998423,YM,f,20,2024_Apr_18_1509,mian,2021.2.3,59.97674101990075,
,,,,,,0,0,pic/flanker5.png,pic/flanker1.png,s,l,pic/AffRest2.png,,,,,,,,,,,,,,,,,,,,,,,,,0,1,1,1,0,41,41,67,,,,1067.7073518000034,None,1066.524280200003,1067.7243566000034,s,1,0.3125847999981488,失意,l,1,0.5362679999998363,YM,f,20,2024_Apr_18_1509,mian,2021.2.3,59.97674101990075,
,,,,,,1,0,pic/flanker5.png,pic/flanker3.png,a,l,pic/AffRest2.png,,,,,,,,,,,,,,,,,,,,,,,,,0,1,1,1,0,42,42,15,,,,1070.5909221000002,None,1069.4076195000016,1070.6074636000012,a,1,0.4850533999997424,胡涂,l,1,0.5413703999984136,YM,f,20,2024_Apr_18_1509,mian,2021.2.3,59.97674101990075,
,,,,,,0,1,pic/flanker6.png,pic/flanker2.png,a,k,pic/AffRest2.png,,,,,,,,,,,,,,,,,,,,,,,,,0,1,1,1,0,43,43,66,,,,1073.5412411000034,None,1072.3575492000018,1073.5575143000024,a,1,0.3885764999977255,清秀,k,1,0.5067860999988625,YM,f,20,2024_Apr_18_1509,mian,2021.2.3,59.97674101990075,
,,,,,,1,1,pic/flanker6.png,pic/flanker4.png,s,k,pic/AffRest2.png,,,,,,,,,,,,,,,,,,,,,,,,,0,1,1,1,0,44,44,14,,,,1076.2742874000032,None,1075.0912537000004,1076.2909750000035,s,1,0.4803161999989243,吉祥,k,1,0.7987188999977661,YM,f,20,2024_Apr_18_1509,mian,2021.2.3,59.97674101990075,
,,,,,,1,0,pic/flanker5.png,pic/flanker3.png,a,l,pic/AffRest2.png,,,,,,,,,,,,,,,,,,,,,,,,,0,1,1,1,0,45,45,23,,,,1079.4409165000034,None,1078.2578783000026,1079.4575557000026,a,1,0.42648149999877205,闷热,l,1,1.7644604000015534,YM,f,20,2024_Apr_18_1509,mian,2021.2.3,59.97674101990075,
,,,,,,0,0,pic/flanker6.png,pic/flanker2.png,a,l,pic/AffRest2.png,,,,,,,,,,,,,,,,,,,,,,,,,0,1,1,1,0,46,46,73,,,,1083.5242607,None,1082.341101500002,1083.5409870000003,a,1,0.3967014999980165,假冒,l,1,0.6114502999989782,YM,f,20,2024_Apr_18_1509,mian,2021.2.3,59.97674101990075,
,,,,,,0,1,pic/flanker5.png,pic/flanker1.png,s,k,pic/AffRest2.png,,,,,,,,,,,,,,,,,,,,,,,,,0,1,1,1,0,47,47,16,,,,1086.4077314000024,None,1085.2239008000033,1086.4242415000008,s,1,0.4840495999997074,诚恳,k,1,0.7929082999980892,YM,f,20,2024_Apr_18_1509,mian,2021.2.3,59.97674101990075,
,,,,,,1,0,pic/flanker6.png,pic/flanker4.png,s,l,pic/AffRest2.png,,,,,,,,,,,,,,,,,,,,,,,,,0,1,1,1,0,48,48,77,,,,1089.5742265000008,None,1088.390771100003,1089.5908412000026,s,1,0.5209727000001294,嘲笑,k,0,0.9088489999994636,YM,f,20,2024_Apr_18_1509,mian,2021.2.3,59.97674101990075,
,,,,,,1,0,pic/flanker5.png,pic/flanker3.png,a,l,pic/AffRest2.png,,,,,,,,,,,,,,,,,,,,,,,,,0,1,1,1,0,49,49,7,,,,1093.0075873000023,None,1091.8240417000015,1093.0242705000019,a,1,0.8867473999998765,怀疑,l,1,0.5749313000014808,YM,f,20,2024_Apr_18_1509,mian,2021.2.3,59.97674101990075,
,,,,,,0,1,pic/flanker5.png,pic/flanker1.png,s,k,pic/AffRest2.png,,,,,,,,,,,,,,,,,,,,,,,,,0,1,1,1,0,50,50,0,,,,1096.2910475000026,None,1095.1076525000026,1096.3076556000015,s,1,0.4437140999980329,卓越,k,1,0.939107399997738,YM,f,20,2024_Apr_18_1509,mian,2021.2.3,59.97674101990075,
,,,,,,1,0,pic/flanker5.png,pic/flanker3.png,a,l,pic/AffRest2.png,,,,,,,,,,,,,,,,,,,,,,,,,0,1,1,1,0,51,51,31,,,,1099.5574294000035,None,1098.374134900001,1099.5744626000014,a,1,0.6223702999996021,缺乏,l,1,0.6560580000004848,YM,f,20,2024_Apr_18_1509,mian,2021.2.3,59.97674101990075,
,,,,,,0,0,pic/flanker6.png,pic/flanker2.png,a,l,pic/AffRest2.png,,,,,,,,,,,,,,,,,,,,,,,,,0,1,1,1,0,52,52,9,,,,1102.8743034,None,1101.6908943000017,1102.890949800003,a,1,0.41059580000001006,堵塞,l,1,0.5768977000006998,YM,f,20,2024_Apr_18_1509,mian,2021.2.3,59.97674101990075,
,,,,,,0,0,pic/flanker6.png,pic/flanker2.png,a,l,pic/AffRest2.png,,,,,,,,,,,,,,,,,,,,,,,,,0,1,1,1,0,53,53,49,,,,1105.7074291000026,None,1104.5241350000033,1105.7242976000016,a,1,0.46019999999771244,罚款,l,1,0.7140718000009656,YM,f,20,2024_Apr_18_1509,mian,2021.2.3,59.97674101990075,
,,,,,,1,0,pic/flanker6.png,pic/flanker4.png,s,l,pic/AffRest2.png,,,,,,,,,,,,,,,,,,,,,,,,,0,1,1,1,0,54,54,13,,,,1108.7740654000008,None,1107.5907441000018,1108.7909715000023,s,1,0.511380799998733,处罚,l,1,0.607926699998643,YM,f,20,2024_Apr_18_1509,mian,2021.2.3,59.97674101990075,
,,,,,,1,1,pic/flanker5.png,pic/flanker3.png,a,k,pic/AffRest2.png,,,,,,,,,,,,,,,,,,,,,,,,,0,1,1,1,0,55,55,12,,,,1111.7406329000005,None,1110.5576968000023,1111.7573224000007,a,1,0.49881230000028154,精致,k,1,0.6072447000005923,YM,f,20,2024_Apr_18_1509,mian,2021.2.3,59.97674101990075,
,,,,,,1,0,pic/flanker5.png,pic/flanker3.png,a,l,pic/AffRest2.png,,,,,,,,,,,,,,,,,,,,,,,,,0,1,1,1,0,56,56,71,,,,1114.8576825000018,None,1113.6741377000035,1114.8743845000026,a,1,0.5509272999988752,鲁莽,l,1,0.6662159000006795,YM,f,20,2024_Apr_18_1509,mian,2021.2.3,59.97674101990075,
,,,,,,0,1,pic/flanker5.png,pic/flanker1.png,s,k,pic/AffRest2.png,,,,,,,,,,,,,,,,,,,,,,,,,0,1,1,1,0,57,57,32,,,,1118.040939100003,None,1116.8576408000008,1118.0579153000035,s,1,0.4988009000007878,丰满,k,1,0.6048874000007345,YM,f,20,2024_Apr_18_1509,mian,2021.2.3,59.97674101990075,
,,,,,,1,1,pic/flanker6.png,pic/flanker4.png,s,k,pic/AffRest2.png,,,,,,,,,,,,,,,,,,,,,,,,,0,1,1,1,0,58,58,62,,,,1121.0909542000009,None,1119.907635200001,1121.1075496000012,s,1,0.6240223000022525,永恒,k,1,0.7086483000020962,YM,f,20,2024_Apr_18_1509,mian,2021.2.3,59.97674101990075,
,,,,,,1,0,pic/flanker5.png,pic/flanker3.png,a,l,pic/AffRest2.png,,,,,,,,,,,,,,,,,,,,,,,,,0,1,1,1,0,59,59,79,,,,1124.4573933000029,None,1123.2742483000002,1124.4741667000017,a,1,0.45685020000018994,慌忙,l,1,0.6783213000016985,YM,f,20,2024_Apr_18_1509,mian,2021.2.3,59.97674101990075,
,,,,,,0,1,pic/flanker5.png,pic/flanker1.png,s,k,pic/AffRest2.png,,,,,,,,,,,,,,,,,,,,,,,,,0,1,1,1,0,60,60,24,,,,1127.6237090000031,None,1126.4408801000027,1127.640843600002,s,1,0.5196271999993769,廉洁,k,1,0.9789678999986791,YM,f,20,2024_Apr_18_1509,mian,2021.2.3,59.97674101990075,
,,,,,,1,1,pic/flanker5.png,pic/flanker3.png,a,k,pic/AffRest2.png,,,,,,,,,,,,,,,,,,,,,,,,,0,1,1,1,0,61,61,60,,,,1131.0242426000004,None,1129.840610000003,1131.0408341000002,a,1,0.422441799997614,瑰丽,k,1,0.536169200000586,YM,f,20,2024_Apr_18_1509,mian,2021.2.3,59.97674101990075,
,,,,,,0,1,pic/flanker6.png,pic/flanker2.png,a,k,pic/AffRest2.png,,,,,,,,,,,,,,,,,,,,,,,,,0,1,1,1,0,62,62,50,,,,1134.0240503000023,None,1132.8408882000003,1134.0408242000012,a,1,0.4338361000009172,振作,k,1,0.8759563999992679,YM,f,20,2024_Apr_18_1509,mian,2021.2.3,59.97674101990075,
,,,,,,1,0,pic/flanker6.png,pic/flanker4.png,s,l,pic/AffRest2.png,,,,,,,,,,,,,,,,,,,,,,,,,0,1,1,1,0,63,63,21,,,,1137.290859800003,None,1136.1075130000027,1137.3076017000021,s,1,0.5808441000008315,冷笑,l,1,0.7123836999999185,YM,f,20,2024_Apr_18_1509,mian,2021.2.3,59.97674101990075,
,,,,,,0,0,pic/flanker6.png,pic/flanker2.png,a,l,pic/AffRest2.png,,,,,,,,,,,,,,,,,,,,,,,,,0,1,1,1,0,64,64,41,,,,1140.574289100001,None,1139.3906699,1140.5908332,a,1,0.4105015999994066,烦恼,l,1,0.5774321000026248,YM,f,20,2024_Apr_18_1509,mian,2021.2.3,59.97674101990075,
,,,,,,1,0,pic/flanker6.png,pic/flanker4.png,s,l,pic/AffRest2.png,,,,,,,,,,,,,,,,,,,,,,,,,0,1,1,1,0,65,65,29,,,,1143.4910875000023,None,1142.307325400001,1143.5076537000023,s,1,0.6502494999986084,别扭,l,1,2.1932167999984813,YM,f,20,2024_Apr_18_1509,mian,2021.2.3,59.97674101990075,
,,,,,,1,0,pic/flanker6.png,pic/flanker4.png,s,l,pic/AffRest2.png,,,,,,,,,,,,,,,,,,,,,,,,,0,1,1,1,0,66,66,69,,,,1148.3241594000028,None,1147.140889600003,1148.3406577000023,s,1,0.5052209999994375,悲观,l,1,0.6700934000000416,YM,f,20,2024_Apr_18_1509,mian,2021.2.3,59.97674101990075,
,,,,,,1,0,pic/flanker6.png,pic/flanker4.png,s,l,pic/AffRest2.png,,,,,,,,,,,,,,,,,,,,,,,,,0,1,1,1,0,67,67,45,,,,1151.4070518000008,None,1150.2236269000023,1151.423618300003,s,1,1.0328786999998556,轻率,l,1,0.7267090000023018,YM,f,20,2024_Apr_18_1509,mian,2021.2.3,59.97674101990075,
,,,,,,0,1,pic/flanker5.png,pic/flanker1.png,s,k,pic/AffRest2.png,,,,,,,,,,,,,,,,,,,,,,,,,0,1,1,1,0,68,68,56,,,,1155.0576652000018,None,1153.874265100003,1155.0742637000003,s,1,0.6127187999991293,公平,k,1,0.6086056000021927,YM,f,20,2024_Apr_18_1509,mian,2021.2.3,59.97674101990075,
,,,,,,0,0,pic/flanker5.png,pic/flanker1.png,s,l,pic/AffRest2.png,,,,,,,,,,,,,,,,,,,,,,,,,0,1,1,1,0,69,69,3,,,,1158.107566300001,None,1156.9242108000035,1158.1239759000018,s,1,0.44676329999856534,浪费,k,0,0.6304281999982777,YM,f,20,2024_Apr_18_1509,mian,2021.2.3,59.97674101990075,
,,,,,,0,1,pic/flanker6.png,pic/flanker2.png,a,k,pic/AffRest2.png,,,,,,,,,,,,,,,,,,,,,,,,,0,1,1,1,0,70,70,26,,,,1161.107429300002,None,1159.923851800002,1161.124086900003,a,1,0.44069609999860404,享受,k,1,0.7190173999988474,YM,f,20,2024_Apr_18_1509,mian,2021.2.3,59.97674101990075,
,,,,,,0,1,pic/flanker6.png,pic/flanker2.png,a,k,pic/AffRest2.png,,,,,,,,,,,,,,,,,,,,,,,,,0,1,1,1,0,71,71,74,,,,1164.307246100001,None,1163.1243281000025,1164.3240307000015,a,1,0.41251870000269264,如愿,k,1,0.7528405999983079,YM,f,20,2024_Apr_18_1509,mian,2021.2.3,59.97674101990075,
,,,,,,1,1,pic/flanker6.png,pic/flanker4.png,s,k,pic/AffRest2.png,,,,,,,,,,,,,,,,,,,,,,,,,0,1,1,1,0,72,72,22,,,,1167.4238651000014,None,1166.2408429000025,1167.4404000000031,s,1,0.4992389000035473,珍藏,k,1,0.6315926999996009,YM,f,20,2024_Apr_18_1509,mian,2021.2.3,59.97674101990075,
,,,,,,1,1,pic/flanker6.png,pic/flanker4.png,s,k,pic/AffRest2.png,,,,,,,,,,,,,,,,,,,,,,,,,0,1,1,1,0,73,73,30,,,,1170.3742337000003,None,1169.1908484000014,1170.3908346000026,s,1,0.4735519000023487,留恋,k,1,0.6892591000032553,YM,f,20,2024_Apr_18_1509,mian,2021.2.3,59.97674101990075,
,,,,,,0,1,pic/flanker6.png,pic/flanker2.png,a,k,pic/AffRest2.png,,,,,,,,,,,,,,,,,,,,,,,,,0,1,1,1,0,74,74,2,,,,1173.440663100002,None,1172.2572888000032,1173.4577798000028,a,1,0.5084091999997327,顽强,k,1,1.2862629000010202,YM,f,20,2024_Apr_18_1509,mian,2021.2.3,59.97674101990075,
,,,,,,0,0,pic/flanker5.png,pic/flanker1.png,s,l,pic/AffRest2.png,,,,,,,,,,,,,,,,,,,,,,,,,0,1,1,1,0,75,75,51,,,,1177.0742162000024,None,1175.8906351000005,1177.090809600002,s,1,0.4100446999982523,争吵,l,1,0.7399764000001596,YM,f,20,2024_Apr_18_1509,mian,2021.2.3,59.97674101990075,
,,,,,,1,0,pic/flanker5.png,pic/flanker3.png,a,l,pic/AffRest2.png,,,,,,,,,,,,,,,,,,,,,,,,,0,1,1,1,0,76,76,55,,,,1180.0574256,None,1178.8742767000003,1180.0742183000002,a,1,0.5419863999995869,排斥,l,1,0.9561966999972356,YM,f,20,2024_Apr_18_1509,mian,2021.2.3,59.97674101990075,
,,,,,,0,0,pic/flanker5.png,pic/flanker1.png,s,l,pic/AffRest2.png,,,,,,,,,,,,,,,,,,,,,,,,,0,1,1,1,0,77,77,19,,,,1183.4574870000033,None,1182.2741425000022,1183.4741286000026,s,1,0.4790776999980153,杂乱,l,1,0.6288729000007152,YM,f,20,2024_Apr_18_1509,mian,2021.2.3,59.97674101990075,
,,,,,,0,1,pic/flanker6.png,pic/flanker2.png,a,k,pic/AffRest2.png,,,,,,,,,,,,,,,,,,,,,,,,,0,1,1,1,0,78,78,34,,,,1186.5072833000013,None,1185.3240658000032,1186.524039,a,1,0.6269032999989577,富丽,k,1,1.253518699999404,YM,f,20,2024_Apr_18_1509,mian,2021.2.3,59.97674101990075,
,,,,,,1,1,pic/flanker5.png,pic/flanker3.png,a,k,pic/AffRest2.png,,,,,,,,,,,,,,,,,,,,,,,,,0,1,1,1,0,79,79,68,,,,1190.3234612000015,None,1189.1407199000023,1190.340904800003,a,1,0.6026167999989411,旺盛,k,1,0.7195556999977271,YM,f,20,2024_Apr_18_1509,mian,2021.2.3,59.97674101990075,
,,,,,,,,,,,,pic/AffRest2.png,,,,,,,,,,,,,,,,,,,,,,,,,0,1,1,1,,,,,,,,,,,,,,,,,,,YM,f,20,2024_Apr_18_1509,mian,2021.2.3,59.97674101990075,
,,,,,,1,1,pic/flanker6.png,pic/flanker4.png,s,k,pic/AffRest3.png,,,,,,,,,,,,,,,,,,,,,,,,,0,2,2,2,0,0,0,54,,,,1205.824417900003,None,1204.6344845000021,1205.840783300002,s,1,0.5811899000000267,舒畅,k,1,0.6067284000018844,YM,f,20,2024_Apr_18_1509,mian,2021.2.3,59.97674101990075,
,,,,,,0,0,pic/flanker5.png,pic/flanker1.png,s,l,pic/AffRest3.png,,,,,,,,,,,,,,,,,,,,,,,,,0,2,2,2,0,1,1,3,,,,1208.9240887000014,None,1207.7406842000019,1208.940639200002,s,1,0.364173000001756,慌忙,l,1,0.6107363000010082,YM,f,20,2024_Apr_18_1509,mian,2021.2.3,59.97674101990075,
,,,,,,1,0,pic/flanker6.png,pic/flanker4.png,s,l,pic/AffRest3.png,,,,,,,,,,,,,,,,,,,,,,,,,0,2,2,2,0,2,2,21,,,,1211.940862200001,None,1210.757437100001,1211.957295600001,s,1,0.4713456999998016,丢失,l,1,0.6223780000000261,YM,f,20,2024_Apr_18_1509,mian,2021.2.3,59.97674101990075,
,,,,,,1,0,pic/flanker5.png,pic/flanker3.png,a,l,pic/AffRest3.png,,,,,,,,,,,,,,,,,,,,,,,,,0,2,2,2,0,3,3,31,,,,1215.0732605000012,None,1213.8907197000008,1215.0907165000026,a,1,0.6521848999982467,争吵,l,1,0.6704953000007663,YM,f,20,2024_Apr_18_1509,mian,2021.2.3,59.97674101990075,
,,,,,,1,1,pic/flanker6.png,pic/flanker4.png,s,k,pic/AffRest3.png,,,,,,,,,,,,,,,,,,,,,,,,,0,2,2,2,0,4,4,78,,,,1218.3400488000007,None,1217.1565455000018,1218.3565750000016,s,1,0.49676370000088355,典雅,k,1,0.5555746000027284,YM,f,20,2024_Apr_18_1509,mian,2021.2.3,59.97674101990075,
,,,,,,0,1,pic/flanker6.png,pic/flanker2.png,a,k,pic/AffRest3.png,,,,,,,,,,,,,,,,,,,,,,,,,0,2,2,2,0,5,5,10,,,,1221.4241522000011,None,1220.2405731000035,1221.4406796000003,a,1,0.38297590000001946,吉祥,k,1,0.5227451000027941,YM,f,20,2024_Apr_18_1509,mian,2021.2.3,59.97674101990075,
,,,,,,0,0,pic/flanker5.png,pic/flanker1.png,s,l,pic/AffRest3.png,,,,,,,,,,,,,,,,,,,,,,,,,0,2,2,2,0,6,6,59,,,,1224.1741095000034,None,1222.990752900001,1224.1907708000035,s,1,0.36994769999728305,孤单,l,1,0.8176000000021304,YM,f,20,2024_Apr_18_1509,mian,2021.2.3,59.97674101990075,
,,,,,,1,0,pic/flanker6.png,pic/flanker4.png,s,l,pic/AffRest3.png,,,,,,,,,,,,,,,,,,,,,,,,,0,2,2,2,0,7,7,61,,,,1227.390750300001,None,1226.207628600001,1227.4074101000006,s,1,0.4346229000002495,黑暗,l,1,0.5309723999998823,YM,f,20,2024_Apr_18_1509,mian,2021.2.3,59.97674101990075,
,,,,,,0,0,pic/flanker5.png,pic/flanker1.png,s,l,pic/AffRest3.png,,,,,,,,,,,,,,,,,,,,,,,,,0,2,2,2,0,8,8,51,,,,1230.3906017000008,None,1229.2071209000023,1230.4075367000005,s,1,0.3535184000029403,伤心,l,1,0.550801200002752,YM,f,20,2024_Apr_18_1509,mian,2021.2.3,59.97674101990075,
,,,,,,0,1,pic/flanker6.png,pic/flanker2.png,a,k,pic/AffRest3.png,,,,,,,,,,,,,,,,,,,,,,,,,0,2,2,2,0,9,9,26,,,,1233.2406671000026,None,1232.057496700003,1233.2574590000004,a,1,0.40797050000037416,富足,k,1,0.5944115000020247,YM,f,20,2024_Apr_18_1509,mian,2021.2.3,59.97674101990075,
,,,,,,1,1,pic/flanker5.png,pic/flanker3.png,a,k,pic/AffRest3.png,,,,,,,,,,,,,,,,,,,,,,,,,0,2,2,2,0,10,10,20,,,,1236.2409572000033,None,1235.0573909000013,1236.2573630000006,a,1,0.651538599999185,羡慕,l,0,1.41191759999856,YM,f,20,2024_Apr_18_1509,mian,2021.2.3,59.97674101990075,
,,,,,,1,0,pic/flanker5.png,pic/flanker3.png,a,l,pic/AffRest3.png,,,,,,,,,,,,,,,,,,,,,,,,,0,2,2,2,0,11,11,39,,,,1240.1407350000009,None,1238.957268500002,1240.1572864000009,a,1,0.5500394999980927,厌恶,l,1,0.5940399999999499,YM,f,20,2024_Apr_18_1509,mian,2021.2.3,59.97674101990075,
,,,,,,1,0,pic/flanker6.png,pic/flanker4.png,s,l,pic/AffRest3.png,,,,,,,,,,,,,,,,,,,,,,,,,0,2,2,2,0,12,12,29,,,,1243.1905162000003,None,1242.0073907000005,1243.2073849000008,s,1,0.5502171000007365,嘲笑,l,1,0.588044500000251,YM,f,20,2024_Apr_18_1509,mian,2021.2.3,59.97674101990075,
,,,,,,1,1,pic/flanker6.png,pic/flanker4.png,s,k,pic/AffRest3.png,,,,,,,,,,,,,,,,,,,,,,,,,0,2,2,2,0,13,13,30,,,,1246.2739701000028,None,1245.0904910000027,1246.2906518000018,s,1,0.4496368000000075,旺盛,k,1,0.6577391999999236,YM,f,20,2024_Apr_18_1509,mian,2021.2.3,59.97674101990075,
,,,,,,1,0,pic/flanker5.png,pic/flanker3.png,a,l,pic/AffRest3.png,,,,,,,,,,,,,,,,,,,,,,,,,0,2,2,2,0,14,14,63,,,,1249.3241159000027,None,1248.1407253000034,1249.3404593000014,a,1,0.4493801999997231,落后,l,1,0.5381321999993816,YM,f,20,2024_Apr_18_1509,mian,2021.2.3,59.97674101990075,
,,,,,,0,1,pic/flanker6.png,pic/flanker2.png,a,k,pic/AffRest3.png,,,,,,,,,,,,,,,,,,,,,,,,,0,2,2,2,0,15,15,74,,,,1252.1742090000007,None,1250.9906100000007,1252.1904792000023,a,1,0.3394090999972832,振作,k,1,0.7087838000006741,YM,f,20,2024_Apr_18_1509,mian,2021.2.3,59.97674101990075,
,,,,,,0,0,pic/flanker6.png,pic/flanker2.png,a,l,pic/AffRest3.png,,,,,,,,,,,,,,,,,,,,,,,,,0,2,2,2,0,16,16,9,,,,1255.0907683000005,None,1253.9073422000001,1255.1073308000014,a,1,0.36051360000055865,消沉,k,0,0.6570140000003448,YM,f,20,2024_Apr_18_1509,mian,2021.2.3,59.97674101990075,
,,,,,,1,0,pic/flanker6.png,pic/flanker4.png,s,l,pic/AffRest3.png,,,,,,,,,,,,,,,,,,,,,,,,,0,2,2,2,0,17,17,69,,,,1258.0902038000022,None,1256.9073142000016,1258.1076250000006,s,1,0.5346955999993952,浪费,l,1,0.8455661999978474,YM,f,20,2024_Apr_18_1509,mian,2021.2.3,59.97674101990075,
,,,,,,1,1,pic/flanker5.png,pic/flanker3.png,a,k,pic/AffRest3.png,,,,,,,,,,,,,,,,,,,,,,,,,0,2,2,2,0,18,18,68,,,,1261.3074656000026,None,1260.1238585000028,1261.3240202000015,a,1,0.6897624000012001,雄厚,k,1,0.8224749000000884,YM,f,20,2024_Apr_18_1509,mian,2021.2.3,59.97674101990075,
,,,,,,1,1,pic/flanker5.png,pic/flanker3.png,a,k,pic/AffRest3.png,,,,,,,,,,,,,,,,,,,,,,,,,0,2,2,2,0,19,19,44,,,,1264.6908118000028,None,1263.507327700001,1264.707339800003,a,1,0.7147323000026518,诚恳,l,0,0.7104322000013781,YM,f,20,2024_Apr_18_1509,mian,2021.2.3,59.97674101990075,
,,,,,,0,1,pic/flanker6.png,pic/flanker2.png,a,k,pic/AffRest3.png,,,,,,,,,,,,,,,,,,,,,,,,,0,2,2,2,0,20,20,2,,,,1268.0907544000002,None,1266.9072313000033,1268.1073402000002,a,1,0.37114870000004885,生动,k,1,1.1735078999990947,YM,f,20,2024_Apr_18_1509,mian,2021.2.3,59.97674101990075,
,,,,,,0,0,pic/flanker6.png,pic/flanker2.png,a,l,pic/AffRest3.png,,,,,,,,,,,,,,,,,,,,,,,,,0,2,2,2,0,21,21,1,,,,1271.6906993000011,None,1270.5071990000033,1271.707144400003,a,1,0.347856899999897,堵塞,l,1,0.7620487999993202,YM,f,20,2024_Apr_18_1509,mian,2021.2.3,59.97674101990075,
,,,,,,1,1,pic/flanker5.png,pic/flanker3.png,a,k,pic/AffRest3.png,,,,,,,,,,,,,,,,,,,,,,,,,0,2,2,2,0,22,22,4,,,,1274.7740441000024,None,1273.5907074000024,1274.7906900000016,a,1,0.44007849999979953,奉献,k,1,0.582698000001983,YM,f,20,2024_Apr_18_1509,mian,2021.2.3,59.97674101990075,
,,,,,,0,1,pic/flanker5.png,pic/flanker1.png,s,k,pic/AffRest3.png,,,,,,,,,,,,,,,,,,,,,,,,,0,2,2,2,0,23,23,24,,,,1277.6904972000011,None,1276.5068017000012,1277.7074539000023,s,1,0.41410959999848274,瑰丽,k,1,0.6186206999991555,YM,f,20,2024_Apr_18_1509,mian,2021.2.3,59.97674101990075,
,,,,,,1,0,pic/flanker5.png,pic/flanker3.png,a,l,pic/AffRest3.png,,,,,,,,,,,,,,,,,,,,,,,,,0,2,2,2,0,24,24,71,,,,1280.5573182000007,None,1279.374246700001,1280.5739248000027,a,1,0.4403477000014391,冷笑,l,1,0.5678296999976737,YM,f,20,2024_Apr_18_1509,mian,2021.2.3,59.97674101990075,
,,,,,,0,0,pic/flanker5.png,pic/flanker1.png,s,l,pic/AffRest3.png,,,,,,,,,,,,,,,,,,,,,,,,,0,2,2,2,0,25,25,27,,,,1283.3907899000005,None,1282.207230400003,1283.407155300003,s,1,0.5422247000024072,闷热,l,1,2.235429699998349,YM,f,20,2024_Apr_18_1509,mian,2021.2.3,59.97674101990075,
,,,,,,1,1,pic/flanker6.png,pic/flanker4.png,s,k,pic/AffRest3.png,,,,,,,,,,,,,,,,,,,,,,,,,0,2,2,2,0,26,26,14,,,,1288.007344900001,None,1286.8240178000015,1288.0240825,s,1,0.6662782999992487,豪放,k,1,0.6797313000024587,YM,f,20,2024_Apr_18_1509,mian,2021.2.3,59.97674101990075,
,,,,,,1,0,pic/flanker6.png,pic/flanker4.png,s,l,pic/AffRest3.png,,,,,,,,,,,,,,,,,,,,,,,,,0,2,2,2,0,27,27,53,,,,1291.190687000002,None,1290.0072820000023,1291.2073185000008,s,1,1.3507119999994757,假冒,l,1,1.6646332000018447,YM,f,20,2024_Apr_18_1509,mian,2021.2.3,59.97674101990075,
,,,,,,0,0,pic/flanker5.png,pic/flanker1.png,s,l,pic/AffRest3.png,,,,,,,,,,,,,,,,,,,,,,,,,0,2,2,2,0,28,28,67,,,,1296.2573957000022,None,1295.0737536000015,1296.274021600002,s,1,0.3979356000018015,处罚,l,1,0.5642714000023261,YM,f,20,2024_Apr_18_1509,mian,2021.2.3,59.97674101990075,
,,,,,,0,0,pic/flanker6.png,pic/flanker2.png,a,l,pic/AffRest3.png,,,,,,,,,,,,,,,,,,,,,,,,,0,2,2,2,0,29,29,17,,,,1299.1572786000033,None,1297.9738139,1299.1740274000003,a,1,0.3866870999991079,撒谎,l,1,0.5429478999976709,YM,f,20,2024_Apr_18_1509,mian,2021.2.3,59.97674101990075,
,,,,,,0,0,pic/flanker5.png,pic/flanker1.png,s,l,pic/AffRest3.png,,,,,,,,,,,,,,,,,,,,,,,,,0,2,2,2,0,30,30,43,,,,1302.0405892000017,None,1300.8572250000034,1302.057363900003,s,1,0.34912959999928717,轻率,l,1,0.591323900000134,YM,f,20,2024_Apr_18_1509,mian,2021.2.3,59.97674101990075,
,,,,,,1,1,pic/flanker6.png,pic/flanker4.png,s,k,pic/AffRest3.png,,,,,,,,,,,,,,,,,,,,,,,,,0,2,2,2,0,31,31,70,,,,1305.0066891000024,None,1303.8238532000032,1305.0233644,s,1,0.4133972999989055,畅销,k,1,0.700294500002201,YM,f,20,2024_Apr_18_1509,mian,2021.2.3,59.97674101990075,
,,,,,,0,1,pic/flanker5.png,pic/flanker1.png,s,k,pic/AffRest3.png,,,,,,,,,,,,,,,,,,,,,,,,,0,2,2,2,0,32,32,16,,,,1308.0905940000011,None,1306.9071594000015,1308.1071276000002,s,1,0.4057858000014676,赞成,k,1,0.6564823999979126,YM,f,20,2024_Apr_18_1509,mian,2021.2.3,59.97674101990075,
,,,,,,0,1,pic/flanker5.png,pic/flanker1.png,s,k,pic/AffRest3.png,,,,,,,,,,,,,,,,,,,,,,,,,0,2,2,2,0,33,33,0,,,,1311.0571367000011,None,1309.873510100002,1311.0737363000007,s,1,0.35516329999882146,秀丽,k,1,0.5822162000004028,YM,f,20,2024_Apr_18_1509,mian,2021.2.3,59.97674101990075,
,,,,,,1,0,pic/flanker6.png,pic/flanker4.png,s,l,pic/AffRest3.png,,,,,,,,,,,,,,,,,,,,,,,,,0,2,2,2,0,34,34,77,,,,1313.9239018000007,None,1312.7405281000028,1313.9406874000015,s,1,1.0852553000004264,沮丧,l,1,0.5934220999988611,YM,f,20,2024_Apr_18_1509,mian,2021.2.3,59.97674101990075,
,,,,,,0,0,pic/flanker6.png,pic/flanker2.png,a,l,pic/AffRest3.png,,,,,,,,,,,,,,,,,,,,,,,,,0,2,2,2,0,35,35,41,,,,1317.5406266000027,None,1316.357283100002,1317.5571633,a,1,0.44984950000070967,逃避,l,1,0.848798999999417,YM,f,20,2024_Apr_18_1509,mian,2021.2.3,59.97674101990075,
,,,,,,1,1,pic/flanker5.png,pic/flanker3.png,a,k,pic/AffRest3.png,,,,,,,,,,,,,,,,,,,,,,,,,0,2,2,2,0,36,36,76,,,,1320.7239217000024,None,1319.5404770000023,1320.7406659000007,a,1,0.6088804999999411,有利,l,0,0.6931084999996528,YM,f,20,2024_Apr_18_1509,mian,2021.2.3,59.97674101990075,
,,,,,,1,1,pic/flanker5.png,pic/flanker3.png,a,k,pic/AffRest3.png,,,,,,,,,,,,,,,,,,,,,,,,,0,2,2,2,0,37,37,52,,,,1323.9072977000033,None,1322.723895500003,1323.9239379000028,a,1,0.6279998000027263,丰满,k,1,0.5529222000004665,YM,f,20,2024_Apr_18_1509,mian,2021.2.3,59.97674101990075,
,,,,,,0,1,pic/flanker6.png,pic/flanker2.png,a,k,pic/AffRest3.png,,,,,,,,,,,,,,,,,,,,,,,,,0,2,2,2,0,38,38,18,,,,1327.0409144000005,None,1325.8569936000022,1327.0572255000006,a,1,0.4660174000018742,爽朗,k,1,1.7250252000012551,YM,f,20,2024_Apr_18_1509,mian,2021.2.3,59.97674101990075,
,,,,,,0,1,pic/flanker6.png,pic/flanker2.png,a,k,pic/AffRest3.png,,,,,,,,,,,,,,,,,,,,,,,,,0,2,2,2,0,39,39,66,,,,1331.1239918000028,None,1329.9405253000004,1331.1406881000003,a,1,0.46162660000118194,如愿,k,1,0.6648486000012781,YM,f,20,2024_Apr_18_1509,mian,2021.2.3,59.97674101990075,
,,,,,,1,0,pic/flanker6.png,pic/flanker4.png,s,l,pic/AffRest3.png,,,,,,,,,,,,,,,,,,,,,,,,,0,2,2,2,0,40,40,45,,,,1334.1409073000032,None,1332.9573684000025,1334.1572822000016,s,1,0.5243273999985831,自卑,l,1,0.621327900000324,YM,f,20,2024_Apr_18_1509,mian,2021.2.3,59.97674101990075,
,,,,,,0,1,pic/flanker5.png,pic/flanker1.png,s,k,pic/AffRest3.png,,,,,,,,,,,,,,,,,,,,,,,,,0,2,2,2,0,41,41,40,,,,1337.2900014000006,None,1336.1070104000028,1337.3065970000025,s,1,0.4096577999989677,永恒,k,1,0.5731793000013568,YM,f,20,2024_Apr_18_1509,mian,2021.2.3,59.97674101990075,
,,,,,,1,0,pic/flanker5.png,pic/flanker3.png,a,l,pic/AffRest3.png,,,,,,,,,,,,,,,,,,,,,,,,,0,2,2,2,0,42,42,15,,,,1340.1565439000005,None,1338.9739085,1340.1734051000021,a,1,0.4269888999988325,罚款,l,1,0.5914735000005749,YM,f,20,2024_Apr_18_1509,mian,2021.2.3,59.97674101990075,
,,,,,,0,0,pic/flanker6.png,pic/flanker2.png,a,l,pic/AffRest3.png,,,,,,,,,,,,,,,,,,,,,,,,,0,2,2,2,0,43,43,25,,,,1343.107254100003,None,1341.9238829000024,1343.1238725000003,a,1,0.394285200000013,鲁莽,l,1,0.7448064000018348,YM,f,20,2024_Apr_18_1509,mian,2021.2.3,59.97674101990075,
,,,,,,0,1,pic/flanker5.png,pic/flanker1.png,s,k,pic/AffRest3.png,,,,,,,,,,,,,,,,,,,,,,,,,0,2,2,2,0,44,44,64,,,,1346.123537800002,None,1344.939876700002,1346.1400285000018,s,1,0.683200499999657,充裕,k,1,0.6030276999990747,YM,f,20,2024_Apr_18_1509,mian,2021.2.3,59.97674101990075,
,,,,,,0,1,pic/flanker6.png,pic/flanker2.png,a,k,pic/AffRest3.png,,,,,,,,,,,,,,,,,,,,,,,,,0,2,2,2,0,45,45,42,,,,1349.3064663000005,None,1348.1238490000032,1349.3231842000023,a,1,0.3654796999981045,优雅,k,1,0.6358110000001034,YM,f,20,2024_Apr_18_1509,mian,2021.2.3,59.97674101990075,
,,,,,,0,1,pic/flanker5.png,pic/flanker1.png,s,k,pic/AffRest3.png,,,,,,,,,,,,,,,,,,,,,,,,,0,2,2,2,0,46,46,32,,,,1352.239964700002,None,1351.0570221000016,1352.256536500001,s,1,0.3625726000027498,鲜艳,k,1,0.6142806999996537,YM,f,20,2024_Apr_18_1509,mian,2021.2.3,59.97674101990075,
,,,,,,0,0,pic/flanker6.png,pic/flanker2.png,a,l,pic/AffRest3.png,,,,,,,,,,,,,,,,,,,,,,,,,0,2,2,2,0,47,47,65,,,,1355.257123200001,None,1354.073839200002,1355.2738339000025,a,1,0.5862927999987733,焦躁,l,1,0.5362227000005078,YM,f,20,2024_Apr_18_1509,mian,2021.2.3,59.97674101990075,
,,,,,,0,0,pic/flanker6.png,pic/flanker2.png,a,l,pic/AffRest3.png,,,,,,,,,,,,,,,,,,,,,,,,,0,2,2,2,0,48,48,49,,,,1358.4237104000022,None,1357.2400826000012,1358.4405889000009,a,1,0.3745220999990124,杂乱,l,1,0.676875299999665,YM,f,20,2024_Apr_18_1509,mian,2021.2.3,59.97674101990075,
,,,,,,1,0,pic/flanker5.png,pic/flanker3.png,a,l,pic/AffRest3.png,,,,,,,,,,,,,,,,,,,,,,,,,0,2,2,2,0,49,49,23,,,,1361.307320400003,None,1360.1235717000018,1361.323892100001,a,1,0.45028180000008433,郁闷,l,1,0.8880528999980015,YM,f,20,2024_Apr_18_1509,mian,2021.2.3,59.97674101990075,
,,,,,,1,0,pic/flanker5.png,pic/flanker3.png,a,l,pic/AffRest3.png,,,,,,,,,,,,,,,,,,,,,,,,,0,2,2,2,0,50,50,79,,,,1364.4905701000025,None,1363.3072002000008,1364.5070266000002,a,1,0.4883631000011519,怀疑,l,1,0.4932164999991073,YM,f,20,2024_Apr_18_1509,mian,2021.2.3,59.97674101990075,
,,,,,,1,1,pic/flanker6.png,pic/flanker4.png,s,k,pic/AffRest3.png,,,,,,,,,,,,,,,,,,,,,,,,,0,2,2,2,0,51,51,62,,,,1367.5067600000002,None,1366.3231834000035,1367.5234705000003,s,1,0.502723599998717,珍藏,k,1,0.5306548000007751,YM,f,20,2024_Apr_18_1509,mian,2021.2.3,59.97674101990075,
,,,,,,0,0,pic/flanker5.png,pic/flanker1.png,s,l,pic/AffRest3.png,,,,,,,,,,,,,,,,,,,,,,,,,0,2,2,2,0,52,52,35,,,,1370.4237104000022,None,1369.240461100002,1370.4399823000022,s,1,0.33630880000055186,忧虑,l,1,0.8112105000000156,YM,f,20,2024_Apr_18_1509,mian,2021.2.3,59.97674101990075,
,,,,,,1,1,pic/flanker6.png,pic/flanker4.png,s,k,pic/AffRest3.png,,,,,,,,,,,,,,,,,,,,,,,,,0,2,2,2,0,53,53,22,,,,1373.507402700001,None,1372.3234871000022,1373.5240780000022,s,1,0.5433737999992445,前进,k,1,0.8071705000002112,YM,f,20,2024_Apr_18_1509,mian,2021.2.3,59.97674101990075,
,,,,,,1,0,pic/flanker5.png,pic/flanker3.png,a,l,pic/AffRest3.png,,,,,,,,,,,,,,,,,,,,,,,,,0,2,2,2,0,54,54,55,,,,1376.790279300003,None,1375.6071566000028,1376.8071427000032,a,1,0.46777320000182954,缺乏,l,1,0.6118002000002889,YM,f,20,2024_Apr_18_1509,mian,2021.2.3,59.97674101990075,
,,,,,,1,1,pic/flanker5.png,pic/flanker3.png,a,k,pic/AffRest3.png,,,,,,,,,,,,,,,,,,,,,,,,,0,2,2,2,0,55,55,36,,,,1379.7062877000026,None,1378.5239047000032,1379.7235040000014,a,1,1.0165137000003597,清秀,k,1,0.7397061000010581,YM,f,20,2024_Apr_18_1509,mian,2021.2.3,59.97674101990075,
,,,,,,1,1,pic/flanker5.png,pic/flanker3.png,a,k,pic/AffRest3.png,,,,,,,,,,,,,,,,,,,,,,,,,0,2,2,2,0,56,56,12,,,,1383.4072930000002,None,1382.2238956,1383.4238477,a,1,0.39682060000268393,顽强,k,1,1.268448899998475,YM,f,20,2024_Apr_18_1509,mian,2021.2.3,59.97674101990075,
,,,,,,0,0,pic/flanker6.png,pic/flanker2.png,a,l,pic/AffRest3.png,,,,,,,,,,,,,,,,,,,,,,,,,0,2,2,2,0,57,57,73,,,,1387.0070811000005,None,1385.8237230000013,1387.0238239000028,a,1,0.3829026999992493,胡涂,l,1,0.8738749999974971,YM,f,20,2024_Apr_18_1509,mian,2021.2.3,59.97674101990075,
,,,,,,1,1,pic/flanker5.png,pic/flanker3.png,a,k,pic/AffRest3.png,,,,,,,,,,,,,,,,,,,,,,,,,0,2,2,2,0,58,58,60,,,,1390.2568956000032,None,1389.073601400003,1390.2736301000004,a,1,0.4117261999999755,留恋,None,0,,YM,f,20,2024_Apr_18_1509,mian,2021.2.3,59.97674101990075,
,,,,,,0,0,pic/flanker5.png,pic/flanker1.png,s,l,pic/AffRest3.png,,,,,,,,,,,,,,,,,,,,,,,,,0,2,2,2,0,59,59,11,,,,1395.190151400002,None,1394.0065845000026,1395.206764300001,s,1,0.8577162000001408,悲观,l,1,0.8406336999978521,YM,f,20,2024_Apr_18_1509,mian,2021.2.3,59.97674101990075,
,,,,,,0,0,pic/flanker6.png,pic/flanker2.png,a,l,pic/AffRest3.png,,,,,,,,,,,,,,,,,,,,,,,,,0,2,2,2,0,60,60,33,,,,1398.940512600002,None,1397.7570166000005,1398.9570858000006,a,1,0.36779659999956493,禁止,l,1,0.5551569999988715,YM,f,20,2024_Apr_18_1509,mian,2021.2.3,59.97674101990075,
