target,反应类型,条件,truetarget,CorAns,Position,congruency,AffValue,flankerPic,targetPic,corAnsF,corAnsA,RestPic,returnPractice.thisRepN,returnPractice.thisTrialN,returnPractice.thisN,returnPractice.thisIndex,pracNum.thisRepN,pracNum.thisTrialN,pracNum.thisN,pracNum.thisIndex,NumBlock1.thisRepN,NumBlock1.thisTrialN,NumBlock1.thisN,NumBlock1.thisIndex,NumBlock2.thisRepN,NumBlock2.thisTrialN,NumBlock2.thisN,NumBlock2.thisIndex,returnPrac.thisRepN,returnPrac.thisTrialN,returnPrac.thisN,returnPrac.thisIndex,PracAff.thisRepN,PracAff.thisTrialN,PracAff.thisN,PracAff.thisIndex,AffBlocks.thisRepN,AffBlocks.thisTrialN,AffBlocks.thisN,AffBlocks.thisIndex,AffBlock1.thisRepN,AffBlock1.thisTrialN,AffBlock1.thisN,AffBlock1.thisIndex,respNum2word.keys,respNum2word.corr,respNum2word.rt,text.started,text.stopped,blank.started,blank.stopped,respFlanker.keys,respFlanker.corr,respFlanker.rt,thisWord,respAffWord.keys,respAffWord.corr,respAffWord.rt,姓名,性别,年龄（周岁）,date,expName,psychopyVersion,frameRate
2A,1,1,A,a,"[0.2, 0.2]",,,,,,,,0,0,0,0,0,0,0,0,,,,,,,,,,,,,,,,,,,,,,,,,a,1,1.767414,,,,,,,,,,,,zy,m,20,2024_Apr_18_0857,mian,2021.2.3,59.86665302
A9,1,2,A,a,"[-0.2, 0.2]",,,,,,,,0,0,0,0,0,1,1,1,,,,,,,,,,,,,,,,,,,,,,,,,a,1,1.1159126,,,,,,,,,,,,zy,m,20,2024_Apr_18_0857,mian,2021.2.3,59.86665302
7e,2,1,7,a,"[-0.2, -0.2]",,,,,,,,0,0,0,0,0,2,2,2,,,,,,,,,,,,,,,,,,,,,,,,,a,1,1.6899913,,,,,,,,,,,,zy,m,20,2024_Apr_18_0857,mian,2021.2.3,59.86665302
9H,2,2,9,a,"[0.2, -0.2]",,,,,,,,0,0,0,0,0,3,3,3,,,,,,,,,,,,,,,,,,,,,,,,,a,1,0.7841596,,,,,,,,,,,,zy,m,20,2024_Apr_18_0857,mian,2021.2.3,59.86665302
h4,1,1,h,l,"[0.2, 0.2]",,,,,,,,0,0,0,0,0,4,4,4,,,,,,,,,,,,,,,,,,,,,,,,,l,1,2.0158285,,,,,,,,,,,,zy,m,20,2024_Apr_18_0857,mian,2021.2.3,59.86665302
4H,1,2,H,a,"[-0.2, 0.2]",,,,,,,,0,0,0,0,0,5,5,5,,,,,,,,,,,,,,,,,,,,,,,,,a,1,1.1240342,,,,,,,,,,,,zy,m,20,2024_Apr_18_0857,mian,2021.2.3,59.86665302
F8,2,1,8,l,"[-0.2, -0.2]",,,,,,,,0,0,0,0,0,6,6,6,,,,,,,,,,,,,,,,,,,,,,,,,a,0,0.8937327,,,,,,,,,,,,zy,m,20,2024_Apr_18_0857,mian,2021.2.3,59.86665302
h7,2,2,7,a,"[0.2, -0.2]",,,,,,,,0,0,0,0,0,7,7,7,,,,,,,,,,,,,,,,,,,,,,,,,a,1,2.6573364,,,,,,,,,,,,zy,m,20,2024_Apr_18_0857,mian,2021.2.3,59.86665302
5e,1,1,e,l,"[0.2, 0.2]",,,,,,,,0,0,0,0,0,8,8,8,,,,,,,,,,,,,,,,,,,,,,,,,l,1,1.9971142,,,,,,,,,,,,zy,m,20,2024_Apr_18_0857,mian,2021.2.3,59.86665302
e8,1,2,e,l,"[-0.2, 0.2]",,,,,,,,0,0,0,0,0,9,9,9,,,,,,,,,,,,,,,,,,,,,,,,,l,1,0.8325681,,,,,,,,,,,,zy,m,20,2024_Apr_18_0857,mian,2021.2.3,59.86665302
4E,2,1,4,l,"[-0.2, -0.2]",,,,,,,,0,0,0,0,0,10,10,10,,,,,,,,,,,,,,,,,,,,,,,,,l,1,1.6991677,,,,,,,,,,,,zy,m,20,2024_Apr_18_0857,mian,2021.2.3,59.86665302
5H,2,2,5,a,"[0.2, -0.2]",,,,,,,,0,0,0,0,0,11,11,11,,,,,,,,,,,,,,,,,,,,,,,,,a,1,0.996949,,,,,,,,,,,,zy,m,20,2024_Apr_18_0857,mian,2021.2.3,59.86665302
9E,1,1,E,a,"[0.2, 0.2]",,,,,,,,0,0,0,0,0,12,12,12,,,,,,,,,,,,,,,,,,,,,,,,,a,1,1.1912172,,,,,,,,,,,,zy,m,20,2024_Apr_18_0857,mian,2021.2.3,59.86665302
h9,1,2,h,l,"[-0.2, 0.2]",,,,,,,,0,0,0,0,0,13,13,13,,,,,,,,,,,,,,,,,,,,,,,,,l,1,2.0630828,,,,,,,,,,,,zy,m,20,2024_Apr_18_0857,mian,2021.2.3,59.86665302
2a,2,1,2,l,"[-0.2, -0.2]",,,,,,,,0,0,0,0,0,14,14,14,,,,,,,,,,,,,,,,,,,,,,,,,l,1,1.3075602,,,,,,,,,,,,zy,m,20,2024_Apr_18_0857,mian,2021.2.3,59.86665302
e5,2,2,5,a,"[0.2, -0.2]",,,,,,,,0,0,0,0,0,15,15,15,,,,,,,,,,,,,,,,,,,,,,,,,a,1,1.6415591,,,,,,,,,,,,zy,m,20,2024_Apr_18_0857,mian,2021.2.3,59.86665302
A5,1,1,A,a,"[0.2, 0.2]",,,,,,,,0,0,0,0,0,16,16,16,,,,,,,,,,,,,,,,,,,,,,,,,a,1,1.1784792,,,,,,,,,,,,zy,m,20,2024_Apr_18_0857,mian,2021.2.3,59.86665302
a6,1,2,a,l,"[-0.2, 0.2]",,,,,,,,0,0,0,0,0,17,17,17,,,,,,,,,,,,,,,,,,,,,,,,,l,1,1.0085067,,,,,,,,,,,,zy,m,20,2024_Apr_18_0857,mian,2021.2.3,59.86665302
2F,2,1,2,l,"[-0.2, -0.2]",,,,,,,,0,0,0,0,0,18,18,18,,,,,,,,,,,,,,,,,,,,,,,,,l,1,0.9495817,,,,,,,,,,,,zy,m,20,2024_Apr_18_0857,mian,2021.2.3,59.86665302
e4,2,2,4,l,"[0.2, -0.2]",,,,,,,,0,0,0,0,0,19,19,19,,,,,,,,,,,,,,,,,,,,,,,,,l,1,0.798761,,,,,,,,,,,,zy,m,20,2024_Apr_18_0857,mian,2021.2.3,59.86665302
,,,,,,,,,,,,,0,0,0,0,,,,,,,,,,,,,,,,,,,,,,,,,,,,,,,,,,,,,,,,,,,zy,m,20,2024_Apr_18_0857,mian,2021.2.3,59.86665302
7h,1,1,h,l,"[0.2, 0.2]",,,,,,,,,,,,,,,,0,0,0,0,,,,,,,,,,,,,,,,,,,,,l,1,1.3324349,,,,,,,,,,,,zy,m,20,2024_Apr_18_0857,mian,2021.2.3,59.86665302
8F,1,2,F,a,"[-0.2, 0.2]",,,,,,,,,,,,,,,,0,1,1,1,,,,,,,,,,,,,,,,,,,,,a,1,1.252867,,,,,,,,,,,,zy,m,20,2024_Apr_18_0857,mian,2021.2.3,59.86665302
8h,2,1,8,l,"[-0.2, -0.2]",,,,,,,,,,,,,,,,0,2,2,2,,,,,,,,,,,,,,,,,,,,,l,1,1.0106272,,,,,,,,,,,,zy,m,20,2024_Apr_18_0857,mian,2021.2.3,59.86665302
a2,2,2,2,l,"[0.2, -0.2]",,,,,,,,,,,,,,,,0,3,3,3,,,,,,,,,,,,,,,,,,,,,l,1,1.7637648,,,,,,,,,,,,zy,m,20,2024_Apr_18_0857,mian,2021.2.3,59.86665302
8f,1,1,f,l,"[0.2, 0.2]",,,,,,,,,,,,,,,,0,4,4,4,,,,,,,,,,,,,,,,,,,,,l,1,1.8684048,,,,,,,,,,,,zy,m,20,2024_Apr_18_0857,mian,2021.2.3,59.86665302
6a,1,2,a,l,"[-0.2, 0.2]",,,,,,,,,,,,,,,,0,5,5,5,,,,,,,,,,,,,,,,,,,,,l,1,0.8536206,,,,,,,,,,,,zy,m,20,2024_Apr_18_0857,mian,2021.2.3,59.86665302
h6,2,1,6,l,"[-0.2, -0.2]",,,,,,,,,,,,,,,,0,6,6,6,,,,,,,,,,,,,,,,,,,,,l,1,0.9860403,,,,,,,,,,,,zy,m,20,2024_Apr_18_0857,mian,2021.2.3,59.86665302
f9,2,2,9,a,"[0.2, -0.2]",,,,,,,,,,,,,,,,0,7,7,7,,,,,,,,,,,,,,,,,,,,,a,1,1.2909813,,,,,,,,,,,,zy,m,20,2024_Apr_18_0857,mian,2021.2.3,59.86665302
E4,1,1,E,a,"[0.2, 0.2]",,,,,,,,,,,,,,,,0,8,8,8,,,,,,,,,,,,,,,,,,,,,a,1,0.7620951,,,,,,,,,,,,zy,m,20,2024_Apr_18_0857,mian,2021.2.3,59.86665302
6e,1,2,e,l,"[-0.2, 0.2]",,,,,,,,,,,,,,,,0,9,9,9,,,,,,,,,,,,,,,,,,,,,l,1,0.7513262,,,,,,,,,,,,zy,m,20,2024_Apr_18_0857,mian,2021.2.3,59.86665302
5G,2,1,5,a,"[-0.2, -0.2]",,,,,,,,,,,,,,,,0,10,10,10,,,,,,,,,,,,,,,,,,,,,a,1,1.3044801,,,,,,,,,,,,zy,m,20,2024_Apr_18_0857,mian,2021.2.3,59.86665302
h3,2,2,3,a,"[0.2, -0.2]",,,,,,,,,,,,,,,,0,11,11,11,,,,,,,,,,,,,,,,,,,,,a,1,0.8400588,,,,,,,,,,,,zy,m,20,2024_Apr_18_0857,mian,2021.2.3,59.86665302
9e,1,1,e,l,"[0.2, 0.2]",,,,,,,,,,,,,,,,0,12,12,12,,,,,,,,,,,,,,,,,,,,,l,1,1.4058586,,,,,,,,,,,,zy,m,20,2024_Apr_18_0857,mian,2021.2.3,59.86665302
a8,1,2,a,l,"[-0.2, 0.2]",,,,,,,,,,,,,,,,0,13,13,13,,,,,,,,,,,,,,,,,,,,,l,1,0.6734123,,,,,,,,,,,,zy,m,20,2024_Apr_18_0857,mian,2021.2.3,59.86665302
e8,2,1,8,l,"[-0.2, -0.2]",,,,,,,,,,,,,,,,0,14,14,14,,,,,,,,,,,,,,,,,,,,,l,1,0.8779704,,,,,,,,,,,,zy,m,20,2024_Apr_18_0857,mian,2021.2.3,59.86665302
3f,2,2,3,a,"[0.2, -0.2]",,,,,,,,,,,,,,,,0,15,15,15,,,,,,,,,,,,,,,,,,,,,a,1,0.8129444,,,,,,,,,,,,zy,m,20,2024_Apr_18_0857,mian,2021.2.3,59.86665302
7f,1,1,f,l,"[0.2, 0.2]",,,,,,,,,,,,,,,,0,16,16,16,,,,,,,,,,,,,,,,,,,,,l,1,1.3870459,,,,,,,,,,,,zy,m,20,2024_Apr_18_0857,mian,2021.2.3,59.86665302
a7,1,2,a,l,"[-0.2, 0.2]",,,,,,,,,,,,,,,,0,17,17,17,,,,,,,,,,,,,,,,,,,,,l,1,1.6579615,,,,,,,,,,,,zy,m,20,2024_Apr_18_0857,mian,2021.2.3,59.86665302
5A,2,1,5,a,"[-0.2, -0.2]",,,,,,,,,,,,,,,,0,18,18,18,,,,,,,,,,,,,,,,,,,,,a,1,1.2886971,,,,,,,,,,,,zy,m,20,2024_Apr_18_0857,mian,2021.2.3,59.86665302
8g,2,2,8,l,"[0.2, -0.2]",,,,,,,,,,,,,,,,0,19,19,19,,,,,,,,,,,,,,,,,,,,,l,1,0.7309384,,,,,,,,,,,,zy,m,20,2024_Apr_18_0857,mian,2021.2.3,59.86665302
9a,1,1,a,l,"[0.2, 0.2]",,,,,,,,,,,,,,,,0,20,20,20,,,,,,,,,,,,,,,,,,,,,l,1,1.8457064,,,,,,,,,,,,zy,m,20,2024_Apr_18_0857,mian,2021.2.3,59.86665302
f7,1,2,f,l,"[-0.2, 0.2]",,,,,,,,,,,,,,,,0,21,21,21,,,,,,,,,,,,,,,,,,,,,l,1,0.8183487,,,,,,,,,,,,zy,m,20,2024_Apr_18_0857,mian,2021.2.3,59.86665302
g9,2,1,9,a,"[-0.2, -0.2]",,,,,,,,,,,,,,,,0,22,22,22,,,,,,,,,,,,,,,,,,,,,a,1,0.9402219,,,,,,,,,,,,zy,m,20,2024_Apr_18_0857,mian,2021.2.3,59.86665302
3h,2,2,3,a,"[0.2, -0.2]",,,,,,,,,,,,,,,,0,23,23,23,,,,,,,,,,,,,,,,,,,,,a,1,0.6101618,,,,,,,,,,,,zy,m,20,2024_Apr_18_0857,mian,2021.2.3,59.86665302
E6,1,1,E,a,"[0.2, 0.2]",,,,,,,,,,,,,,,,0,24,24,24,,,,,,,,,,,,,,,,,,,,,a,1,1.3684512,,,,,,,,,,,,zy,m,20,2024_Apr_18_0857,mian,2021.2.3,59.86665302
F6,1,2,F,a,"[-0.2, 0.2]",,,,,,,,,,,,,,,,0,25,25,25,,,,,,,,,,,,,,,,,,,,,a,1,0.5666257,,,,,,,,,,,,zy,m,20,2024_Apr_18_0857,mian,2021.2.3,59.86665302
3A,2,1,3,a,"[-0.2, -0.2]",,,,,,,,,,,,,,,,0,26,26,26,,,,,,,,,,,,,,,,,,,,,a,1,0.9840155,,,,,,,,,,,,zy,m,20,2024_Apr_18_0857,mian,2021.2.3,59.86665302
8H,2,2,8,l,"[0.2, -0.2]",,,,,,,,,,,,,,,,0,27,27,27,,,,,,,,,,,,,,,,,,,,,l,1,0.7005751,,,,,,,,,,,,zy,m,20,2024_Apr_18_0857,mian,2021.2.3,59.86665302
5a,1,1,a,l,"[0.2, 0.2]",,,,,,,,,,,,,,,,0,28,28,28,,,,,,,,,,,,,,,,,,,,,a,0,0.666702,,,,,,,,,,,,zy,m,20,2024_Apr_18_0857,mian,2021.2.3,59.86665302
2h,1,2,h,l,"[-0.2, 0.2]",,,,,,,,,,,,,,,,0,29,29,29,,,,,,,,,,,,,,,,,,,,,l,1,1.8559008,,,,,,,,,,,,zy,m,20,2024_Apr_18_0857,mian,2021.2.3,59.86665302
e5,2,1,5,a,"[-0.2, -0.2]",,,,,,,,,,,,,,,,0,30,30,30,,,,,,,,,,,,,,,,,,,,,a,1,1.7612307,,,,,,,,,,,,zy,m,20,2024_Apr_18_0857,mian,2021.2.3,59.86665302
a3,2,2,3,a,"[0.2, -0.2]",,,,,,,,,,,,,,,,0,31,31,31,,,,,,,,,,,,,,,,,,,,,a,1,3.1228903,,,,,,,,,,,,zy,m,20,2024_Apr_18_0857,mian,2021.2.3,59.86665302
f3,1,1,f,l,"[0.2, 0.2]",,,,,,,,,,,,,,,,0,32,32,32,,,,,,,,,,,,,,,,,,,,,l,1,1.3471972,,,,,,,,,,,,zy,m,20,2024_Apr_18_0857,mian,2021.2.3,59.86665302
2E,1,2,E,a,"[-0.2, 0.2]",,,,,,,,,,,,,,,,0,33,33,33,,,,,,,,,,,,,,,,,,,,,a,1,0.6674597,,,,,,,,,,,,zy,m,20,2024_Apr_18_0857,mian,2021.2.3,59.86665302
2H,2,1,2,l,"[-0.2, -0.2]",,,,,,,,,,,,,,,,0,34,34,34,,,,,,,,,,,,,,,,,,,,,l,1,0.8986006,,,,,,,,,,,,zy,m,20,2024_Apr_18_0857,mian,2021.2.3,59.86665302
H8,2,2,8,l,"[0.2, -0.2]",,,,,,,,,,,,,,,,0,35,35,35,,,,,,,,,,,,,,,,,,,,,l,1,0.6409906,,,,,,,,,,,,zy,m,20,2024_Apr_18_0857,mian,2021.2.3,59.86665302
9g,1,1,g,l,"[0.2, 0.2]",,,,,,,,,,,,,,,,0,36,36,36,,,,,,,,,,,,,,,,,,,,,l,1,1.137594,,,,,,,,,,,,zy,m,20,2024_Apr_18_0857,mian,2021.2.3,59.86665302
5h,1,2,h,l,"[-0.2, 0.2]",,,,,,,,,,,,,,,,0,37,37,37,,,,,,,,,,,,,,,,,,,,,l,1,0.6843831,,,,,,,,,,,,zy,m,20,2024_Apr_18_0857,mian,2021.2.3,59.86665302
e4,2,1,4,l,"[-0.2, -0.2]",,,,,,,,,,,,,,,,0,38,38,38,,,,,,,,,,,,,,,,,,,,,l,1,0.9885088,,,,,,,,,,,,zy,m,20,2024_Apr_18_0857,mian,2021.2.3,59.86665302
9h,2,2,9,a,"[0.2, -0.2]",,,,,,,,,,,,,,,,0,39,39,39,,,,,,,,,,,,,,,,,,,,,a,1,0.9604247,,,,,,,,,,,,zy,m,20,2024_Apr_18_0857,mian,2021.2.3,59.86665302
G3,1,1,G,a,"[0.2, 0.2]",,,,,,,,,,,,,,,,0,40,40,40,,,,,,,,,,,,,,,,,,,,,a,1,1.0119199,,,,,,,,,,,,zy,m,20,2024_Apr_18_0857,mian,2021.2.3,59.86665302
9A,1,2,A,a,"[-0.2, 0.2]",,,,,,,,,,,,,,,,0,41,41,41,,,,,,,,,,,,,,,,,,,,,a,1,1.0431095,,,,,,,,,,,,zy,m,20,2024_Apr_18_0857,mian,2021.2.3,59.86665302
H5,2,1,5,a,"[-0.2, -0.2]",,,,,,,,,,,,,,,,0,42,42,42,,,,,,,,,,,,,,,,,,,,,a,1,0.9419926,,,,,,,,,,,,zy,m,20,2024_Apr_18_0857,mian,2021.2.3,59.86665302
4e,2,2,4,l,"[0.2, -0.2]",,,,,,,,,,,,,,,,0,43,43,43,,,,,,,,,,,,,,,,,,,,,l,1,1.0392456,,,,,,,,,,,,zy,m,20,2024_Apr_18_0857,mian,2021.2.3,59.86665302
E2,1,1,E,a,"[0.2, 0.2]",,,,,,,,,,,,,,,,0,44,44,44,,,,,,,,,,,,,,,,,,,,,a,1,0.8119075,,,,,,,,,,,,zy,m,20,2024_Apr_18_0857,mian,2021.2.3,59.86665302
A5,1,2,A,a,"[-0.2, 0.2]",,,,,,,,,,,,,,,,0,45,45,45,,,,,,,,,,,,,,,,,,,,,a,1,0.5491743,,,,,,,,,,,,zy,m,20,2024_Apr_18_0857,mian,2021.2.3,59.86665302
2A,2,1,2,l,"[-0.2, -0.2]",,,,,,,,,,,,,,,,0,46,46,46,,,,,,,,,,,,,,,,,,,,,l,1,1.1965491,,,,,,,,,,,,zy,m,20,2024_Apr_18_0857,mian,2021.2.3,59.86665302
6G,2,2,6,l,"[0.2, -0.2]",,,,,,,,,,,,,,,,0,47,47,47,,,,,,,,,,,,,,,,,,,,,l,1,0.6713409,,,,,,,,,,,,zy,m,20,2024_Apr_18_0857,mian,2021.2.3,59.86665302
H3,1,1,H,a,"[0.2, 0.2]",,,,,,,,,,,,,,,,0,48,48,48,,,,,,,,,,,,,,,,,,,,,a,1,0.6602452,,,,,,,,,,,,zy,m,20,2024_Apr_18_0857,mian,2021.2.3,59.86665302
H2,1,2,H,a,"[-0.2, 0.2]",,,,,,,,,,,,,,,,0,49,49,49,,,,,,,,,,,,,,,,,,,,,a,1,0.7444047,,,,,,,,,,,,zy,m,20,2024_Apr_18_0857,mian,2021.2.3,59.86665302
e9,2,1,9,a,"[-0.2, -0.2]",,,,,,,,,,,,,,,,0,50,50,50,,,,,,,,,,,,,,,,,,,,,a,1,1.0804627,,,,,,,,,,,,zy,m,20,2024_Apr_18_0857,mian,2021.2.3,59.86665302
2G,2,2,2,l,"[0.2, -0.2]",,,,,,,,,,,,,,,,0,51,51,51,,,,,,,,,,,,,,,,,,,,,l,1,1.355825,,,,,,,,,,,,zy,m,20,2024_Apr_18_0857,mian,2021.2.3,59.86665302
4f,1,1,f,l,"[0.2, 0.2]",,,,,,,,,,,,,,,,0,52,52,52,,,,,,,,,,,,,,,,,,,,,l,1,1.0805088,,,,,,,,,,,,zy,m,20,2024_Apr_18_0857,mian,2021.2.3,59.86665302
H6,1,2,H,a,"[-0.2, 0.2]",,,,,,,,,,,,,,,,0,53,53,53,,,,,,,,,,,,,,,,,,,,,a,1,1.2330874,,,,,,,,,,,,zy,m,20,2024_Apr_18_0857,mian,2021.2.3,59.86665302
A4,2,1,4,l,"[-0.2, -0.2]",,,,,,,,,,,,,,,,0,54,54,54,,,,,,,,,,,,,,,,,,,,,l,1,1.189288,,,,,,,,,,,,zy,m,20,2024_Apr_18_0857,mian,2021.2.3,59.86665302
3F,2,2,3,a,"[0.2, -0.2]",,,,,,,,,,,,,,,,0,55,55,55,,,,,,,,,,,,,,,,,,,,,a,1,1.5598623,,,,,,,,,,,,zy,m,20,2024_Apr_18_0857,mian,2021.2.3,59.86665302
7e,1,1,e,l,"[0.2, 0.2]",,,,,,,,,,,,,,,,0,56,56,56,,,,,,,,,,,,,,,,,,,,,l,1,2.5897161,,,,,,,,,,,,zy,m,20,2024_Apr_18_0857,mian,2021.2.3,59.86665302
F9,1,2,F,a,"[-0.2, 0.2]",,,,,,,,,,,,,,,,0,57,57,57,,,,,,,,,,,,,,,,,,,,,a,1,0.6676869,,,,,,,,,,,,zy,m,20,2024_Apr_18_0857,mian,2021.2.3,59.86665302
e2,2,1,2,l,"[-0.2, -0.2]",,,,,,,,,,,,,,,,0,58,58,58,,,,,,,,,,,,,,,,,,,,,l,1,1.3025704,,,,,,,,,,,,zy,m,20,2024_Apr_18_0857,mian,2021.2.3,59.86665302
5F,2,2,5,a,"[0.2, -0.2]",,,,,,,,,,,,,,,,0,59,59,59,,,,,,,,,,,,,,,,,,,,,a,1,0.601696,,,,,,,,,,,,zy,m,20,2024_Apr_18_0857,mian,2021.2.3,59.86665302
f6,1,1,f,l,"[0.2, 0.2]",,,,,,,,,,,,,,,,0,60,60,60,,,,,,,,,,,,,,,,,,,,,l,1,1.612808,,,,,,,,,,,,zy,m,20,2024_Apr_18_0857,mian,2021.2.3,59.86665302
7G,1,2,G,a,"[-0.2, 0.2]",,,,,,,,,,,,,,,,0,61,61,61,,,,,,,,,,,,,,,,,,,,,a,1,0.6223238,,,,,,,,,,,,zy,m,20,2024_Apr_18_0857,mian,2021.2.3,59.86665302
e6,2,1,6,l,"[-0.2, -0.2]",,,,,,,,,,,,,,,,0,62,62,62,,,,,,,,,,,,,,,,,,,,,l,1,2.4357297,,,,,,,,,,,,zy,m,20,2024_Apr_18_0857,mian,2021.2.3,59.86665302
3G,2,2,3,a,"[0.2, -0.2]",,,,,,,,,,,,,,,,0,63,63,63,,,,,,,,,,,,,,,,,,,,,a,1,1.4368014,,,,,,,,,,,,zy,m,20,2024_Apr_18_0857,mian,2021.2.3,59.86665302
5E,1,1,E,a,"[0.2, 0.2]",,,,,,,,,,,,,,,,0,64,64,64,,,,,,,,,,,,,,,,,,,,,a,1,0.982907,,,,,,,,,,,,zy,m,20,2024_Apr_18_0857,mian,2021.2.3,59.86665302
A6,1,2,A,a,"[-0.2, 0.2]",,,,,,,,,,,,,,,,0,65,65,65,,,,,,,,,,,,,,,,,,,,,a,1,0.431386,,,,,,,,,,,,zy,m,20,2024_Apr_18_0857,mian,2021.2.3,59.86665302
E3,2,1,3,a,"[-0.2, -0.2]",,,,,,,,,,,,,,,,0,66,66,66,,,,,,,,,,,,,,,,,,,,,a,1,1.1110378,,,,,,,,,,,,zy,m,20,2024_Apr_18_0857,mian,2021.2.3,59.86665302
2f,2,2,2,l,"[0.2, -0.2]",,,,,,,,,,,,,,,,0,67,67,67,,,,,,,,,,,,,,,,,,,,,l,1,0.6338766,,,,,,,,,,,,zy,m,20,2024_Apr_18_0857,mian,2021.2.3,59.86665302
g3,1,1,g,l,"[0.2, 0.2]",,,,,,,,,,,,,,,,0,68,68,68,,,,,,,,,,,,,,,,,,,,,l,1,1.835076,,,,,,,,,,,,zy,m,20,2024_Apr_18_0857,mian,2021.2.3,59.86665302
E8,1,2,E,a,"[-0.2, 0.2]",,,,,,,,,,,,,,,,0,69,69,69,,,,,,,,,,,,,,,,,,,,,a,1,0.6067095,,,,,,,,,,,,zy,m,20,2024_Apr_18_0857,mian,2021.2.3,59.86665302
6g,2,1,6,l,"[-0.2, -0.2]",,,,,,,,,,,,,,,,0,70,70,70,,,,,,,,,,,,,,,,,,,,,l,1,0.968477,,,,,,,,,,,,zy,m,20,2024_Apr_18_0857,mian,2021.2.3,59.86665302
5H,2,2,5,a,"[0.2, -0.2]",,,,,,,,,,,,,,,,0,71,71,71,,,,,,,,,,,,,,,,,,,,,a,1,2.1186392,,,,,,,,,,,,zy,m,20,2024_Apr_18_0857,mian,2021.2.3,59.86665302
4A,1,1,A,a,"[0.2, 0.2]",,,,,,,,,,,,,,,,0,72,72,72,,,,,,,,,,,,,,,,,,,,,a,1,1.675472,,,,,,,,,,,,zy,m,20,2024_Apr_18_0857,mian,2021.2.3,59.86665302
7F,1,2,F,a,"[-0.2, 0.2]",,,,,,,,,,,,,,,,0,73,73,73,,,,,,,,,,,,,,,,,,,,,a,1,0.5996164,,,,,,,,,,,,zy,m,20,2024_Apr_18_0857,mian,2021.2.3,59.86665302
6H,2,1,6,l,"[-0.2, -0.2]",,,,,,,,,,,,,,,,0,74,74,74,,,,,,,,,,,,,,,,,,,,,l,1,1.4204061,,,,,,,,,,,,zy,m,20,2024_Apr_18_0857,mian,2021.2.3,59.86665302
3a,2,2,3,a,"[0.2, -0.2]",,,,,,,,,,,,,,,,0,75,75,75,,,,,,,,,,,,,,,,,,,,,a,1,0.7615535,,,,,,,,,,,,zy,m,20,2024_Apr_18_0857,mian,2021.2.3,59.86665302
9F,1,1,F,a,"[0.2, 0.2]",,,,,,,,,,,,,,,,0,76,76,76,,,,,,,,,,,,,,,,,,,,,a,1,1.1167635,,,,,,,,,,,,zy,m,20,2024_Apr_18_0857,mian,2021.2.3,59.86665302
G7,1,2,G,a,"[-0.2, 0.2]",,,,,,,,,,,,,,,,0,77,77,77,,,,,,,,,,,,,,,,,,,,,a,1,1.0074232,,,,,,,,,,,,zy,m,20,2024_Apr_18_0857,mian,2021.2.3,59.86665302
a6,2,1,6,l,"[-0.2, -0.2]",,,,,,,,,,,,,,,,0,78,78,78,,,,,,,,,,,,,,,,,,,,,l,1,0.7218046,,,,,,,,,,,,zy,m,20,2024_Apr_18_0857,mian,2021.2.3,59.86665302
4h,2,2,4,l,"[0.2, -0.2]",,,,,,,,,,,,,,,,0,79,79,79,,,,,,,,,,,,,,,,,,,,,l,1,0.8315265,,,,,,,,,,,,zy,m,20,2024_Apr_18_0857,mian,2021.2.3,59.86665302
6A,1,1,A,a,"[0.2, 0.2]",,,,,,,,,,,,,,,,,,,,0,0,0,0,,,,,,,,,,,,,,,,,a,1,1.0444287,,,,,,,,,,,,zy,m,20,2024_Apr_18_0857,mian,2021.2.3,59.86665302
4H,1,2,H,a,"[-0.2, 0.2]",,,,,,,,,,,,,,,,,,,,0,1,1,1,,,,,,,,,,,,,,,,,a,1,0.6842481,,,,,,,,,,,,zy,m,20,2024_Apr_18_0857,mian,2021.2.3,59.86665302
3H,2,1,3,a,"[-0.2, -0.2]",,,,,,,,,,,,,,,,,,,,0,2,2,2,,,,,,,,,,,,,,,,,a,1,0.7819975,,,,,,,,,,,,zy,m,20,2024_Apr_18_0857,mian,2021.2.3,59.86665302
a9,2,2,9,a,"[0.2, -0.2]",,,,,,,,,,,,,,,,,,,,0,3,3,3,,,,,,,,,,,,,,,,,a,1,0.6658265,,,,,,,,,,,,zy,m,20,2024_Apr_18_0857,mian,2021.2.3,59.86665302
E7,1,1,E,a,"[0.2, 0.2]",,,,,,,,,,,,,,,,,,,,0,4,4,4,,,,,,,,,,,,,,,,,a,1,0.7813172,,,,,,,,,,,,zy,m,20,2024_Apr_18_0857,mian,2021.2.3,59.86665302
6h,1,2,h,l,"[-0.2, 0.2]",,,,,,,,,,,,,,,,,,,,0,5,5,5,,,,,,,,,,,,,,,,,l,1,0.6070732,,,,,,,,,,,,zy,m,20,2024_Apr_18_0857,mian,2021.2.3,59.86665302
8A,2,1,8,l,"[-0.2, -0.2]",,,,,,,,,,,,,,,,,,,,0,6,6,6,,,,,,,,,,,,,,,,,l,1,0.9355456,,,,,,,,,,,,zy,m,20,2024_Apr_18_0857,mian,2021.2.3,59.86665302
f5,2,2,5,a,"[0.2, -0.2]",,,,,,,,,,,,,,,,,,,,0,7,7,7,,,,,,,,,,,,,,,,,a,1,0.6156005,,,,,,,,,,,,zy,m,20,2024_Apr_18_0857,mian,2021.2.3,59.86665302
2a,1,1,a,l,"[0.2, 0.2]",,,,,,,,,,,,,,,,,,,,0,8,8,8,,,,,,,,,,,,,,,,,l,1,2.1489474,,,,,,,,,,,,zy,m,20,2024_Apr_18_0857,mian,2021.2.3,59.86665302
F7,1,2,F,a,"[-0.2, 0.2]",,,,,,,,,,,,,,,,,,,,0,9,9,9,,,,,,,,,,,,,,,,,a,1,0.6390027,,,,,,,,,,,,zy,m,20,2024_Apr_18_0857,mian,2021.2.3,59.86665302
h2,2,1,2,l,"[-0.2, -0.2]",,,,,,,,,,,,,,,,,,,,0,10,10,10,,,,,,,,,,,,,,,,,l,1,2.7074439,,,,,,,,,,,,zy,m,20,2024_Apr_18_0857,mian,2021.2.3,59.86665302
F5,2,2,5,a,"[0.2, -0.2]",,,,,,,,,,,,,,,,,,,,0,11,11,11,,,,,,,,,,,,,,,,,a,1,1.215615,,,,,,,,,,,,zy,m,20,2024_Apr_18_0857,mian,2021.2.3,59.86665302
A9,1,1,A,a,"[0.2, 0.2]",,,,,,,,,,,,,,,,,,,,0,12,12,12,,,,,,,,,,,,,,,,,a,1,0.6582369,,,,,,,,,,,,zy,m,20,2024_Apr_18_0857,mian,2021.2.3,59.86665302
3e,1,2,e,l,"[-0.2, 0.2]",,,,,,,,,,,,,,,,,,,,0,13,13,13,,,,,,,,,,,,,,,,,l,1,0.7815731,,,,,,,,,,,,zy,m,20,2024_Apr_18_0857,mian,2021.2.3,59.86665302
f8,2,1,8,l,"[-0.2, -0.2]",,,,,,,,,,,,,,,,,,,,0,14,14,14,,,,,,,,,,,,,,,,,l,1,0.9697039,,,,,,,,,,,,zy,m,20,2024_Apr_18_0857,mian,2021.2.3,59.86665302
G2,2,2,2,l,"[0.2, -0.2]",,,,,,,,,,,,,,,,,,,,0,15,15,15,,,,,,,,,,,,,,,,,l,1,0.6731671,,,,,,,,,,,,zy,m,20,2024_Apr_18_0857,mian,2021.2.3,59.86665302
F2,1,1,F,a,"[0.2, 0.2]",,,,,,,,,,,,,,,,,,,,0,16,16,16,,,,,,,,,,,,,,,,,a,1,0.7898339,,,,,,,,,,,,zy,m,20,2024_Apr_18_0857,mian,2021.2.3,59.86665302
5e,1,2,e,l,"[-0.2, 0.2]",,,,,,,,,,,,,,,,,,,,0,17,17,17,,,,,,,,,,,,,,,,,l,1,0.7484492,,,,,,,,,,,,zy,m,20,2024_Apr_18_0857,mian,2021.2.3,59.86665302
A3,2,1,3,a,"[-0.2, -0.2]",,,,,,,,,,,,,,,,,,,,0,18,18,18,,,,,,,,,,,,,,,,,a,1,1.2694935,,,,,,,,,,,,zy,m,20,2024_Apr_18_0857,mian,2021.2.3,59.86665302
4g,2,2,4,l,"[0.2, -0.2]",,,,,,,,,,,,,,,,,,,,0,19,19,19,,,,,,,,,,,,,,,,,l,1,0.7874565,,,,,,,,,,,,zy,m,20,2024_Apr_18_0857,mian,2021.2.3,59.86665302
h7,1,1,h,l,"[0.2, 0.2]",,,,,,,,,,,,,,,,,,,,0,20,20,20,,,,,,,,,,,,,,,,,l,1,1.0656717,,,,,,,,,,,,zy,m,20,2024_Apr_18_0857,mian,2021.2.3,59.86665302
3g,1,2,g,l,"[-0.2, 0.2]",,,,,,,,,,,,,,,,,,,,0,21,21,21,,,,,,,,,,,,,,,,,l,1,1.0470654,,,,,,,,,,,,zy,m,20,2024_Apr_18_0857,mian,2021.2.3,59.86665302
8a,2,1,8,l,"[-0.2, -0.2]",,,,,,,,,,,,,,,,,,,,0,22,22,22,,,,,,,,,,,,,,,,,l,1,0.6461629,,,,,,,,,,,,zy,m,20,2024_Apr_18_0857,mian,2021.2.3,59.86665302
4E,2,2,4,l,"[0.2, -0.2]",,,,,,,,,,,,,,,,,,,,0,23,23,23,,,,,,,,,,,,,,,,,l,1,0.8459796,,,,,,,,,,,,zy,m,20,2024_Apr_18_0857,mian,2021.2.3,59.86665302
E5,1,1,E,a,"[0.2, 0.2]",,,,,,,,,,,,,,,,,,,,0,24,24,24,,,,,,,,,,,,,,,,,a,1,0.6360494,,,,,,,,,,,,zy,m,20,2024_Apr_18_0857,mian,2021.2.3,59.86665302
g6,1,2,g,l,"[-0.2, 0.2]",,,,,,,,,,,,,,,,,,,,0,25,25,25,,,,,,,,,,,,,,,,,l,1,0.8260906,,,,,,,,,,,,zy,m,20,2024_Apr_18_0857,mian,2021.2.3,59.86665302
2e,2,1,2,l,"[-0.2, -0.2]",,,,,,,,,,,,,,,,,,,,0,26,26,26,,,,,,,,,,,,,,,,,l,1,0.7547968,,,,,,,,,,,,zy,m,20,2024_Apr_18_0857,mian,2021.2.3,59.86665302
h8,2,2,8,l,"[0.2, -0.2]",,,,,,,,,,,,,,,,,,,,0,27,27,27,,,,,,,,,,,,,,,,,l,1,0.9998794,,,,,,,,,,,,zy,m,20,2024_Apr_18_0857,mian,2021.2.3,59.86665302
G6,1,1,G,a,"[0.2, 0.2]",,,,,,,,,,,,,,,,,,,,0,28,28,28,,,,,,,,,,,,,,,,,a,1,0.7812171,,,,,,,,,,,,zy,m,20,2024_Apr_18_0857,mian,2021.2.3,59.86665302
a4,1,2,a,l,"[-0.2, 0.2]",,,,,,,,,,,,,,,,,,,,0,29,29,29,,,,,,,,,,,,,,,,,l,1,0.7479255,,,,,,,,,,,,zy,m,20,2024_Apr_18_0857,mian,2021.2.3,59.86665302
9H,2,1,9,a,"[-0.2, -0.2]",,,,,,,,,,,,,,,,,,,,0,30,30,30,,,,,,,,,,,,,,,,,a,1,1.965974,,,,,,,,,,,,zy,m,20,2024_Apr_18_0857,mian,2021.2.3,59.86665302
7H,2,2,7,a,"[0.2, -0.2]",,,,,,,,,,,,,,,,,,,,0,31,31,31,,,,,,,,,,,,,,,,,a,1,1.0093615,,,,,,,,,,,,zy,m,20,2024_Apr_18_0857,mian,2021.2.3,59.86665302
9f,1,1,f,l,"[0.2, 0.2]",,,,,,,,,,,,,,,,,,,,0,32,32,32,,,,,,,,,,,,,,,,,l,1,2.4484034,,,,,,,,,,,,zy,m,20,2024_Apr_18_0857,mian,2021.2.3,59.86665302
8E,1,2,E,a,"[-0.2, 0.2]",,,,,,,,,,,,,,,,,,,,0,33,33,33,,,,,,,,,,,,,,,,,a,1,1.2177404,,,,,,,,,,,,zy,m,20,2024_Apr_18_0857,mian,2021.2.3,59.86665302
A2,2,1,2,l,"[-0.2, -0.2]",,,,,,,,,,,,,,,,,,,,0,34,34,34,,,,,,,,,,,,,,,,,l,1,2.289622,,,,,,,,,,,,zy,m,20,2024_Apr_18_0857,mian,2021.2.3,59.86665302
H7,2,2,7,a,"[0.2, -0.2]",,,,,,,,,,,,,,,,,,,,0,35,35,35,,,,,,,,,,,,,,,,,a,1,1.2559094,,,,,,,,,,,,zy,m,20,2024_Apr_18_0857,mian,2021.2.3,59.86665302
h9,1,1,h,l,"[0.2, 0.2]",,,,,,,,,,,,,,,,,,,,0,36,36,36,,,,,,,,,,,,,,,,,l,1,1.1354677,,,,,,,,,,,,zy,m,20,2024_Apr_18_0857,mian,2021.2.3,59.86665302
8G,1,2,G,a,"[-0.2, 0.2]",,,,,,,,,,,,,,,,,,,,0,37,37,37,,,,,,,,,,,,,,,,,a,1,1.1207666,,,,,,,,,,,,zy,m,20,2024_Apr_18_0857,mian,2021.2.3,59.86665302
H4,2,1,4,l,"[-0.2, -0.2]",,,,,,,,,,,,,,,,,,,,0,38,38,38,,,,,,,,,,,,,,,,,l,1,1.4381773,,,,,,,,,,,,zy,m,20,2024_Apr_18_0857,mian,2021.2.3,59.86665302
A8,2,2,8,l,"[0.2, -0.2]",,,,,,,,,,,,,,,,,,,,0,39,39,39,,,,,,,,,,,,,,,,,l,1,0.8564284,,,,,,,,,,,,zy,m,20,2024_Apr_18_0857,mian,2021.2.3,59.86665302
g7,1,1,g,l,"[0.2, 0.2]",,,,,,,,,,,,,,,,,,,,0,40,40,40,,,,,,,,,,,,,,,,,a,0,0.8321947,,,,,,,,,,,,zy,m,20,2024_Apr_18_0857,mian,2021.2.3,59.86665302
H9,1,2,H,a,"[-0.2, 0.2]",,,,,,,,,,,,,,,,,,,,0,41,41,41,,,,,,,,,,,,,,,,,a,1,0.774623,,,,,,,,,,,,zy,m,20,2024_Apr_18_0857,mian,2021.2.3,59.86665302
9E,2,1,9,a,"[-0.2, -0.2]",,,,,,,,,,,,,,,,,,,,0,42,42,42,,,,,,,,,,,,,,,,,a,1,1.0525264,,,,,,,,,,,,zy,m,20,2024_Apr_18_0857,mian,2021.2.3,59.86665302
a5,2,2,5,a,"[0.2, -0.2]",,,,,,,,,,,,,,,,,,,,0,43,43,43,,,,,,,,,,,,,,,,,a,1,3.5088567,,,,,,,,,,,,zy,m,20,2024_Apr_18_0857,mian,2021.2.3,59.86665302
3E,1,1,E,a,"[0.2, 0.2]",,,,,,,,,,,,,,,,,,,,0,44,44,44,,,,,,,,,,,,,,,,,a,1,1.1192465,,,,,,,,,,,,zy,m,20,2024_Apr_18_0857,mian,2021.2.3,59.86665302
6f,1,2,f,l,"[-0.2, 0.2]",,,,,,,,,,,,,,,,,,,,0,45,45,45,,,,,,,,,,,,,,,,,l,1,0.7226069,,,,,,,,,,,,zy,m,20,2024_Apr_18_0857,mian,2021.2.3,59.86665302
g8,2,1,8,l,"[-0.2, -0.2]",,,,,,,,,,,,,,,,,,,,0,46,46,46,,,,,,,,,,,,,,,,,l,1,1.2513576,,,,,,,,,,,,zy,m,20,2024_Apr_18_0857,mian,2021.2.3,59.86665302
4F,2,2,4,l,"[0.2, -0.2]",,,,,,,,,,,,,,,,,,,,0,47,47,47,,,,,,,,,,,,,,,,,l,1,0.5184277,,,,,,,,,,,,zy,m,20,2024_Apr_18_0857,mian,2021.2.3,59.86665302
4a,1,1,a,l,"[0.2, 0.2]",,,,,,,,,,,,,,,,,,,,0,48,48,48,,,,,,,,,,,,,,,,,l,1,2.0681063,,,,,,,,,,,,zy,m,20,2024_Apr_18_0857,mian,2021.2.3,59.86665302
e3,1,2,e,l,"[-0.2, 0.2]",,,,,,,,,,,,,,,,,,,,0,49,49,49,,,,,,,,,,,,,,,,,l,1,0.6967348,,,,,,,,,,,,zy,m,20,2024_Apr_18_0857,mian,2021.2.3,59.86665302
5g,2,1,5,a,"[-0.2, -0.2]",,,,,,,,,,,,,,,,,,,,0,50,50,50,,,,,,,,,,,,,,,,,a,1,0.8097213,,,,,,,,,,,,zy,m,20,2024_Apr_18_0857,mian,2021.2.3,59.86665302
f4,2,2,4,l,"[0.2, -0.2]",,,,,,,,,,,,,,,,,,,,0,51,51,51,,,,,,,,,,,,,,,,,l,1,0.8109948,,,,,,,,,,,,zy,m,20,2024_Apr_18_0857,mian,2021.2.3,59.86665302
6E,1,1,E,a,"[0.2, 0.2]",,,,,,,,,,,,,,,,,,,,0,52,52,52,,,,,,,,,,,,,,,,,a,1,1.1194742,,,,,,,,,,,,zy,m,20,2024_Apr_18_0857,mian,2021.2.3,59.86665302
7A,1,2,A,a,"[-0.2, 0.2]",,,,,,,,,,,,,,,,,,,,0,53,53,53,,,,,,,,,,,,,,,,,a,1,0.4410151,,,,,,,,,,,,zy,m,20,2024_Apr_18_0857,mian,2021.2.3,59.86665302
F4,2,1,4,l,"[-0.2, -0.2]",,,,,,,,,,,,,,,,,,,,0,54,54,54,,,,,,,,,,,,,,,,,l,1,0.8071934,,,,,,,,,,,,zy,m,20,2024_Apr_18_0857,mian,2021.2.3,59.86665302
2g,2,2,2,l,"[0.2, -0.2]",,,,,,,,,,,,,,,,,,,,0,55,55,55,,,,,,,,,,,,,,,,,l,1,0.6570511,,,,,,,,,,,,zy,m,20,2024_Apr_18_0857,mian,2021.2.3,59.86665302
7E,1,1,E,a,"[0.2, 0.2]",,,,,,,,,,,,,,,,,,,,0,56,56,56,,,,,,,,,,,,,,,,,a,1,0.6464213,,,,,,,,,,,,zy,m,20,2024_Apr_18_0857,mian,2021.2.3,59.86665302
G4,1,2,G,a,"[-0.2, 0.2]",,,,,,,,,,,,,,,,,,,,0,57,57,57,,,,,,,,,,,,,,,,,a,1,0.5904549,,,,,,,,,,,,zy,m,20,2024_Apr_18_0857,mian,2021.2.3,59.86665302
2F,2,1,2,l,"[-0.2, -0.2]",,,,,,,,,,,,,,,,,,,,0,58,58,58,,,,,,,,,,,,,,,,,l,1,1.2645994,,,,,,,,,,,,zy,m,20,2024_Apr_18_0857,mian,2021.2.3,59.86665302
E9,2,2,9,a,"[0.2, -0.2]",,,,,,,,,,,,,,,,,,,,0,59,59,59,,,,,,,,,,,,,,,,,a,1,1.6413848,,,,,,,,,,,,zy,m,20,2024_Apr_18_0857,mian,2021.2.3,59.86665302
5f,1,1,f,l,"[0.2, 0.2]",,,,,,,,,,,,,,,,,,,,0,60,60,60,,,,,,,,,,,,,,,,,l,1,1.077943,,,,,,,,,,,,zy,m,20,2024_Apr_18_0857,mian,2021.2.3,59.86665302
e7,1,2,e,l,"[-0.2, 0.2]",,,,,,,,,,,,,,,,,,,,0,61,61,61,,,,,,,,,,,,,,,,,l,1,0.9564222,,,,,,,,,,,,zy,m,20,2024_Apr_18_0857,mian,2021.2.3,59.86665302
f2,2,1,2,l,"[-0.2, -0.2]",,,,,,,,,,,,,,,,,,,,0,62,62,62,,,,,,,,,,,,,,,,,l,1,1.5608914,,,,,,,,,,,,zy,m,20,2024_Apr_18_0857,mian,2021.2.3,59.86665302
G9,2,2,9,a,"[0.2, -0.2]",,,,,,,,,,,,,,,,,,,,0,63,63,63,,,,,,,,,,,,,,,,,a,1,0.6281883,,,,,,,,,,,,zy,m,20,2024_Apr_18_0857,mian,2021.2.3,59.86665302
7g,1,1,g,l,"[0.2, 0.2]",,,,,,,,,,,,,,,,,,,,0,64,64,64,,,,,,,,,,,,,,,,,l,1,1.5018075,,,,,,,,,,,,zy,m,20,2024_Apr_18_0857,mian,2021.2.3,59.86665302
F8,1,2,F,a,"[-0.2, 0.2]",,,,,,,,,,,,,,,,,,,,0,65,65,65,,,,,,,,,,,,,,,,,a,1,0.9218082,,,,,,,,,,,,zy,m,20,2024_Apr_18_0857,mian,2021.2.3,59.86665302
A7,2,1,7,a,"[-0.2, -0.2]",,,,,,,,,,,,,,,,,,,,0,66,66,66,,,,,,,,,,,,,,,,,a,1,1.1554489,,,,,,,,,,,,zy,m,20,2024_Apr_18_0857,mian,2021.2.3,59.86665302
4G,2,2,4,l,"[0.2, -0.2]",,,,,,,,,,,,,,,,,,,,0,67,67,67,,,,,,,,,,,,,,,,,l,1,0.7028568,,,,,,,,,,,,zy,m,20,2024_Apr_18_0857,mian,2021.2.3,59.86665302
g2,1,1,g,l,"[0.2, 0.2]",,,,,,,,,,,,,,,,,,,,0,68,68,68,,,,,,,,,,,,,,,,,l,1,1.0992197,,,,,,,,,,,,zy,m,20,2024_Apr_18_0857,mian,2021.2.3,59.86665302
g4,1,2,g,l,"[-0.2, 0.2]",,,,,,,,,,,,,,,,,,,,0,69,69,69,,,,,,,,,,,,,,,,,l,1,0.5651799,,,,,,,,,,,,zy,m,20,2024_Apr_18_0857,mian,2021.2.3,59.86665302
7a,2,1,7,a,"[-0.2, -0.2]",,,,,,,,,,,,,,,,,,,,0,70,70,70,,,,,,,,,,,,,,,,,a,1,1.1122112,,,,,,,,,,,,zy,m,20,2024_Apr_18_0857,mian,2021.2.3,59.86665302
8e,2,2,8,l,"[0.2, -0.2]",,,,,,,,,,,,,,,,,,,,0,71,71,71,,,,,,,,,,,,,,,,,l,1,0.7751366,,,,,,,,,,,,zy,m,20,2024_Apr_18_0857,mian,2021.2.3,59.86665302
h4,1,1,h,l,"[0.2, 0.2]",,,,,,,,,,,,,,,,,,,,0,72,72,72,,,,,,,,,,,,,,,,,l,1,1.0388217,,,,,,,,,,,,zy,m,20,2024_Apr_18_0857,mian,2021.2.3,59.86665302
G8,1,2,G,a,"[-0.2, 0.2]",,,,,,,,,,,,,,,,,,,,0,73,73,73,,,,,,,,,,,,,,,,,a,1,0.7028085,,,,,,,,,,,,zy,m,20,2024_Apr_18_0857,mian,2021.2.3,59.86665302
6F,2,1,6,l,"[-0.2, -0.2]",,,,,,,,,,,,,,,,,,,,0,74,74,74,,,,,,,,,,,,,,,,,l,1,1.1437676,,,,,,,,,,,,zy,m,20,2024_Apr_18_0857,mian,2021.2.3,59.86665302
g5,2,2,5,a,"[0.2, -0.2]",,,,,,,,,,,,,,,,,,,,0,75,75,75,,,,,,,,,,,,,,,,,a,1,0.9324358,,,,,,,,,,,,zy,m,20,2024_Apr_18_0857,mian,2021.2.3,59.86665302
G5,1,1,G,a,"[0.2, 0.2]",,,,,,,,,,,,,,,,,,,,0,76,76,76,,,,,,,,,,,,,,,,,a,1,0.8878938,,,,,,,,,,,,zy,m,20,2024_Apr_18_0857,mian,2021.2.3,59.86665302
h5,1,2,h,l,"[-0.2, 0.2]",,,,,,,,,,,,,,,,,,,,0,77,77,77,,,,,,,,,,,,,,,,,l,1,1.5975669,,,,,,,,,,,,zy,m,20,2024_Apr_18_0857,mian,2021.2.3,59.86665302
9G,2,1,9,a,"[-0.2, -0.2]",,,,,,,,,,,,,,,,,,,,0,78,78,78,,,,,,,,,,,,,,,,,a,1,0.8706496,,,,,,,,,,,,zy,m,20,2024_Apr_18_0857,mian,2021.2.3,59.86665302
F3,2,2,3,a,"[0.2, -0.2]",,,,,,,,,,,,,,,,,,,,0,79,79,79,,,,,,,,,,,,,,,,,a,1,0.681426,,,,,,,,,,,,zy,m,20,2024_Apr_18_0857,mian,2021.2.3,59.86665302
,,,,,,1,0,pic/flanker5.png,pic/flanker3.png,a,l,,,,,,,,,,,,,,,,,,0,0,0,0,0,0,0,7,,,,,,,,,,,,425.5289136,None,424.3400595,425.5455803,a,1,0.8597688,沮丧,l,1,1.6778678,zy,m,20,2024_Apr_18_0857,mian,2021.2.3,59.86665302
,,,,,,0,0,pic/flanker5.png,pic/flanker1.png,s,l,,,,,,,,,,,,,,,,,,0,0,0,0,0,1,1,3,,,,,,,,,,,,430.2121214,None,429.0289982,430.2290616,s,1,0.4559239,冷笑,l,1,1.2030545,zy,m,20,2024_Apr_18_0857,mian,2021.2.3,59.86665302
,,,,,,0,1,pic/flanker6.png,pic/flanker2.png,a,k,,,,,,,,,,,,,,,,,,0,0,0,0,0,2,2,2,,,,,,,,,,,,433.8121488,None,432.6288233,433.8289349,a,1,0.4030659,俊秀,k,1,1.1020536,zy,m,20,2024_Apr_18_0857,mian,2021.2.3,59.86665302
,,,,,,1,1,pic/flanker5.png,pic/flanker3.png,a,k,,,,,,,,,,,,,,,,,,0,0,0,0,0,3,3,4,,,,,,,,,,,,437.2622944,None,436.0790404,437.278884,a,1,0.7778797,廉洁,k,1,0.8342994,zy,m,20,2024_Apr_18_0857,mian,2021.2.3,59.86665302
,,,,,,0,0,pic/flanker6.png,pic/flanker2.png,a,l,,,,,,,,,,,,,,,,,,0,0,0,0,0,4,4,1,,,,,,,,,,,,440.8288879,None,439.6456063,440.8457361,a,1,0.4680645,悲观,l,1,0.781394,zy,m,20,2024_Apr_18_0857,mian,2021.2.3,59.86665302
,,,,,,1,0,pic/flanker6.png,pic/flanker4.png,s,l,,,,,,,,,,,,,,,,,,0,0,0,0,0,5,5,5,,,,,,,,,,,,444.0790068,None,442.8957078,444.0951198,s,1,0.560884,慌忙,l,1,0.9312818,zy,m,20,2024_Apr_18_0857,mian,2021.2.3,59.86665302
,,,,,,0,1,pic/flanker5.png,pic/flanker1.png,s,k,,,,,,,,,,,,,,,,,,0,0,0,0,0,6,6,0,,,,,,,,,,,,447.5450862,None,446.3623323,447.5615976,s,1,0.5931734,丰满,k,1,0.7473071,zy,m,20,2024_Apr_18_0857,mian,2021.2.3,59.86665302
,,,,,,1,1,pic/flanker6.png,pic/flanker4.png,s,k,,,,,,,,,,,,,,,,,,0,0,0,0,0,7,7,6,,,,,,,,,,,,450.8956073,None,449.7120921,450.9123486,s,1,0.6522859,永恒,k,1,0.7281793,zy,m,20,2024_Apr_18_0857,mian,2021.2.3,59.86665302
,,,,,,,,,,,,,,,,,,,,,,,,,,,,,0,0,0,0,,,,,,,,,,,,,,,,,,,,,,,,,,,zy,m,20,2024_Apr_18_0857,mian,2021.2.3,59.86665302
,,,,,,1,0,pic/flanker6.png,pic/flanker4.png,s,l,pic/AffRest1.png,,,,,,,,,,,,,,,,,,,,,,,,,0,0,0,0,0,0,0,29,,,,467.4949266,None,466.3037854,467.5116943,s,1,0.495015,浪费,l,1,0.6945214,zy,m,20,2024_Apr_18_0857,mian,2021.2.3,59.86665302
,,,,,,1,0,pic/flanker5.png,pic/flanker3.png,a,l,pic/AffRest1.png,,,,,,,,,,,,,,,,,,,,,,,,,0,0,0,0,0,1,1,55,,,,470.628936,None,469.4453024,470.6455225,a,1,0.5556885,烦恼,l,1,0.6759046,zy,m,20,2024_Apr_18_0857,mian,2021.2.3,59.86665302
,,,,,,1,0,pic/flanker5.png,pic/flanker3.png,a,l,pic/AffRest1.png,,,,,,,,,,,,,,,,,,,,,,,,,0,0,0,0,0,2,2,23,,,,473.8289196,None,472.6448597,473.8456534,a,1,0.6144022,嘲笑,l,1,0.6107322,zy,m,20,2024_Apr_18_0857,mian,2021.2.3,59.86665302
,,,,,,0,0,pic/flanker5.png,pic/flanker1.png,s,l,pic/AffRest1.png,,,,,,,,,,,,,,,,,,,,,,,,,0,0,0,0,0,3,3,75,,,,476.8955719,None,475.7121321,476.9121516,s,1,0.4492132,慌忙,l,1,0.5569547,zy,m,20,2024_Apr_18_0857,mian,2021.2.3,59.86665302
,,,,,,1,0,pic/flanker6.png,pic/flanker4.png,s,l,pic/AffRest1.png,,,,,,,,,,,,,,,,,,,,,,,,,0,0,0,0,0,4,4,69,,,,479.8619919,None,478.6783651,479.8786296,s,1,0.4684364,郁闷,l,1,0.5872147,zy,m,20,2024_Apr_18_0857,mian,2021.2.3,59.86665302
,,,,,,0,0,pic/flanker5.png,pic/flanker1.png,s,l,pic/AffRest1.png,,,,,,,,,,,,,,,,,,,,,,,,,0,0,0,0,0,5,5,67,,,,482.9786815,None,481.7948471,482.9954499,s,1,0.433956,心慌,l,1,0.6486296,zy,m,20,2024_Apr_18_0857,mian,2021.2.3,59.86665302
,,,,,,1,1,pic/flanker6.png,pic/flanker4.png,s,k,pic/AffRest1.png,,,,,,,,,,,,,,,,,,,,,,,,,0,0,0,0,0,6,6,62,,,,485.9289404,None,484.7455967,485.9456023,s,1,0.5171701,雄厚,k,1,0.9518517,zy,m,20,2024_Apr_18_0857,mian,2021.2.3,59.86665302
,,,,,,0,1,pic/flanker6.png,pic/flanker2.png,a,k,pic/AffRest1.png,,,,,,,,,,,,,,,,,,,,,,,,,0,0,0,0,0,7,7,58,,,,489.2619379,None,488.0790324,489.278619,a,1,0.5012432,瑰丽,k,1,0.6294632,zy,m,20,2024_Apr_18_0857,mian,2021.2.3,59.86665302
,,,,,,1,1,pic/flanker6.png,pic/flanker4.png,s,k,pic/AffRest1.png,,,,,,,,,,,,,,,,,,,,,,,,,0,0,0,0,0,8,8,38,,,,492.3287419,None,491.1456057,492.345891,s,1,0.473504,留恋,k,1,0.6816449,zy,m,20,2024_Apr_18_0857,mian,2021.2.3,59.86665302
,,,,,,0,0,pic/flanker6.png,pic/flanker2.png,a,l,pic/AffRest1.png,,,,,,,,,,,,,,,,,,,,,,,,,0,0,0,0,0,9,9,49,,,,495.4455387,None,494.2618803,495.4621719,a,1,0.5126522,懒惰,l,1,0.6616671,zy,m,20,2024_Apr_18_0857,mian,2021.2.3,59.86665302
,,,,,,0,0,pic/flanker6.png,pic/flanker2.png,a,l,pic/AffRest1.png,,,,,,,,,,,,,,,,,,,,,,,,,0,0,0,0,0,10,10,73,,,,498.561884,None,497.3787575,498.5785313,a,1,0.4539654,穷苦,l,1,0.7970031,zy,m,20,2024_Apr_18_0857,mian,2021.2.3,59.86665302
,,,,,,1,0,pic/flanker6.png,pic/flanker4.png,s,l,pic/AffRest1.png,,,,,,,,,,,,,,,,,,,,,,,,,0,0,0,0,0,11,11,21,,,,501.8285774,None,500.6456203,501.8455821,s,1,0.4490467,胡涂,l,1,0.7456803,zy,m,20,2024_Apr_18_0857,mian,2021.2.3,59.86665302
,,,,,,0,1,pic/flanker5.png,pic/flanker1.png,s,k,pic/AffRest1.png,,,,,,,,,,,,,,,,,,,,,,,,,0,0,0,0,0,12,12,32,,,,504.9621245,None,503.7786128,504.9788137,s,1,0.4331333,珍藏,k,1,0.6056549,zy,m,20,2024_Apr_18_0857,mian,2021.2.3,59.86665302
,,,,,,1,0,pic/flanker6.png,pic/flanker4.png,s,l,pic/AffRest1.png,,,,,,,,,,,,,,,,,,,,,,,,,0,0,0,0,0,13,13,37,,,,508.0622197,None,506.8787359,508.0787787,s,1,0.5761739,逃避,l,1,0.7315295,zy,m,20,2024_Apr_18_0857,mian,2021.2.3,59.86665302
,,,,,,0,1,pic/flanker5.png,pic/flanker1.png,s,k,pic/AffRest1.png,,,,,,,,,,,,,,,,,,,,,,,,,0,0,0,0,0,14,14,48,,,,511.428796,None,510.2455706,511.4454002,s,1,0.4103503,有利,k,1,0.6784832,zy,m,20,2024_Apr_18_0857,mian,2021.2.3,59.86665302
,,,,,,1,0,pic/flanker5.png,pic/flanker3.png,a,l,pic/AffRest1.png,,,,,,,,,,,,,,,,,,,,,,,,,0,0,0,0,0,15,15,71,,,,514.5784088,None,513.3955394,514.5950666,a,1,0.5190031,别扭,l,1,0.7831356,zy,m,20,2024_Apr_18_0857,mian,2021.2.3,59.86665302
,,,,,,1,1,pic/flanker6.png,pic/flanker4.png,s,k,pic/AffRest1.png,,,,,,,,,,,,,,,,,,,,,,,,,0,0,0,0,0,16,16,46,,,,517.8453895,None,516.6616864,517.8621336,s,1,0.4587746,前进,k,1,0.679669,zy,m,20,2024_Apr_18_0857,mian,2021.2.3,59.86665302
,,,,,,0,1,pic/flanker6.png,pic/flanker2.png,a,k,pic/AffRest1.png,,,,,,,,,,,,,,,,,,,,,,,,,0,0,0,0,0,17,17,2,,,,520.9289097,None,519.7453349,520.945575,a,1,0.455904,富足,k,1,0.5697638,zy,m,20,2024_Apr_18_0857,mian,2021.2.3,59.86665302
,,,,,,0,1,pic/flanker6.png,pic/flanker2.png,a,k,pic/AffRest1.png,,,,,,,,,,,,,,,,,,,,,,,,,0,0,0,0,0,18,18,10,,,,523.8788034,None,522.6952671,523.8954424,a,1,0.4535157,秀丽,k,1,0.6151014,zy,m,20,2024_Apr_18_0857,mian,2021.2.3,59.86665302
,,,,,,0,1,pic/flanker5.png,pic/flanker1.png,s,k,pic/AffRest1.png,,,,,,,,,,,,,,,,,,,,,,,,,0,0,0,0,0,19,19,72,,,,526.9455653,None,525.7621831,526.9619559,s,1,0.402657,充裕,k,1,0.561294,zy,m,20,2024_Apr_18_0857,mian,2021.2.3,59.86665302
,,,,,,1,0,pic/flanker6.png,pic/flanker4.png,s,l,pic/AffRest1.png,,,,,,,,,,,,,,,,,,,,,,,,,0,0,0,0,0,20,20,45,,,,529.7619886,None,528.5787645,529.7788343,s,1,0.4660107,轻率,l,1,0.7498136,zy,m,20,2024_Apr_18_0857,mian,2021.2.3,59.86665302
,,,,,,0,0,pic/flanker5.png,pic/flanker1.png,s,l,pic/AffRest1.png,,,,,,,,,,,,,,,,,,,,,,,,,0,0,0,0,0,21,21,27,,,,532.9454236,None,531.76192,532.9622176,s,1,0.389706,失意,l,1,0.7537846,zy,m,20,2024_Apr_18_0857,mian,2021.2.3,59.86665302
,,,,,,0,0,pic/flanker5.png,pic/flanker1.png,s,l,pic/AffRest1.png,,,,,,,,,,,,,,,,,,,,,,,,,0,0,0,0,0,22,22,11,,,,536.0454839,None,534.8621681,536.0621384,s,1,0.4126964,假冒,l,1,0.5790637,zy,m,20,2024_Apr_18_0857,mian,2021.2.3,59.86665302
,,,,,,0,1,pic/flanker6.png,pic/flanker2.png,a,k,pic/AffRest1.png,,,,,,,,,,,,,,,,,,,,,,,,,0,0,0,0,0,23,23,26,,,,539.0952588,None,537.9121746,539.1121433,a,1,0.4327534,廉洁,k,1,0.6056795,zy,m,20,2024_Apr_18_0857,mian,2021.2.3,59.86665302
,,,,,,1,1,pic/flanker6.png,pic/flanker4.png,s,k,pic/AffRest1.png,,,,,,,,,,,,,,,,,,,,,,,,,0,0,0,0,0,24,24,30,,,,541.9953754,None,540.8119616,542.0121662,s,1,0.4816027,旺盛,k,1,0.5610341,zy,m,20,2024_Apr_18_0857,mian,2021.2.3,59.86665302
,,,,,,0,0,pic/flanker6.png,pic/flanker2.png,a,l,pic/AffRest1.png,,,,,,,,,,,,,,,,,,,,,,,,,0,0,0,0,0,25,25,1,,,,545.0787753,None,543.8952745,545.0955242,a,1,0.4017007,怀疑,l,1,0.6913471,zy,m,20,2024_Apr_18_0857,mian,2021.2.3,59.86665302
,,,,,,1,0,pic/flanker6.png,pic/flanker4.png,s,l,pic/AffRest1.png,,,,,,,,,,,,,,,,,,,,,,,,,0,0,0,0,0,26,26,61,,,,548.078764,None,546.8953047,548.0953977,s,1,0.4240811,处罚,l,1,0.6947662,zy,m,20,2024_Apr_18_0857,mian,2021.2.3,59.86665302
,,,,,,1,0,pic/flanker5.png,pic/flanker3.png,a,l,pic/AffRest1.png,,,,,,,,,,,,,,,,,,,,,,,,,0,0,0,0,0,27,27,47,,,,551.2621635,None,550.0788017,551.2788283,a,1,0.6651958,禁止,l,1,0.6773852,zy,m,20,2024_Apr_18_0857,mian,2021.2.3,59.86665302
,,,,,,0,0,pic/flanker5.png,pic/flanker1.png,s,l,pic/AffRest1.png,,,,,,,,,,,,,,,,,,,,,,,,,0,0,0,0,0,28,28,19,,,,554.6121011,None,553.42878,554.6288619,s,1,0.4416817,撒谎,l,1,0.7162488,zy,m,20,2024_Apr_18_0857,mian,2021.2.3,59.86665302
,,,,,,0,0,pic/flanker6.png,pic/flanker2.png,a,l,pic/AffRest1.png,,,,,,,,,,,,,,,,,,,,,,,,,0,0,0,0,0,29,29,65,,,,557.7454986,None,556.5618954,557.7621534,a,1,0.4967277,孤单,l,1,0.6988497,zy,m,20,2024_Apr_18_0857,mian,2021.2.3,59.86665302
,,,,,,0,0,pic/flanker6.png,pic/flanker2.png,a,l,pic/AffRest1.png,,,,,,,,,,,,,,,,,,,,,,,,,0,0,0,0,0,30,30,25,,,,560.9955085,None,559.812058,561.0120544,a,1,0.5861736,损害,l,1,0.7136856,zy,m,20,2024_Apr_18_0857,mian,2021.2.3,59.86665302
,,,,,,1,1,pic/flanker6.png,pic/flanker4.png,s,k,pic/AffRest1.png,,,,,,,,,,,,,,,,,,,,,,,,,0,0,0,0,0,31,31,22,,,,564.3619676,None,563.1789904,564.3785492,s,1,0.5009756,享受,k,1,0.6081675,zy,m,20,2024_Apr_18_0857,mian,2021.2.3,59.86665302
,,,,,,0,0,pic/flanker5.png,pic/flanker1.png,s,l,pic/AffRest1.png,,,,,,,,,,,,,,,,,,,,,,,,,0,0,0,0,0,32,32,59,,,,567.4287418,None,566.2454549,567.4454228,s,1,0.4054197,消沉,l,1,0.594757,zy,m,20,2024_Apr_18_0857,mian,2021.2.3,59.86665302
,,,,,,1,1,pic/flanker5.png,pic/flanker3.png,a,k,pic/AffRest1.png,,,,,,,,,,,,,,,,,,,,,,,,,0,0,0,0,0,33,33,36,,,,570.4288536,None,569.2453373,570.4454539,a,1,1.0833785,优雅,k,1,0.8283368,zy,m,20,2024_Apr_18_0857,mian,2021.2.3,59.86665302
,,,,,,1,1,pic/flanker6.png,pic/flanker4.png,s,k,pic/AffRest1.png,,,,,,,,,,,,,,,,,,,,,,,,,0,0,0,0,0,34,34,78,,,,574.212197,None,573.0287433,574.2286942,s,1,0.7716623,卓越,k,1,1.2817675,zy,m,20,2024_Apr_18_0857,mian,2021.2.3,59.86665302
,,,,,,0,1,pic/flanker5.png,pic/flanker1.png,s,k,pic/AffRest1.png,,,,,,,,,,,,,,,,,,,,,,,,,0,0,0,0,0,35,35,16,,,,578.0952943,None,576.9120485,578.1121153,s,1,0.4978435,畅销,k,1,0.6450728,zy,m,20,2024_Apr_18_0857,mian,2021.2.3,59.86665302
,,,,,,1,1,pic/flanker6.png,pic/flanker4.png,s,k,pic/AffRest1.png,,,,,,,,,,,,,,,,,,,,,,,,,0,0,0,0,0,36,36,6,,,,581.2619548,None,580.0786436,581.2787648,s,1,0.5225379,精致,k,1,0.5602707,zy,m,20,2024_Apr_18_0857,mian,2021.2.3,59.86665302
,,,,,,1,0,pic/flanker5.png,pic/flanker3.png,a,l,pic/AffRest1.png,,,,,,,,,,,,,,,,,,,,,,,,,0,0,0,0,0,37,37,79,,,,584.3454108,None,583.1619768,584.3619136,a,1,0.4936021,排斥,l,1,0.6462126,zy,m,20,2024_Apr_18_0857,mian,2021.2.3,59.86665302
,,,,,,1,1,pic/flanker6.png,pic/flanker4.png,s,k,pic/AffRest1.png,,,,,,,,,,,,,,,,,,,,,,,,,0,0,0,0,0,38,38,14,,,,587.5285471,None,586.3453051,587.5453221,s,1,0.5999195,奉献,k,1,0.6523465,zy,m,20,2024_Apr_18_0857,mian,2021.2.3,59.86665302
,,,,,,1,1,pic/flanker5.png,pic/flanker3.png,a,k,pic/AffRest1.png,,,,,,,,,,,,,,,,,,,,,,,,,0,0,0,0,0,39,39,68,,,,590.8453987,None,589.6620197,590.8620632,a,1,0.5033732,豪放,k,1,0.5201318,zy,m,20,2024_Apr_18_0857,mian,2021.2.3,59.86665302
,,,,,,1,0,pic/flanker5.png,pic/flanker3.png,a,l,pic/AffRest1.png,,,,,,,,,,,,,,,,,,,,,,,,,0,0,0,0,0,40,40,31,,,,593.8119847,None,592.6285864,593.8286926,a,1,0.5230249,黑暗,l,1,0.5955388,zy,m,20,2024_Apr_18_0857,mian,2021.2.3,59.86665302
,,,,,,1,1,pic/flanker5.png,pic/flanker3.png,a,k,pic/AffRest1.png,,,,,,,,,,,,,,,,,,,,,,,,,0,0,0,0,0,41,41,4,,,,596.945459,None,595.7618252,596.9620102,a,1,0.5192499,舒畅,k,1,0.5772207,zy,m,20,2024_Apr_18_0857,mian,2021.2.3,59.86665302
,,,,,,1,0,pic/flanker5.png,pic/flanker3.png,a,l,pic/AffRest1.png,,,,,,,,,,,,,,,,,,,,,,,,,0,0,0,0,0,42,42,39,,,,599.9286937,None,598.7452787,599.9453045,a,1,0.5242838,伤心,l,1,0.622867,zy,m,20,2024_Apr_18_0857,mian,2021.2.3,59.86665302
,,,,,,0,0,pic/flanker5.png,pic/flanker1.png,s,l,pic/AffRest1.png,,,,,,,,,,,,,,,,,,,,,,,,,0,0,0,0,0,43,43,51,,,,602.9285495,None,601.7452526,602.9453238,s,1,0.6232272,堵塞,l,1,1.2707786,zy,m,20,2024_Apr_18_0857,mian,2021.2.3,59.86665302
,,,,,,1,1,pic/flanker5.png,pic/flanker3.png,a,k,pic/AffRest1.png,,,,,,,,,,,,,,,,,,,,,,,,,0,0,0,0,0,44,44,12,,,,606.7286155,None,605.5454471,606.7453519,a,1,0.5212357,富丽,k,1,0.5894727,zy,m,20,2024_Apr_18_0857,mian,2021.2.3,59.86665302
,,,,,,1,1,pic/flanker6.png,pic/flanker4.png,s,k,pic/AffRest1.png,,,,,,,,,,,,,,,,,,,,,,,,,0,0,0,0,0,45,45,70,,,,609.745437,None,608.5614724,609.7619742,s,1,0.503566,诚恳,k,1,0.5653359,zy,m,20,2024_Apr_18_0857,mian,2021.2.3,59.86665302
,,,,,,0,0,pic/flanker6.png,pic/flanker2.png,a,l,pic/AffRest1.png,,,,,,,,,,,,,,,,,,,,,,,,,0,0,0,0,0,46,46,33,,,,612.8120525,None,611.6287377,612.8286925,a,1,0.4258299,争吵,l,1,0.6127083,zy,m,20,2024_Apr_18_0857,mian,2021.2.3,59.86665302
,,,,,,0,0,pic/flanker6.png,pic/flanker2.png,a,l,pic/AffRest1.png,,,,,,,,,,,,,,,,,,,,,,,,,0,0,0,0,0,47,47,9,,,,615.6953509,None,614.5120806,615.7119944,a,1,0.4651108,缺乏,l,1,0.6119486,zy,m,20,2024_Apr_18_0857,mian,2021.2.3,59.86665302
,,,,,,0,1,pic/flanker5.png,pic/flanker1.png,s,k,pic/AffRest1.png,,,,,,,,,,,,,,,,,,,,,,,,,0,0,0,0,0,48,48,40,,,,618.628754,None,617.4456859,618.6452115,s,1,0.4019586,如愿,k,1,0.8796113,zy,m,20,2024_Apr_18_0857,mian,2021.2.3,59.86665302
,,,,,,0,0,pic/flanker6.png,pic/flanker2.png,a,l,pic/AffRest1.png,,,,,,,,,,,,,,,,,,,,,,,,,0,0,0,0,0,49,49,41,,,,621.8618826,None,620.678589,621.8784646,a,1,0.4451149,焦躁,l,1,0.7104604,zy,m,20,2024_Apr_18_0857,mian,2021.2.3,59.86665302
,,,,,,0,0,pic/flanker5.png,pic/flanker1.png,s,l,pic/AffRest1.png,,,,,,,,,,,,,,,,,,,,,,,,,0,0,0,0,0,50,50,3,,,,624.9286336,None,623.7452526,624.9453679,s,1,0.4172059,自卑,l,1,0.6493247,zy,m,20,2024_Apr_18_0857,mian,2021.2.3,59.86665302
,,,,,,0,0,pic/flanker6.png,pic/flanker2.png,a,l,pic/AffRest1.png,,,,,,,,,,,,,,,,,,,,,,,,,0,0,0,0,0,51,51,17,,,,627.9620638,None,626.7787463,627.9785866,a,1,0.4246269,丢失,l,1,0.6498126,zy,m,20,2024_Apr_18_0857,mian,2021.2.3,59.86665302
,,,,,,1,0,pic/flanker5.png,pic/flanker3.png,a,l,pic/AffRest1.png,,,,,,,,,,,,,,,,,,,,,,,,,0,0,0,0,0,52,52,15,,,,631.0613712,None,629.8786531,631.0786745,a,1,0.6046466,冷笑,l,1,0.9059352,zy,m,20,2024_Apr_18_0857,mian,2021.2.3,59.86665302
,,,,,,1,1,pic/flanker5.png,pic/flanker3.png,a,k,pic/AffRest1.png,,,,,,,,,,,,,,,,,,,,,,,,,0,0,0,0,0,53,53,20,,,,634.4280686,None,633.2453733,634.4449424,a,1,0.5692548,俊秀,k,1,0.586432,zy,m,20,2024_Apr_18_0857,mian,2021.2.3,59.86665302
,,,,,,1,1,pic/flanker5.png,pic/flanker3.png,a,k,pic/AffRest1.png,,,,,,,,,,,,,,,,,,,,,,,,,0,0,0,0,0,54,54,60,,,,637.544683,None,636.3619393,637.5613546,a,1,0.5610117,吉祥,k,1,0.6867776,zy,m,20,2024_Apr_18_0857,mian,2021.2.3,59.86665302
,,,,,,1,0,pic/flanker6.png,pic/flanker4.png,s,l,pic/AffRest1.png,,,,,,,,,,,,,,,,,,,,,,,,,0,0,0,0,0,55,55,13,,,,640.845339,None,639.6613397,640.861998,s,1,0.5004758,忧虑,l,1,0.6345628,zy,m,20,2024_Apr_18_0857,mian,2021.2.3,59.86665302
,,,,,,0,1,pic/flanker5.png,pic/flanker1.png,s,k,pic/AffRest1.png,,,,,,,,,,,,,,,,,,,,,,,,,0,0,0,0,0,56,56,0,,,,644.0613962,None,642.8786579,644.0785412,s,1,0.6020881,圣洁,k,1,0.6078568,zy,m,20,2024_Apr_18_0857,mian,2021.2.3,59.86665302
,,,,,,1,0,pic/flanker5.png,pic/flanker3.png,a,l,pic/AffRest1.png,,,,,,,,,,,,,,,,,,,,,,,,,0,0,0,0,0,57,57,63,,,,647.1953009,None,646.0119898,647.2119133,a,1,0.4755848,杂乱,l,1,0.5626995,zy,m,20,2024_Apr_18_0857,mian,2021.2.3,59.86665302
,,,,,,1,1,pic/flanker5.png,pic/flanker3.png,a,k,pic/AffRest1.png,,,,,,,,,,,,,,,,,,,,,,,,,0,0,0,0,0,58,58,76,,,,650.0786959,None,648.895248,650.0952977,a,1,0.5382711,振作,k,1,0.6131819,zy,m,20,2024_Apr_18_0857,mian,2021.2.3,59.86665302
,,,,,,0,0,pic/flanker5.png,pic/flanker1.png,s,l,pic/AffRest1.png,,,,,,,,,,,,,,,,,,,,,,,,,0,0,0,0,0,59,59,43,,,,653.0787194,None,651.8952939,653.0952743,s,1,0.4059435,鲁莽,l,1,0.6704604,zy,m,20,2024_Apr_18_0857,mian,2021.2.3,59.86665302
,,,,,,0,1,pic/flanker5.png,pic/flanker1.png,s,k,pic/AffRest1.png,,,,,,,,,,,,,,,,,,,,,,,,,0,0,0,0,0,60,60,64,,,,656.0620269,None,654.8786767,656.0786896,s,1,0.5303689,典雅,k,1,0.9229216,zy,m,20,2024_Apr_18_0857,mian,2021.2.3,59.86665302
,,,,,,0,1,pic/flanker5.png,pic/flanker1.png,s,k,pic/AffRest1.png,,,,,,,,,,,,,,,,,,,,,,,,,0,0,0,0,0,61,61,56,,,,659.5612253,None,658.3784777,659.578515,s,1,0.4592547,永恒,k,1,0.5276562,zy,m,20,2024_Apr_18_0857,mian,2021.2.3,59.86665302
,,,,,,1,1,pic/flanker5.png,pic/flanker3.png,a,k,pic/AffRest1.png,,,,,,,,,,,,,,,,,,,,,,,,,0,0,0,0,0,62,62,28,,,,662.5953273,None,661.4119116,662.6120037,a,1,0.4694097,清秀,k,1,0.4412682,zy,m,20,2024_Apr_18_0857,mian,2021.2.3,59.86665302
,,,,,,0,0,pic/flanker6.png,pic/flanker2.png,a,l,pic/AffRest1.png,,,,,,,,,,,,,,,,,,,,,,,,,0,0,0,0,0,63,63,57,,,,665.4119108,None,664.22855,665.4286303,a,1,0.4840604,落后,l,1,0.6887356,zy,m,20,2024_Apr_18_0857,mian,2021.2.3,59.86665302
,,,,,,0,1,pic/flanker6.png,pic/flanker2.png,a,k,pic/AffRest1.png,,,,,,,,,,,,,,,,,,,,,,,,,0,0,0,0,0,64,64,50,,,,668.6113571,None,667.4286464,668.6286218,a,1,0.4207078,公平,k,1,0.692867,zy,m,20,2024_Apr_18_0857,mian,2021.2.3,59.86665302
,,,,,,0,1,pic/flanker6.png,pic/flanker2.png,a,k,pic/AffRest1.png,,,,,,,,,,,,,,,,,,,,,,,,,0,0,0,0,0,65,65,18,,,,671.7785347,None,670.5952471,671.7952951,a,1,0.3917072,顽强,k,1,0.6183335,zy,m,20,2024_Apr_18_0857,mian,2021.2.3,59.86665302
,,,,,,1,0,pic/flanker6.png,pic/flanker4.png,s,l,pic/AffRest1.png,,,,,,,,,,,,,,,,,,,,,,,,,0,0,0,0,0,66,66,5,,,,674.8283169,None,673.6453263,674.8449467,s,1,0.4471566,罚款,l,1,0.6292255,zy,m,20,2024_Apr_18_0857,mian,2021.2.3,59.86665302
,,,,,,0,1,pic/flanker5.png,pic/flanker1.png,s,k,pic/AffRest1.png,,,,,,,,,,,,,,,,,,,,,,,,,0,0,0,0,0,67,67,24,,,,677.7446573,None,676.5611702,677.7611317,s,1,0.408196,敬佩,k,1,0.5833217,zy,m,20,2024_Apr_18_0857,mian,2021.2.3,59.86665302
,,,,,,1,0,pic/flanker6.png,pic/flanker4.png,s,l,pic/AffRest1.png,,,,,,,,,,,,,,,,,,,,,,,,,0,0,0,0,0,68,68,77,,,,680.5786101,None,679.3949966,680.5952932,s,1,0.5449412,悲观,l,1,0.766216,zy,m,20,2024_Apr_18_0857,mian,2021.2.3,59.86665302
,,,,,,0,1,pic/flanker6.png,pic/flanker2.png,a,k,pic/AffRest1.png,,,,,,,,,,,,,,,,,,,,,,,,,0,0,0,0,0,69,69,74,,,,683.862052,None,682.6786328,683.8786492,a,1,0.6249227,赞成,k,1,0.6115818,zy,m,20,2024_Apr_18_0857,mian,2021.2.3,59.86665302
,,,,,,1,1,pic/flanker5.png,pic/flanker3.png,a,k,pic/AffRest1.png,,,,,,,,,,,,,,,,,,,,,,,,,0,0,0,0,0,70,70,52,,,,687.0619508,None,685.8785672,687.0786773,a,1,0.4619267,鲜艳,k,1,0.5971963,zy,m,20,2024_Apr_18_0857,mian,2021.2.3,59.86665302
,,,,,,1,1,pic/flanker6.png,pic/flanker4.png,s,k,pic/AffRest1.png,,,,,,,,,,,,,,,,,,,,,,,,,0,0,0,0,0,71,71,54,,,,689.978465,None,688.7952536,689.9951942,s,1,0.5412323,丰满,k,1,0.7552726,zy,m,20,2024_Apr_18_0857,mian,2021.2.3,59.86665302
,,,,,,0,1,pic/flanker6.png,pic/flanker2.png,a,k,pic/AffRest1.png,,,,,,,,,,,,,,,,,,,,,,,,,0,0,0,0,0,72,72,42,,,,693.1286002,None,691.9452027,693.1453919,a,1,0.5307528,羡慕,k,1,1.136966,zy,m,20,2024_Apr_18_0857,mian,2021.2.3,59.86665302
,,,,,,0,0,pic/flanker5.png,pic/flanker1.png,s,l,pic/AffRest1.png,,,,,,,,,,,,,,,,,,,,,,,,,0,0,0,0,0,73,73,35,,,,696.7285774,None,695.5451541,696.7451759,s,1,0.470473,厌恶,l,1,0.6740684,zy,m,20,2024_Apr_18_0857,mian,2021.2.3,59.86665302
,,,,,,1,0,pic/flanker6.png,pic/flanker4.png,s,l,pic/AffRest1.png,,,,,,,,,,,,,,,,,,,,,,,,,0,0,0,0,0,74,74,53,,,,699.8618247,None,698.6785035,699.8785508,s,1,0.517109,沮丧,l,1,1.0491339,zy,m,20,2024_Apr_18_0857,mian,2021.2.3,59.86665302
,,,,,,0,1,pic/flanker6.png,pic/flanker2.png,a,k,pic/AffRest1.png,,,,,,,,,,,,,,,,,,,,,,,,,0,0,0,0,0,75,75,66,,,,703.2450337,None,702.0619406,703.2619528,a,1,0.4892726,生动,k,1,0.7018242,zy,m,20,2024_Apr_18_0857,mian,2021.2.3,59.86665302
,,,,,,1,1,pic/flanker5.png,pic/flanker3.png,a,k,pic/AffRest1.png,,,,,,,,,,,,,,,,,,,,,,,,,0,0,0,0,0,76,76,44,,,,706.2785753,None,705.0951783,706.2952188,a,1,0.515099,爽朗,k,1,0.4895014,zy,m,20,2024_Apr_18_0857,mian,2021.2.3,59.86665302
,,,,,,0,1,pic/flanker5.png,pic/flanker1.png,s,k,pic/AffRest1.png,,,,,,,,,,,,,,,,,,,,,,,,,0,0,0,0,0,77,77,8,,,,709.3119438,None,708.1286459,709.3285949,s,1,0.3586956,热切,k,1,1.1068392,zy,m,20,2024_Apr_18_0857,mian,2021.2.3,59.86665302
,,,,,,0,1,pic/flanker6.png,pic/flanker2.png,a,k,pic/AffRest1.png,,,,,,,,,,,,,,,,,,,,,,,,,0,0,0,0,0,78,78,34,,,,712.7450821,None,711.5618128,712.761799,a,1,0.4244449,正直,k,1,0.6377188,zy,m,20,2024_Apr_18_0857,mian,2021.2.3,59.86665302
,,,,,,1,0,pic/flanker5.png,pic/flanker3.png,a,l,pic/AffRest1.png,,,,,,,,,,,,,,,,,,,,,,,,,0,0,0,0,0,79,79,7,,,,715.711825,None,714.5284937,715.7285965,a,1,0.4373955,闷热,l,1,0.7458112,zy,m,20,2024_Apr_18_0857,mian,2021.2.3,59.86665302
,,,,,,,,,,,,pic/AffRest1.png,,,,,,,,,,,,,,,,,,,,,,,,,0,0,0,0,,,,,,,,,,,,,,,,,,,zy,m,20,2024_Apr_18_0857,mian,2021.2.3,59.86665302
,,,,,,1,1,pic/flanker6.png,pic/flanker4.png,s,k,pic/AffRest2.png,,,,,,,,,,,,,,,,,,,,,,,,,0,1,1,1,0,0,0,78,,,,731.3785583,None,730.1897029,731.3951743,s,1,0.7093144,旺盛,k,1,1.7761128,zy,m,20,2024_Apr_18_0857,mian,2021.2.3,59.86665302
,,,,,,1,0,pic/flanker6.png,pic/flanker4.png,s,l,pic/AffRest2.png,,,,,,,,,,,,,,,,,,,,,,,,,0,1,1,1,0,1,1,45,,,,735.7785146,None,734.5953586,735.7951342,s,1,1.0479855,轻率,l,1,0.737771,zy,m,20,2024_Apr_18_0857,mian,2021.2.3,59.86665302
,,,,,,1,1,pic/flanker5.png,pic/flanker3.png,a,k,pic/AffRest2.png,,,,,,,,,,,,,,,,,,,,,,,,,0,1,1,1,0,2,2,28,,,,739.4618838,None,738.2783311,739.4784211,a,1,0.5424934,振作,k,1,0.5879359,zy,m,20,2024_Apr_18_0857,mian,2021.2.3,59.86665302
,,,,,,1,0,pic/flanker5.png,pic/flanker3.png,a,l,pic/AffRest2.png,,,,,,,,,,,,,,,,,,,,,,,,,0,1,1,1,0,3,3,55,,,,742.4450047,None,741.2616991,742.4615825,a,1,0.5684031,丢失,l,1,0.6355264,zy,m,20,2024_Apr_18_0857,mian,2021.2.3,59.86665302
,,,,,,0,0,pic/flanker6.png,pic/flanker2.png,a,l,pic/AffRest2.png,,,,,,,,,,,,,,,,,,,,,,,,,0,1,1,1,0,4,4,73,,,,745.6118415,None,744.4283598,745.6285222,a,1,0.4286375,冷笑,l,1,0.6574014,zy,m,20,2024_Apr_18_0857,mian,2021.2.3,59.86665302
,,,,,,1,0,pic/flanker5.png,pic/flanker3.png,a,l,pic/AffRest2.png,,,,,,,,,,,,,,,,,,,,,,,,,0,1,1,1,0,5,5,15,,,,748.6952247,None,747.5117309,748.7117355,a,1,0.5054658,慌忙,l,1,0.6181859,zy,m,20,2024_Apr_18_0857,mian,2021.2.3,59.86665302
,,,,,,1,0,pic/flanker5.png,pic/flanker3.png,a,l,pic/AffRest2.png,,,,,,,,,,,,,,,,,,,,,,,,,0,1,1,1,0,6,6,47,,,,751.7118122,None,750.5284838,751.7285608,a,1,0.4765836,焦躁,l,1,0.5286183,zy,m,20,2024_Apr_18_0857,mian,2021.2.3,59.86665302
,,,,,,1,1,pic/flanker5.png,pic/flanker3.png,a,k,pic/AffRest2.png,,,,,,,,,,,,,,,,,,,,,,,,,0,1,1,1,0,7,7,76,,,,754.6618114,None,753.4785228,754.6783997,a,1,0.5874315,享受,k,1,0.6141254,zy,m,20,2024_Apr_18_0857,mian,2021.2.3,59.86665302
,,,,,,0,1,pic/flanker6.png,pic/flanker2.png,a,k,pic/AffRest2.png,,,,,,,,,,,,,,,,,,,,,,,,,0,1,1,1,0,8,8,66,,,,757.7617578,None,756.5784155,757.7785349,a,1,0.4342784,爽朗,k,1,0.5933417,zy,m,20,2024_Apr_18_0857,mian,2021.2.3,59.86665302
,,,,,,0,1,pic/flanker6.png,pic/flanker2.png,a,k,pic/AffRest2.png,,,,,,,,,,,,,,,,,,,,,,,,,0,1,1,1,0,9,9,2,,,,760.6952175,None,759.5118689,760.7117223,None,0,,廉洁,k,1,0.7412594,zy,m,20,2024_Apr_18_0857,mian,2021.2.3,59.86665302
,,,,,,0,0,pic/flanker5.png,pic/flanker1.png,s,l,pic/AffRest2.png,,,,,,,,,,,,,,,,,,,,,,,,,0,1,1,1,0,10,10,11,,,,764.6618795,None,763.4784548,764.6783671,s,1,0.5071903,怀疑,l,1,0.7678274,zy,m,20,2024_Apr_18_0857,mian,2021.2.3,59.86665302
,,,,,,0,0,pic/flanker6.png,pic/flanker2.png,a,l,pic/AffRest2.png,,,,,,,,,,,,,,,,,,,,,,,,,0,1,1,1,0,11,11,25,,,,767.8618308,None,766.6784994,767.8783871,a,1,0.3887096,烦恼,l,1,0.7010672,zy,m,20,2024_Apr_18_0857,mian,2021.2.3,59.86665302
,,,,,,0,0,pic/flanker6.png,pic/flanker2.png,a,l,pic/AffRest2.png,,,,,,,,,,,,,,,,,,,,,,,,,0,1,1,1,0,12,12,9,,,,770.9448799,None,769.7618623,770.9616471,a,1,0.3899554,闷热,l,1,0.6064646,zy,m,20,2024_Apr_18_0857,mian,2021.2.3,59.86665302
,,,,,,0,0,pic/flanker5.png,pic/flanker1.png,s,l,pic/AffRest2.png,,,,,,,,,,,,,,,,,,,,,,,,,0,1,1,1,0,13,13,35,,,,773.8783795,None,772.6950758,773.8950896,s,1,0.4259383,罚款,l,1,0.6111223,zy,m,20,2024_Apr_18_0857,mian,2021.2.3,59.86665302
,,,,,,1,1,pic/flanker6.png,pic/flanker4.png,s,k,pic/AffRest2.png,,,,,,,,,,,,,,,,,,,,,,,,,0,1,1,1,0,14,14,70,,,,776.8115738,None,775.6285889,776.8284705,s,1,0.6664424,前进,k,1,0.5925928,zy,m,20,2024_Apr_18_0857,mian,2021.2.3,59.86665302
,,,,,,1,1,pic/flanker6.png,pic/flanker4.png,s,k,pic/AffRest2.png,,,,,,,,,,,,,,,,,,,,,,,,,0,1,1,1,0,15,15,38,,,,780.0784054,None,778.8951186,780.0951661,s,1,0.5900347,优雅,k,1,0.6852841,zy,m,20,2024_Apr_18_0857,mian,2021.2.3,59.86665302
,,,,,,1,1,pic/flanker5.png,pic/flanker3.png,a,k,pic/AffRest2.png,,,,,,,,,,,,,,,,,,,,,,,,,0,1,1,1,0,16,16,68,,,,783.2117517,None,782.0283753,783.2284904,a,1,0.5538106,有利,k,1,0.5394816,zy,m,20,2024_Apr_18_0857,mian,2021.2.3,59.86665302
,,,,,,0,0,pic/flanker6.png,pic/flanker2.png,a,l,pic/AffRest2.png,,,,,,,,,,,,,,,,,,,,,,,,,0,1,1,1,0,17,17,33,,,,786.1615178,None,784.9779999,786.1780648,a,1,0.4246593,心慌,l,1,0.7171129,zy,m,20,2024_Apr_18_0857,mian,2021.2.3,59.86665302
,,,,,,1,0,pic/flanker6.png,pic/flanker4.png,s,l,pic/AffRest2.png,,,,,,,,,,,,,,,,,,,,,,,,,0,1,1,1,0,18,18,37,,,,789.1283038,None,787.9451374,789.145083,s,1,0.5223524,争吵,l,1,1.1161103,zy,m,20,2024_Apr_18_0857,mian,2021.2.3,59.86665302
,,,,,,0,0,pic/flanker5.png,pic/flanker1.png,s,l,pic/AffRest2.png,,,,,,,,,,,,,,,,,,,,,,,,,0,1,1,1,0,19,19,3,,,,792.7117413,None,791.5283825,792.7284866,s,1,0.4367652,忧虑,l,1,0.7486909,zy,m,20,2024_Apr_18_0857,mian,2021.2.3,59.86665302
,,,,,,0,1,pic/flanker5.png,pic/flanker1.png,s,k,pic/AffRest2.png,,,,,,,,,,,,,,,,,,,,,,,,,0,1,1,1,0,20,20,0,,,,795.7786269,None,794.5950025,795.7952818,s,1,0.3914498,吉祥,k,1,0.6055046,zy,m,20,2024_Apr_18_0857,mian,2021.2.3,59.86665302
,,,,,,0,1,pic/flanker5.png,pic/flanker1.png,s,k,pic/AffRest2.png,,,,,,,,,,,,,,,,,,,,,,,,,0,1,1,1,0,21,21,40,,,,798.7777568,None,797.5949996,798.7944263,s,1,0.4677072,奉献,k,1,0.5613304,zy,m,20,2024_Apr_18_0857,mian,2021.2.3,59.86665302
,,,,,,1,0,pic/flanker5.png,pic/flanker3.png,a,l,pic/AffRest2.png,,,,,,,,,,,,,,,,,,,,,,,,,0,1,1,1,0,22,22,71,,,,801.8115862,None,800.6280146,801.8278505,a,1,0.4811805,假冒,l,1,0.7997253,zy,m,20,2024_Apr_18_0857,mian,2021.2.3,59.86665302
,,,,,,1,0,pic/flanker6.png,pic/flanker4.png,s,l,pic/AffRest2.png,,,,,,,,,,,,,,,,,,,,,,,,,0,1,1,1,0,23,23,13,,,,805.0617448,None,803.8778332,805.0783906,s,1,0.4240019,堵塞,l,1,0.6949335,zy,m,20,2024_Apr_18_0857,mian,2021.2.3,59.86665302
,,,,,,1,1,pic/flanker5.png,pic/flanker3.png,a,k,pic/AffRest2.png,,,,,,,,,,,,,,,,,,,,,,,,,0,1,1,1,0,24,24,12,,,,808.1278525,None,806.9451278,808.1444867,a,1,0.4344364,羡慕,k,1,0.8295556,zy,m,20,2024_Apr_18_0857,mian,2021.2.3,59.86665302
,,,,,,0,0,pic/flanker5.png,pic/flanker1.png,s,l,pic/AffRest2.png,,,,,,,,,,,,,,,,,,,,,,,,,0,1,1,1,0,25,25,43,,,,811.245011,None,810.0618471,811.2617814,s,1,0.3902004,沮丧,l,1,1.0428109,zy,m,20,2024_Apr_18_0857,mian,2021.2.3,59.86665302
,,,,,,0,1,pic/flanker5.png,pic/flanker1.png,s,k,pic/AffRest2.png,,,,,,,,,,,,,,,,,,,,,,,,,0,1,1,1,0,26,26,8,,,,814.6277544,None,813.4448611,814.6450048,s,1,0.3996079,瑰丽,k,1,0.5530482,zy,m,20,2024_Apr_18_0857,mian,2021.2.3,59.86665302
,,,,,,1,0,pic/flanker5.png,pic/flanker3.png,a,l,pic/AffRest2.png,,,,,,,,,,,,,,,,,,,,,,,,,0,1,1,1,0,27,27,7,,,,817.577794,None,816.3951177,817.5950543,a,1,0.4979993,损害,l,1,1.0066169,zy,m,20,2024_Apr_18_0857,mian,2021.2.3,59.86665302
,,,,,,1,0,pic/flanker6.png,pic/flanker4.png,s,l,pic/AffRest2.png,,,,,,,,,,,,,,,,,,,,,,,,,0,1,1,1,0,28,28,5,,,,821.0950642,None,819.9117191,821.1116827,s,1,0.5114467,处罚,l,1,0.6751383,zy,m,20,2024_Apr_18_0857,mian,2021.2.3,59.86665302
,,,,,,1,0,pic/flanker6.png,pic/flanker4.png,s,l,pic/AffRest2.png,,,,,,,,,,,,,,,,,,,,,,,,,0,1,1,1,0,29,29,53,,,,824.1777503,None,822.9950728,824.1945392,s,1,0.5013897,穷苦,l,1,1.1202457,zy,m,20,2024_Apr_18_0857,mian,2021.2.3,59.86665302
,,,,,,0,1,pic/flanker5.png,pic/flanker1.png,s,k,pic/AffRest2.png,,,,,,,,,,,,,,,,,,,,,,,,,0,1,1,1,0,30,30,56,,,,827.7949953,None,826.6117908,827.8116863,s,1,0.3831977,热切,k,1,0.6883046,zy,m,20,2024_Apr_18_0857,mian,2021.2.3,59.86665302
,,,,,,0,1,pic/flanker6.png,pic/flanker2.png,a,k,pic/AffRest2.png,,,,,,,,,,,,,,,,,,,,,,,,,0,1,1,1,0,31,31,26,,,,830.778503,None,829.595172,830.7951127,a,1,0.3667928,典雅,k,1,0.6269022,zy,m,20,2024_Apr_18_0857,mian,2021.2.3,59.86665302
,,,,,,0,1,pic/flanker5.png,pic/flanker1.png,s,k,pic/AffRest2.png,,,,,,,,,,,,,,,,,,,,,,,,,0,1,1,1,0,32,32,48,,,,833.6283413,None,832.4450581,833.644938,s,1,0.3697829,诚恳,k,1,0.5897109,zy,m,20,2024_Apr_18_0857,mian,2021.2.3,59.86665302
,,,,,,1,1,pic/flanker6.png,pic/flanker4.png,s,k,pic/AffRest2.png,,,,,,,,,,,,,,,,,,,,,,,,,0,1,1,1,0,33,33,22,,,,836.6449153,None,835.4616709,836.661766,s,1,0.5153021,珍藏,k,1,0.4975524,zy,m,20,2024_Apr_18_0857,mian,2021.2.3,59.86665302
,,,,,,0,1,pic/flanker6.png,pic/flanker2.png,a,k,pic/AffRest2.png,,,,,,,,,,,,,,,,,,,,,,,,,0,1,1,1,0,34,34,50,,,,839.5948969,None,838.4111746,839.6115363,a,1,0.3785351,正直,k,1,0.5177549,zy,m,20,2024_Apr_18_0857,mian,2021.2.3,59.86665302
,,,,,,1,1,pic/flanker5.png,pic/flanker3.png,a,k,pic/AffRest2.png,,,,,,,,,,,,,,,,,,,,,,,,,0,1,1,1,0,35,35,20,,,,842.4950159,None,841.3117687,842.5116766,a,1,0.4827156,富足,k,1,0.7474331,zy,m,20,2024_Apr_18_0857,mian,2021.2.3,59.86665302
,,,,,,0,0,pic/flanker6.png,pic/flanker2.png,a,l,pic/AffRest2.png,,,,,,,,,,,,,,,,,,,,,,,,,0,1,1,1,0,36,36,41,,,,845.7783781,None,844.5951276,845.7950698,a,1,0.4940661,懒惰,l,1,0.7059007,zy,m,20,2024_Apr_18_0857,mian,2021.2.3,59.86665302
,,,,,,1,1,pic/flanker6.png,pic/flanker4.png,s,k,pic/AffRest2.png,,,,,,,,,,,,,,,,,,,,,,,,,0,1,1,1,0,37,37,30,,,,848.9618051,None,847.7785847,848.9784358,s,1,0.4859604,生动,k,1,0.6299636,zy,m,20,2024_Apr_18_0857,mian,2021.2.3,59.86665302
,,,,,,1,1,pic/flanker5.png,pic/flanker3.png,a,k,pic/AffRest2.png,,,,,,,,,,,,,,,,,,,,,,,,,0,1,1,1,0,38,38,36,,,,851.9616961,None,850.7781435,851.9777001,a,1,0.4753979,俊秀,k,1,1.1227259,zy,m,20,2024_Apr_18_0857,mian,2021.2.3,59.86665302
,,,,,,0,1,pic/flanker5.png,pic/flanker1.png,s,k,pic/AffRest2.png,,,,,,,,,,,,,,,,,,,,,,,,,0,1,1,1,0,39,39,64,,,,855.6117248,None,854.4275928,855.6284259,s,1,0.5427623,留恋,k,1,0.5117296,zy,m,20,2024_Apr_18_0857,mian,2021.2.3,59.86665302
,,,,,,0,0,pic/flanker6.png,pic/flanker2.png,a,l,pic/AffRest2.png,,,,,,,,,,,,,,,,,,,,,,,,,0,1,1,1,0,40,40,65,,,,858.494582,None,857.3111866,858.5113084,a,1,0.3647748,杂乱,l,1,0.7341604,zy,m,20,2024_Apr_18_0857,mian,2021.2.3,59.86665302
,,,,,,0,0,pic/flanker5.png,pic/flanker1.png,s,l,pic/AffRest2.png,,,,,,,,,,,,,,,,,,,,,,,,,0,1,1,1,0,41,41,19,,,,861.6115222,None,860.428329,861.6282698,s,1,0.4948197,落后,l,1,0.7082481,zy,m,20,2024_Apr_18_0857,mian,2021.2.3,59.86665302
,,,,,,1,1,pic/flanker6.png,pic/flanker4.png,s,k,pic/AffRest2.png,,,,,,,,,,,,,,,,,,,,,,,,,0,1,1,1,0,42,42,62,,,,864.7282668,None,863.5448748,864.7449909,s,1,0.5198384,畅销,k,1,0.6687484,zy,m,20,2024_Apr_18_0857,mian,2021.2.3,59.86665302
,,,,,,0,0,pic/flanker6.png,pic/flanker2.png,a,l,pic/AffRest2.png,,,,,,,,,,,,,,,,,,,,,,,,,0,1,1,1,0,43,43,1,,,,867.9282915,None,866.7449925,867.944976,a,1,0.5324888,黑暗,l,1,0.5425692,zy,m,20,2024_Apr_18_0857,mian,2021.2.3,59.86665302
,,,,,,1,1,pic/flanker5.png,pic/flanker3.png,a,k,pic/AffRest2.png,,,,,,,,,,,,,,,,,,,,,,,,,0,1,1,1,0,44,44,4,,,,871.0616097,None,869.8783037,871.0783239,a,1,0.5452117,赞成,k,1,0.6179011,zy,m,20,2024_Apr_18_0857,mian,2021.2.3,59.86665302
,,,,,,1,0,pic/flanker6.png,pic/flanker4.png,s,l,pic/AffRest2.png,,,,,,,,,,,,,,,,,,,,,,,,,0,1,1,1,0,45,45,77,,,,874.1783252,None,872.9949291,874.1948931,s,1,0.5096462,消沉,l,1,1.1892816,zy,m,20,2024_Apr_18_0857,mian,2021.2.3,59.86665302
,,,,,,0,1,pic/flanker5.png,pic/flanker1.png,s,k,pic/AffRest2.png,,,,,,,,,,,,,,,,,,,,,,,,,0,1,1,1,0,46,46,72,,,,877.9118928,None,876.7282435,877.9285146,s,1,0.4322348,雄厚,k,1,0.6571594,zy,m,20,2024_Apr_18_0857,mian,2021.2.3,59.86665302
,,,,,,1,0,pic/flanker5.png,pic/flanker3.png,a,l,pic/AffRest2.png,,,,,,,,,,,,,,,,,,,,,,,,,0,1,1,1,0,47,47,79,,,,880.9281611,None,879.744951,880.9448655,a,1,0.4973151,自卑,l,1,0.6545336,zy,m,20,2024_Apr_18_0857,mian,2021.2.3,59.86665302
,,,,,,1,0,pic/flanker5.png,pic/flanker3.png,a,l,pic/AffRest2.png,,,,,,,,,,,,,,,,,,,,,,,,,0,1,1,1,0,48,48,31,,,,883.9451004,None,882.7615153,883.9616783,a,1,0.5435955,郁闷,l,1,0.9681175,zy,m,20,2024_Apr_18_0857,mian,2021.2.3,59.86665302
,,,,,,1,0,pic/flanker6.png,pic/flanker4.png,s,l,pic/AffRest2.png,,,,,,,,,,,,,,,,,,,,,,,,,0,1,1,1,0,49,49,61,,,,887.3951222,None,886.2116708,887.411871,s,1,0.5605894,别扭,l,1,0.5821192,zy,m,20,2024_Apr_18_0857,mian,2021.2.3,59.86665302
,,,,,,0,1,pic/flanker6.png,pic/flanker2.png,a,k,pic/AffRest2.png,,,,,,,,,,,,,,,,,,,,,,,,,0,1,1,1,0,50,50,58,,,,890.4117173,None,889.2283415,890.4285112,a,1,0.4634631,永恒,k,1,0.8315277,zy,m,20,2024_Apr_18_0857,mian,2021.2.3,59.86665302
,,,,,,0,1,pic/flanker6.png,pic/flanker2.png,a,k,pic/AffRest2.png,,,,,,,,,,,,,,,,,,,,,,,,,0,1,1,1,0,51,51,34,,,,893.7452038,None,892.561521,893.7618483,a,1,0.5879197,如愿,k,1,0.6031262,zy,m,20,2024_Apr_18_0857,mian,2021.2.3,59.86665302
,,,,,,0,0,pic/flanker5.png,pic/flanker1.png,s,l,pic/AffRest2.png,,,,,,,,,,,,,,,,,,,,,,,,,0,1,1,1,0,52,52,59,,,,896.9616328,None,895.7783613,896.9783281,s,1,0.3711409,悲观,l,1,0.5504994,zy,m,20,2024_Apr_18_0857,mian,2021.2.3,59.86665302
,,,,,,0,0,pic/flanker5.png,pic/flanker1.png,s,l,pic/AffRest2.png,,,,,,,,,,,,,,,,,,,,,,,,,0,1,1,1,0,53,53,67,,,,899.9782724,None,898.7950277,899.9950445,s,1,0.4062086,伤心,l,1,0.5769655,zy,m,20,2024_Apr_18_0857,mian,2021.2.3,59.86665302
,,,,,,0,0,pic/flanker5.png,pic/flanker1.png,s,l,pic/AffRest2.png,,,,,,,,,,,,,,,,,,,,,,,,,0,1,1,1,0,54,54,51,,,,902.8451595,None,901.6616634,902.8616327,s,1,0.4267379,浪费,l,1,0.8017409,zy,m,20,2024_Apr_18_0857,mian,2021.2.3,59.86665302
,,,,,,0,1,pic/flanker6.png,pic/flanker2.png,a,k,pic/AffRest2.png,,,,,,,,,,,,,,,,,,,,,,,,,0,1,1,1,0,55,55,74,,,,906.0117829,None,904.8282352,906.028498,a,1,0.409853,丰满,k,1,0.5836899,zy,m,20,2024_Apr_18_0857,mian,2021.2.3,59.86665302
,,,,,,0,1,pic/flanker6.png,pic/flanker2.png,a,k,pic/AffRest2.png,,,,,,,,,,,,,,,,,,,,,,,,,0,1,1,1,0,56,56,42,,,,909.0781608,None,907.8948351,909.0948491,a,1,0.3284215,精致,k,1,0.8016087,zy,m,20,2024_Apr_18_0857,mian,2021.2.3,59.86665302
,,,,,,1,1,pic/flanker6.png,pic/flanker4.png,s,k,pic/AffRest2.png,,,,,,,,,,,,,,,,,,,,,,,,,0,1,1,1,0,57,57,54,,,,912.1948795,None,911.0115251,912.2113873,s,1,0.5393226,顽强,k,1,1.1217119,zy,m,20,2024_Apr_18_0857,mian,2021.2.3,59.86665302
,,,,,,0,1,pic/flanker5.png,pic/flanker1.png,s,k,pic/AffRest2.png,,,,,,,,,,,,,,,,,,,,,,,,,0,1,1,1,0,58,58,16,,,,915.6782058,None,914.4948128,915.6946835,s,1,0.5415504,豪放,k,1,0.6942087,zy,m,20,2024_Apr_18_0857,mian,2021.2.3,59.86665302
,,,,,,0,1,pic/flanker5.png,pic/flanker1.png,s,k,pic/AffRest2.png,,,,,,,,,,,,,,,,,,,,,,,,,0,1,1,1,0,59,59,32,,,,918.7616475,None,917.5781738,918.7782197,s,1,0.3906112,敬佩,k,1,0.5769892,zy,m,20,2024_Apr_18_0857,mian,2021.2.3,59.86665302
,,,,,,0,0,pic/flanker6.png,pic/flanker2.png,a,l,pic/AffRest2.png,,,,,,,,,,,,,,,,,,,,,,,,,0,1,1,1,0,60,60,57,,,,921.7282788,None,920.544778,921.7448005,a,1,0.8633137,逃避,l,1,1.264121,zy,m,20,2024_Apr_18_0857,mian,2021.2.3,59.86665302
,,,,,,1,0,pic/flanker5.png,pic/flanker3.png,a,l,pic/AffRest2.png,,,,,,,,,,,,,,,,,,,,,,,,,0,1,1,1,0,61,61,23,,,,925.8949754,None,924.7111449,925.9115975,a,1,0.7509755,嘲笑,l,1,0.6124445,zy,m,20,2024_Apr_18_0857,mian,2021.2.3,59.86665302
,,,,,,1,1,pic/flanker6.png,pic/flanker4.png,s,k,pic/AffRest2.png,,,,,,,,,,,,,,,,,,,,,,,,,0,1,1,1,0,62,62,6,,,,929.194951,None,928.011491,929.2114819,s,1,0.5412193,圣洁,k,1,0.5803456,zy,m,20,2024_Apr_18_0857,mian,2021.2.3,59.86665302
,,,,,,1,1,pic/flanker6.png,pic/flanker4.png,s,k,pic/AffRest2.png,,,,,,,,,,,,,,,,,,,,,,,,,0,1,1,1,0,63,63,14,,,,932.3281599,None,931.1448645,932.3449471,s,1,0.5239039,鲜艳,k,1,0.5776179,zy,m,20,2024_Apr_18_0857,mian,2021.2.3,59.86665302
,,,,,,1,0,pic/flanker6.png,pic/flanker4.png,s,l,pic/AffRest2.png,,,,,,,,,,,,,,,,,,,,,,,,,0,1,1,1,0,64,64,21,,,,935.3282293,None,934.14492,935.3448971,s,1,0.574527,禁止,l,1,0.6258526,zy,m,20,2024_Apr_18_0857,mian,2021.2.3,59.86665302
,,,,,,1,1,pic/flanker5.png,pic/flanker3.png,a,k,pic/AffRest2.png,,,,,,,,,,,,,,,,,,,,,,,,,0,1,1,1,0,65,65,44,,,,938.4782281,None,937.2948511,938.4948779,a,1,0.5550202,公平,k,1,0.6256419,zy,m,20,2024_Apr_18_0857,mian,2021.2.3,59.86665302
,,,,,,1,1,pic/flanker5.png,pic/flanker3.png,a,k,pic/AffRest2.png,,,,,,,,,,,,,,,,,,,,,,,,,0,1,1,1,0,66,66,60,,,,941.5114324,None,940.328022,941.5282504,a,1,0.501574,秀丽,k,1,0.5691831,zy,m,20,2024_Apr_18_0857,mian,2021.2.3,59.86665302
,,,,,,0,1,pic/flanker5.png,pic/flanker1.png,s,k,pic/AffRest2.png,,,,,,,,,,,,,,,,,,,,,,,,,0,1,1,1,0,67,67,24,,,,944.5448901,None,943.3615716,944.561664,s,1,0.595084,卓越,k,1,0.5853649,zy,m,20,2024_Apr_18_0857,mian,2021.2.3,59.86665302
,,,,,,1,0,pic/flanker5.png,pic/flanker3.png,a,l,pic/AffRest2.png,,,,,,,,,,,,,,,,,,,,,,,,,0,1,1,1,0,68,68,39,,,,947.5779807,None,946.3946977,947.5949009,a,1,0.485533,孤单,l,1,0.7319803,zy,m,20,2024_Apr_18_0857,mian,2021.2.3,59.86665302
,,,,,,0,0,pic/flanker6.png,pic/flanker2.png,a,l,pic/AffRest2.png,,,,,,,,,,,,,,,,,,,,,,,,,0,1,1,1,0,69,69,49,,,,950.8448302,None,949.6614839,950.8615147,a,1,0.4227954,撒谎,l,1,0.6296984,zy,m,20,2024_Apr_18_0857,mian,2021.2.3,59.86665302
,,,,,,0,0,pic/flanker5.png,pic/flanker1.png,s,l,pic/AffRest2.png,,,,,,,,,,,,,,,,,,,,,,,,,0,1,1,1,0,70,70,75,,,,953.9281454,None,952.7447471,953.9448151,s,1,0.3634821,厌恶,l,1,0.7940977,zy,m,20,2024_Apr_18_0857,mian,2021.2.3,59.86665302
,,,,,,0,1,pic/flanker6.png,pic/flanker2.png,a,k,pic/AffRest2.png,,,,,,,,,,,,,,,,,,,,,,,,,0,1,1,1,0,71,71,18,,,,957.0614077,None,955.8779757,957.0780212,a,1,0.4079107,充裕,k,1,0.6343217,zy,m,20,2024_Apr_18_0857,mian,2021.2.3,59.86665302
,,,,,,0,0,pic/flanker6.png,pic/flanker2.png,a,l,pic/AffRest2.png,,,,,,,,,,,,,,,,,,,,,,,,,0,1,1,1,0,72,72,17,,,,960.1447541,None,958.9612331,960.1614833,a,1,0.4104876,鲁莽,l,1,0.5552987,zy,m,20,2024_Apr_18_0857,mian,2021.2.3,59.86665302
,,,,,,0,1,pic/flanker6.png,pic/flanker2.png,a,k,pic/AffRest2.png,,,,,,,,,,,,,,,,,,,,,,,,,0,1,1,1,0,73,73,10,,,,962.96135,None,961.7781678,962.9781873,a,1,0.4092944,富丽,k,1,0.622234,zy,m,20,2024_Apr_18_0857,mian,2021.2.3,59.86665302
,,,,,,1,1,pic/flanker6.png,pic/flanker4.png,s,k,pic/AffRest2.png,,,,,,,,,,,,,,,,,,,,,,,,,0,1,1,1,0,74,74,46,,,,965.9447698,None,964.7614232,965.9613277,s,1,0.5011184,清秀,k,1,0.5379295,zy,m,20,2024_Apr_18_0857,mian,2021.2.3,59.86665302
,,,,,,1,0,pic/flanker6.png,pic/flanker4.png,s,l,pic/AffRest2.png,,,,,,,,,,,,,,,,,,,,,,,,,0,1,1,1,0,75,75,29,,,,968.9448416,None,967.7614831,968.9613827,s,1,0.4842108,失意,l,1,0.710841,zy,m,20,2024_Apr_18_0857,mian,2021.2.3,59.86665302
,,,,,,1,1,pic/flanker5.png,pic/flanker3.png,a,k,pic/AffRest2.png,,,,,,,,,,,,,,,,,,,,,,,,,0,1,1,1,0,76,76,52,,,,972.1781266,None,970.994279,972.1942489,a,1,0.6553065,舒畅,k,1,0.8221211,zy,m,20,2024_Apr_18_0857,mian,2021.2.3,59.86665302
,,,,,,1,0,pic/flanker6.png,pic/flanker4.png,s,l,pic/AffRest2.png,,,,,,,,,,,,,,,,,,,,,,,,,0,1,1,1,0,77,77,69,,,,975.6448563,None,974.4614862,975.661331,s,1,0.5876092,排斥,l,1,0.6644898,zy,m,20,2024_Apr_18_0857,mian,2021.2.3,59.86665302
,,,,,,0,0,pic/flanker5.png,pic/flanker1.png,s,l,pic/AffRest2.png,,,,,,,,,,,,,,,,,,,,,,,,,0,1,1,1,0,78,78,27,,,,978.7773247,None,977.594831,978.7941673,s,1,0.4358002,胡涂,l,1,0.6110877,zy,m,20,2024_Apr_18_0857,mian,2021.2.3,59.86665302
,,,,,,1,0,pic/flanker5.png,pic/flanker3.png,a,l,pic/AffRest2.png,,,,,,,,,,,,,,,,,,,,,,,,,0,1,1,1,0,79,79,63,,,,981.7114102,None,980.5280036,981.7281565,a,1,0.6146705,缺乏,l,1,0.6729196,zy,m,20,2024_Apr_18_0857,mian,2021.2.3,59.86665302
,,,,,,,,,,,,pic/AffRest2.png,,,,,,,,,,,,,,,,,,,,,,,,,0,1,1,1,,,,,,,,,,,,,,,,,,,zy,m,20,2024_Apr_18_0857,mian,2021.2.3,59.86665302
,,,,,,0,0,pic/flanker6.png,pic/flanker2.png,a,l,pic/AffRest3.png,,,,,,,,,,,,,,,,,,,,,,,,,0,2,2,2,0,0,0,17,,,,991.7944887,None,990.6030375,991.8111463,a,1,0.4162662,轻率,l,1,0.6753566,zy,m,20,2024_Apr_18_0857,mian,2021.2.3,59.86665302
,,,,,,0,1,pic/flanker5.png,pic/flanker1.png,s,k,pic/AffRest3.png,,,,,,,,,,,,,,,,,,,,,,,,,0,2,2,2,0,1,1,16,,,,994.8614452,None,993.6780586,994.8779944,s,1,0.3455225,享受,k,1,0.5446439,zy,m,20,2024_Apr_18_0857,mian,2021.2.3,59.86665302
,,,,,,1,0,pic/flanker6.png,pic/flanker4.png,s,l,pic/AffRest3.png,,,,,,,,,,,,,,,,,,,,,,,,,0,2,2,2,0,2,2,69,,,,997.794772,None,996.6114352,997.811255,s,1,0.5054931,失意,l,1,0.7363631,zy,m,20,2024_Apr_18_0857,mian,2021.2.3,59.86665302
,,,,,,1,1,pic/flanker6.png,pic/flanker4.png,s,k,pic/AffRest3.png,,,,,,,,,,,,,,,,,,,,,,,,,0,2,2,2,0,3,3,78,,,,1001.077909,None,999.8945397,1001.094542,s,1,0.5052998,充裕,k,1,0.795344,zy,m,20,2024_Apr_18_0857,mian,2021.2.3,59.86665302
,,,,,,0,1,pic/flanker6.png,pic/flanker2.png,a,k,pic/AffRest3.png,,,,,,,,,,,,,,,,,,,,,,,,,0,2,2,2,0,4,4,26,,,,1004.427863,None,1003.244047,1004.444622,a,1,0.5038611,清秀,k,1,0.4522775,zy,m,20,2024_Apr_18_0857,mian,2021.2.3,59.86665302
,,,,,,0,0,pic/flanker5.png,pic/flanker1.png,s,l,pic/AffRest3.png,,,,,,,,,,,,,,,,,,,,,,,,,0,2,2,2,0,5,5,11,,,,1007.294264,None,1006.111454,1007.310955,s,1,0.3769021,怀疑,l,1,0.5565062,zy,m,20,2024_Apr_18_0857,mian,2021.2.3,59.86665302
,,,,,,1,0,pic/flanker5.png,pic/flanker3.png,a,l,pic/AffRest3.png,,,,,,,,,,,,,,,,,,,,,,,,,0,2,2,2,0,6,6,39,,,,1010.311487,None,1009.128267,1010.328019,a,1,0.4579095,逃避,l,1,0.5327002,zy,m,20,2024_Apr_18_0857,mian,2021.2.3,59.86665302
,,,,,,1,0,pic/flanker5.png,pic/flanker3.png,a,l,pic/AffRest3.png,,,,,,,,,,,,,,,,,,,,,,,,,0,2,2,2,0,7,7,63,,,,1013.228143,None,1012.044706,1013.244802,a,1,0.5200444,忧虑,l,1,0.6135608,zy,m,20,2024_Apr_18_0857,mian,2021.2.3,59.86665302
,,,,,,1,0,pic/flanker5.png,pic/flanker3.png,a,l,pic/AffRest3.png,,,,,,,,,,,,,,,,,,,,,,,,,0,2,2,2,0,8,8,79,,,,1016.344171,None,1015.161281,1016.361547,a,1,0.5199829,烦恼,l,1,0.5044716,zy,m,20,2024_Apr_18_0857,mian,2021.2.3,59.86665302
,,,,,,1,1,pic/flanker5.png,pic/flanker3.png,a,k,pic/AffRest3.png,,,,,,,,,,,,,,,,,,,,,,,,,0,2,2,2,0,9,9,36,,,,1019.27743,None,1018.09466,1019.294123,a,1,0.5537822,精致,k,1,0.7055445,zy,m,20,2024_Apr_18_0857,mian,2021.2.3,59.86665302
,,,,,,0,1,pic/flanker6.png,pic/flanker2.png,a,k,pic/AffRest3.png,,,,,,,,,,,,,,,,,,,,,,,,,0,2,2,2,0,10,10,34,,,,1022.444074,None,1021.261207,1022.461403,a,1,0.3699136,廉洁,k,1,0.654057,zy,m,20,2024_Apr_18_0857,mian,2021.2.3,59.86665302
,,,,,,0,1,pic/flanker5.png,pic/flanker1.png,s,k,pic/AffRest3.png,,,,,,,,,,,,,,,,,,,,,,,,,0,2,2,2,0,11,11,40,,,,1025.528059,None,1024.344471,1025.544643,s,1,0.390929,富足,k,1,0.4746189,zy,m,20,2024_Apr_18_0857,mian,2021.2.3,59.86665302
,,,,,,1,1,pic/flanker5.png,pic/flanker3.png,a,k,pic/AffRest3.png,,,,,,,,,,,,,,,,,,,,,,,,,0,2,2,2,0,12,12,68,,,,1028.394607,None,1027.21077,1028.411029,a,1,0.4665862,前进,k,1,0.5029438,zy,m,20,2024_Apr_18_0857,mian,2021.2.3,59.86665302
,,,,,,1,1,pic/flanker6.png,pic/flanker4.png,s,k,pic/AffRest3.png,,,,,,,,,,,,,,,,,,,,,,,,,0,2,2,2,0,13,13,46,,,,1031.26136,None,1030.077918,1031.277899,s,1,0.4713276,正直,k,1,0.5327803,zy,m,20,2024_Apr_18_0857,mian,2021.2.3,59.86665302
,,,,,,0,1,pic/flanker6.png,pic/flanker2.png,a,k,pic/AffRest3.png,,,,,,,,,,,,,,,,,,,,,,,,,0,2,2,2,0,14,14,10,,,,1034.161439,None,1032.977702,1034.178027,a,1,0.476487,留恋,k,1,0.686473,zy,m,20,2024_Apr_18_0857,mian,2021.2.3,59.86665302
,,,,,,1,1,pic/flanker5.png,pic/flanker3.png,a,k,pic/AffRest3.png,,,,,,,,,,,,,,,,,,,,,,,,,0,2,2,2,0,15,15,52,,,,1037.344704,None,1036.161238,1037.361298,a,1,0.5418457,振作,k,1,0.5362096,zy,m,20,2024_Apr_18_0857,mian,2021.2.3,59.86665302
,,,,,,0,1,pic/flanker6.png,pic/flanker2.png,a,k,pic/AffRest3.png,,,,,,,,,,,,,,,,,,,,,,,,,0,2,2,2,0,16,16,74,,,,1040.277905,None,1039.094748,1040.293977,a,1,0.4517269,爽朗,k,1,0.4336276,zy,m,20,2024_Apr_18_0857,mian,2021.2.3,59.86665302
,,,,,,0,1,pic/flanker5.png,pic/flanker1.png,s,k,pic/AffRest3.png,,,,,,,,,,,,,,,,,,,,,,,,,0,2,2,2,0,17,17,56,,,,1043.06116,None,1041.877624,1043.07812,s,1,0.4268535,奉献,k,1,0.5208993,zy,m,20,2024_Apr_18_0857,mian,2021.2.3,59.86665302
,,,,,,0,0,pic/flanker5.png,pic/flanker1.png,s,l,pic/AffRest3.png,,,,,,,,,,,,,,,,,,,,,,,,,0,2,2,2,0,18,18,35,,,,1045.944642,None,1044.761138,1045.961265,s,1,0.4990649,损害,l,1,0.6263183,zy,m,20,2024_Apr_18_0857,mian,2021.2.3,59.86665302
,,,,,,1,1,pic/flanker5.png,pic/flanker3.png,a,k,pic/AffRest3.png,,,,,,,,,,,,,,,,,,,,,,,,,0,2,2,2,0,19,19,44,,,,1049.128282,None,1047.944707,1049.144694,a,1,0.6958023,有利,k,1,0.5179107,zy,m,20,2024_Apr_18_0857,mian,2021.2.3,59.86665302
,,,,,,0,1,pic/flanker6.png,pic/flanker2.png,a,k,pic/AffRest3.png,,,,,,,,,,,,,,,,,,,,,,,,,0,2,2,2,0,20,20,42,,,,1052.178112,None,1050.994843,1052.194755,a,1,0.4618557,热切,k,1,0.5911095,zy,m,20,2024_Apr_18_0857,mian,2021.2.3,59.86665302
,,,,,,0,0,pic/flanker6.png,pic/flanker2.png,a,l,pic/AffRest3.png,,,,,,,,,,,,,,,,,,,,,,,,,0,2,2,2,0,21,21,25,,,,1055.227256,None,1054.044555,1055.243848,a,1,0.4076722,浪费,l,1,0.7936178,zy,m,20,2024_Apr_18_0857,mian,2021.2.3,59.86665302
,,,,,,0,0,pic/flanker6.png,pic/flanker2.png,a,l,pic/AffRest3.png,,,,,,,,,,,,,,,,,,,,,,,,,0,2,2,2,0,22,22,49,,,,1058.360932,None,1057.177352,1058.377622,a,1,0.4592426,嘲笑,l,1,0.7330365,zy,m,20,2024_Apr_18_0857,mian,2021.2.3,59.86665302
,,,,,,0,1,pic/flanker5.png,pic/flanker1.png,s,k,pic/AffRest3.png,,,,,,,,,,,,,,,,,,,,,,,,,0,2,2,2,0,23,23,72,,,,1061.461222,None,1060.277705,1061.477848,s,1,0.4125842,豪放,k,1,0.9486188,zy,m,20,2024_Apr_18_0857,mian,2021.2.3,59.86665302
,,,,,,1,0,pic/flanker6.png,pic/flanker4.png,s,l,pic/AffRest3.png,,,,,,,,,,,,,,,,,,,,,,,,,0,2,2,2,0,24,24,21,,,,1064.810897,None,1063.627536,1064.827611,s,1,0.5654695,慌忙,l,1,0.6250559,zy,m,20,2024_Apr_18_0857,mian,2021.2.3,59.86665302
,,,,,,0,1,pic/flanker6.png,pic/flanker2.png,a,k,pic/AffRest3.png,,,,,,,,,,,,,,,,,,,,,,,,,0,2,2,2,0,25,25,58,,,,1068.061424,None,1066.877949,1068.077978,a,1,0.4050439,顽强,k,1,0.6749383,zy,m,20,2024_Apr_18_0857,mian,2021.2.3,59.86665302
,,,,,,1,0,pic/flanker6.png,pic/flanker4.png,s,l,pic/AffRest3.png,,,,,,,,,,,,,,,,,,,,,,,,,0,2,2,2,0,26,26,77,,,,1071.194602,None,1070.011267,1071.211135,s,1,0.5462682,落后,l,1,0.6026929,zy,m,20,2024_Apr_18_0857,mian,2021.2.3,59.86665302
,,,,,,1,0,pic/flanker6.png,pic/flanker4.png,s,l,pic/AffRest3.png,,,,,,,,,,,,,,,,,,,,,,,,,0,2,2,2,0,27,27,13,,,,1074.327906,None,1073.144682,1074.344658,s,1,0.5902938,冷笑,l,1,0.9372065,zy,m,20,2024_Apr_18_0857,mian,2021.2.3,59.86665302
,,,,,,0,0,pic/flanker5.png,pic/flanker1.png,s,l,pic/AffRest3.png,,,,,,,,,,,,,,,,,,,,,,,,,0,2,2,2,0,28,28,51,,,,1077.794672,None,1076.611175,1077.811147,s,1,0.5206399,撒谎,l,1,0.6456558,zy,m,20,2024_Apr_18_0857,mian,2021.2.3,59.86665302
,,,,,,0,1,pic/flanker5.png,pic/flanker1.png,s,k,pic/AffRest3.png,,,,,,,,,,,,,,,,,,,,,,,,,0,2,2,2,0,29,29,0,,,,1080.811397,None,1079.627977,1080.827962,s,1,0.3413183,圣洁,k,1,0.5675531,zy,m,20,2024_Apr_18_0857,mian,2021.2.3,59.86665302
,,,,,,0,0,pic/flanker6.png,pic/flanker2.png,a,l,pic/AffRest3.png,,,,,,,,,,,,,,,,,,,,,,,,,0,2,2,2,0,30,30,9,,,,1083.594641,None,1082.411294,1083.611409,a,1,0.4128462,缺乏,l,1,0.5996057,zy,m,20,2024_Apr_18_0857,mian,2021.2.3,59.86665302
,,,,,,0,0,pic/flanker6.png,pic/flanker2.png,a,l,pic/AffRest3.png,,,,,,,,,,,,,,,,,,,,,,,,,0,2,2,2,0,31,31,41,,,,1086.611303,None,1085.427901,1086.628037,a,1,0.4026954,堵塞,l,1,0.6816778,zy,m,20,2024_Apr_18_0857,mian,2021.2.3,59.86665302
,,,,,,1,1,pic/flanker5.png,pic/flanker3.png,a,k,pic/AffRest3.png,,,,,,,,,,,,,,,,,,,,,,,,,0,2,2,2,0,32,32,20,,,,1089.728007,None,1088.54458,1089.744616,a,1,0.5367221,珍藏,k,1,0.6354737,zy,m,20,2024_Apr_18_0857,mian,2021.2.3,59.86665302
,,,,,,0,0,pic/flanker6.png,pic/flanker2.png,a,l,pic/AffRest3.png,,,,,,,,,,,,,,,,,,,,,,,,,0,2,2,2,0,33,33,1,,,,1092.794633,None,1091.611222,1092.811376,a,1,0.3980146,处罚,l,1,0.616453,zy,m,20,2024_Apr_18_0857,mian,2021.2.3,59.86665302
,,,,,,0,0,pic/flanker5.png,pic/flanker1.png,s,l,pic/AffRest3.png,,,,,,,,,,,,,,,,,,,,,,,,,0,2,2,2,0,34,34,43,,,,1095.644618,None,1094.4613,1095.661226,s,1,0.3255908,懒惰,l,1,0.628362,zy,m,20,2024_Apr_18_0857,mian,2021.2.3,59.86665302
,,,,,,1,1,pic/flanker6.png,pic/flanker4.png,s,k,pic/AffRest3.png,,,,,,,,,,,,,,,,,,,,,,,,,0,2,2,2,0,35,35,14,,,,1098.527846,None,1097.344664,1098.54463,s,1,0.5364182,典雅,k,1,0.6157316,zy,m,20,2024_Apr_18_0857,mian,2021.2.3,59.86665302
,,,,,,0,1,pic/flanker5.png,pic/flanker1.png,s,k,pic/AffRest3.png,,,,,,,,,,,,,,,,,,,,,,,,,0,2,2,2,0,36,36,48,,,,1101.728014,None,1100.544704,1101.744432,s,1,0.39983,俊秀,k,1,0.5627206,zy,m,20,2024_Apr_18_0857,mian,2021.2.3,59.86665302
,,,,,,1,0,pic/flanker5.png,pic/flanker3.png,a,l,pic/AffRest3.png,,,,,,,,,,,,,,,,,,,,,,,,,0,2,2,2,0,37,37,47,,,,1104.627865,None,1103.44471,1104.644651,a,1,0.5430083,丢失,l,1,0.5774189,zy,m,20,2024_Apr_18_0857,mian,2021.2.3,59.86665302
,,,,,,0,1,pic/flanker5.png,pic/flanker1.png,s,k,pic/AffRest3.png,,,,,,,,,,,,,,,,,,,,,,,,,0,2,2,2,0,38,38,64,,,,1107.628026,None,1106.44447,1107.644731,s,1,0.3772121,秀丽,k,1,0.6063719,zy,m,20,2024_Apr_18_0857,mian,2021.2.3,59.86665302
,,,,,,0,1,pic/flanker6.png,pic/flanker2.png,a,k,pic/AffRest3.png,,,,,,,,,,,,,,,,,,,,,,,,,0,2,2,2,0,39,39,2,,,,1110.611114,None,1109.427918,1110.627989,a,1,0.3132217,丰满,k,1,0.5027392,zy,m,20,2024_Apr_18_0857,mian,2021.2.3,59.86665302
,,,,,,0,0,pic/flanker5.png,pic/flanker1.png,s,l,pic/AffRest3.png,,,,,,,,,,,,,,,,,,,,,,,,,0,2,2,2,0,40,40,19,,,,1113.377894,None,1112.19462,1113.394665,s,1,0.3959636,焦躁,l,1,1.1032857,zy,m,20,2024_Apr_18_0857,mian,2021.2.3,59.86665302
,,,,,,1,0,pic/flanker5.png,pic/flanker3.png,a,l,pic/AffRest3.png,,,,,,,,,,,,,,,,,,,,,,,,,0,2,2,2,0,41,41,71,,,,1116.811302,None,1115.627935,1116.8279,a,1,0.5020673,孤单,l,1,0.6712823,zy,m,20,2024_Apr_18_0857,mian,2021.2.3,59.86665302
,,,,,,1,1,pic/flanker5.png,pic/flanker3.png,a,k,pic/AffRest3.png,,,,,,,,,,,,,,,,,,,,,,,,,0,2,2,2,0,42,42,60,,,,1119.877859,None,1118.694481,1119.894626,a,1,0.521774,旺盛,k,1,0.7056359,zy,m,20,2024_Apr_18_0857,mian,2021.2.3,59.86665302
,,,,,,0,0,pic/flanker5.png,pic/flanker1.png,s,l,pic/AffRest3.png,,,,,,,,,,,,,,,,,,,,,,,,,0,2,2,2,0,43,43,27,,,,1122.944641,None,1121.761286,1122.961223,s,1,0.424792,禁止,None,0,,zy,m,20,2024_Apr_18_0857,mian,2021.2.3,59.86665302
,,,,,,1,1,pic/flanker6.png,pic/flanker4.png,s,k,pic/AffRest3.png,,,,,,,,,,,,,,,,,,,,,,,,,0,2,2,2,0,44,44,22,,,,1127.694585,None,1126.511216,1127.711324,s,1,0.4722117,永恒,k,1,0.5898005,zy,m,20,2024_Apr_18_0857,mian,2021.2.3,59.86665302
,,,,,,1,0,pic/flanker6.png,pic/flanker4.png,s,l,pic/AffRest3.png,,,,,,,,,,,,,,,,,,,,,,,,,0,2,2,2,0,45,45,29,,,,1130.81121,None,1129.627838,1130.828016,s,1,0.5313638,伤心,l,1,0.5713583,zy,m,20,2024_Apr_18_0857,mian,2021.2.3,59.86665302
,,,,,,0,1,pic/flanker6.png,pic/flanker2.png,a,k,pic/AffRest3.png,,,,,,,,,,,,,,,,,,,,,,,,,0,2,2,2,0,46,46,18,,,,1133.861195,None,1132.677819,1133.877994,a,1,0.3864935,公平,k,1,0.6020356,zy,m,20,2024_Apr_18_0857,mian,2021.2.3,59.86665302
,,,,,,1,0,pic/flanker5.png,pic/flanker3.png,a,l,pic/AffRest3.png,,,,,,,,,,,,,,,,,,,,,,,,,0,2,2,2,0,47,47,7,,,,1136.694696,None,1135.5112,1136.711289,a,1,0.5857541,消沉,l,1,0.6061114,zy,m,20,2024_Apr_18_0857,mian,2021.2.3,59.86665302
,,,,,,1,0,pic/flanker5.png,pic/flanker3.png,a,l,pic/AffRest3.png,,,,,,,,,,,,,,,,,,,,,,,,,0,2,2,2,0,48,48,23,,,,1139.944573,None,1138.761157,1139.96126,a,1,0.4526604,黑暗,l,1,0.5533637,zy,m,20,2024_Apr_18_0857,mian,2021.2.3,59.86665302
,,,,,,0,0,pic/flanker5.png,pic/flanker1.png,s,l,pic/AffRest3.png,,,,,,,,,,,,,,,,,,,,,,,,,0,2,2,2,0,49,49,3,,,,1143.011284,None,1141.827874,1143.027885,s,1,0.3861769,罚款,l,1,0.6295115,zy,m,20,2024_Apr_18_0857,mian,2021.2.3,59.86665302
,,,,,,0,0,pic/flanker6.png,pic/flanker2.png,a,l,pic/AffRest3.png,,,,,,,,,,,,,,,,,,,,,,,,,0,2,2,2,0,50,50,33,,,,1145.977941,None,1144.794406,1145.994626,a,1,0.4251771,郁闷,l,1,0.5075196,zy,m,20,2024_Apr_18_0857,mian,2021.2.3,59.86665302
,,,,,,1,0,pic/flanker5.png,pic/flanker3.png,a,l,pic/AffRest3.png,,,,,,,,,,,,,,,,,,,,,,,,,0,2,2,2,0,51,51,55,,,,1148.94453,None,1147.761289,1148.961133,a,1,0.5235634,自卑,l,1,0.5785504,zy,m,20,2024_Apr_18_0857,mian,2021.2.3,59.86665302
,,,,,,1,1,pic/flanker6.png,pic/flanker4.png,s,k,pic/AffRest3.png,,,,,,,,,,,,,,,,,,,,,,,,,0,2,2,2,0,52,52,62,,,,1151.994531,None,1150.811169,1152.011125,s,1,0.4746093,羡慕,k,1,0.6671559,zy,m,20,2024_Apr_18_0857,mian,2021.2.3,59.86665302
,,,,,,1,0,pic/flanker5.png,pic/flanker3.png,a,l,pic/AffRest3.png,,,,,,,,,,,,,,,,,,,,,,,,,0,2,2,2,0,53,53,31,,,,1155.077931,None,1153.894513,1155.094528,a,1,0.5202827,心慌,l,1,0.5572265,zy,m,20,2024_Apr_18_0857,mian,2021.2.3,59.86665302
,,,,,,1,0,pic/flanker5.png,pic/flanker3.png,a,l,pic/AffRest3.png,,,,,,,,,,,,,,,,,,,,,,,,,0,2,2,2,0,54,54,15,,,,1158.111262,None,1156.927662,1158.127949,a,1,0.5031519,悲观,l,1,0.5654031,zy,m,20,2024_Apr_18_0857,mian,2021.2.3,59.86665302
,,,,,,0,1,pic/flanker6.png,pic/flanker2.png,a,k,pic/AffRest3.png,,,,,,,,,,,,,,,,,,,,,,,,,0,2,2,2,0,55,55,50,,,,1161.027866,None,1159.844544,1161.044527,a,1,0.4547642,如愿,k,1,0.5756729,zy,m,20,2024_Apr_18_0857,mian,2021.2.3,59.86665302
,,,,,,1,1,pic/flanker6.png,pic/flanker4.png,s,k,pic/AffRest3.png,,,,,,,,,,,,,,,,,,,,,,,,,0,2,2,2,0,56,56,6,,,,1164.044406,None,1162.861172,1164.061171,s,1,0.4842596,鲜艳,k,1,0.5333932,zy,m,20,2024_Apr_18_0857,mian,2021.2.3,59.86665302
,,,,,,0,1,pic/flanker5.png,pic/flanker1.png,s,k,pic/AffRest3.png,,,,,,,,,,,,,,,,,,,,,,,,,0,2,2,2,0,57,57,32,,,,1166.994508,None,1165.810587,1167.010577,s,1,0.3506377,舒畅,k,1,0.4172367,zy,m,20,2024_Apr_18_0857,mian,2021.2.3,59.86665302
,,,,,,0,0,pic/flanker5.png,pic/flanker1.png,s,l,pic/AffRest3.png,,,,,,,,,,,,,,,,,,,,,,,,,0,2,2,2,0,58,58,75,,,,1169.761224,None,1168.577793,1169.777922,s,1,0.4074474,闷热,l,1,0.5911496,zy,m,20,2024_Apr_18_0857,mian,2021.2.3,59.86665302
,,,,,,1,0,pic/flanker6.png,pic/flanker4.png,s,l,pic/AffRest3.png,,,,,,,,,,,,,,,,,,,,,,,,,0,2,2,2,0,59,59,61,,,,1172.744722,None,1171.560562,1172.761459,s,1,0.5508548,别扭,l,1,0.6853496,zy,m,20,2024_Apr_18_0857,mian,2021.2.3,59.86665302
,,,,,,1,0,pic/flanker6.png,pic/flanker4.png,s,l,pic/AffRest3.png,,,,,,,,,,,,,,,,,,,,,,,,,0,2,2,2,0,60,60,53,,,,1175.961138,None,1174.777821,1175.977796,s,1,0.550657,厌恶,l,1,0.4599633,zy,m,20,2024_Apr_18_0857,mian,2021.2.3,59.86665302
,,,,,,0,1,pic/flanker6.png,pic/flanker2.png,a,k,pic/AffRest3.png,,,,,,,,,,,,,,,,,,,,,,,,,0,2,2,2,0,61,61,66,,,,1178.994078,None,1177.810507,1179.010746,a,1,0.4086976,卓越,k,1,0.5567172,zy,m,20,2024_Apr_18_0857,mian,2021.2.3,59.86665302
,,,,,,1,1,pic/flanker5.png,pic/flanker3.png,a,k,pic/AffRest3.png,,,,,,,,,,,,,,,,,,,,,,,,,0,2,2,2,0,62,62,12,,,,1181.89385,None,1180.711159,1181.910498,a,1,0.521953,诚恳,k,1,0.4488396,zy,m,20,2024_Apr_18_0857,mian,2021.2.3,59.86665302
,,,,,,1,1,pic/flanker6.png,pic/flanker4.png,s,k,pic/AffRest3.png,,,,,,,,,,,,,,,,,,,,,,,,,0,2,2,2,0,63,63,54,,,,1184.81055,None,1183.627518,1184.827755,s,1,0.4909263,生动,k,1,0.4562126,zy,m,20,2024_Apr_18_0857,mian,2021.2.3,59.86665302
,,,,,,0,0,pic/flanker5.png,pic/flanker1.png,s,l,pic/AffRest3.png,,,,,,,,,,,,,,,,,,,,,,,,,0,2,2,2,0,64,64,67,,,,1187.811172,None,1186.627758,1187.827832,s,1,0.4321604,胡涂,l,1,0.5594914,zy,m,20,2024_Apr_18_0857,mian,2021.2.3,59.86665302
,,,,,,1,1,pic/flanker6.png,pic/flanker4.png,s,k,pic/AffRest3.png,,,,,,,,,,,,,,,,,,,,,,,,,0,2,2,2,0,65,65,70,,,,1190.643702,None,1189.460552,1190.660556,s,1,0.5884048,赞成,k,1,0.6779492,zy,m,20,2024_Apr_18_0857,mian,2021.2.3,59.86665302
,,,,,,1,1,pic/flanker5.png,pic/flanker3.png,a,k,pic/AffRest3.png,,,,,,,,,,,,,,,,,,,,,,,,,0,2,2,2,0,66,66,76,,,,1193.794543,None,1192.611049,1193.811001,a,1,0.4514485,雄厚,k,1,0.6322375,zy,m,20,2024_Apr_18_0857,mian,2021.2.3,59.86665302
,,,,,,0,0,pic/flanker5.png,pic/flanker1.png,s,l,pic/AffRest3.png,,,,,,,,,,,,,,,,,,,,,,,,,0,2,2,2,0,67,67,59,,,,1196.827203,None,1195.644384,1196.843823,s,1,0.3368321,假冒,l,1,0.5119833,zy,m,20,2024_Apr_18_0857,mian,2021.2.3,59.86665302
,,,,,,0,0,pic/flanker6.png,pic/flanker2.png,a,l,pic/AffRest3.png,,,,,,,,,,,,,,,,,,,,,,,,,0,2,2,2,0,68,68,65,,,,1199.527809,None,1198.344163,1199.54444,a,1,0.3634205,争吵,l,1,0.659906,zy,m,20,2024_Apr_18_0857,mian,2021.2.3,59.86665302
,,,,,,1,1,pic/flanker5.png,pic/flanker3.png,a,k,pic/AffRest3.png,,,,,,,,,,,,,,,,,,,,,,,,,0,2,2,2,0,69,69,28,,,,1202.394432,None,1201.211198,1202.410868,a,1,0.4655229,富丽,k,1,0.584235,zy,m,20,2024_Apr_18_0857,mian,2021.2.3,59.86665302
,,,,,,0,1,pic/flanker5.png,pic/flanker1.png,s,k,pic/AffRest3.png,,,,,,,,,,,,,,,,,,,,,,,,,0,2,2,2,0,70,70,24,,,,1205.294371,None,1204.11111,1205.310968,s,1,0.3823042,敬佩,k,1,0.6403924,zy,m,20,2024_Apr_18_0857,mian,2021.2.3,59.86665302
,,,,,,1,0,pic/flanker6.png,pic/flanker4.png,s,l,pic/AffRest3.png,,,,,,,,,,,,,,,,,,,,,,,,,0,2,2,2,0,71,71,37,,,,1208.361162,None,1207.177853,1208.377729,s,1,0.4798743,排斥,l,1,0.6268626,zy,m,20,2024_Apr_18_0857,mian,2021.2.3,59.86665302
,,,,,,0,0,pic/flanker6.png,pic/flanker2.png,a,l,pic/AffRest3.png,,,,,,,,,,,,,,,,,,,,,,,,,0,2,2,2,0,72,72,73,,,,1211.31112,None,1210.127698,1211.32763,a,1,0.428929,沮丧,l,1,0.5506334,zy,m,20,2024_Apr_18_0857,mian,2021.2.3,59.86665302
,,,,,,0,0,pic/flanker6.png,pic/flanker2.png,a,l,pic/AffRest3.png,,,,,,,,,,,,,,,,,,,,,,,,,0,2,2,2,0,73,73,57,,,,1214.327815,None,1213.144455,1214.344411,a,1,0.4119026,鲁莽,l,1,0.6619089,zy,m,20,2024_Apr_18_0857,mian,2021.2.3,59.86665302
,,,,,,1,1,pic/flanker6.png,pic/flanker4.png,s,k,pic/AffRest3.png,,,,,,,,,,,,,,,,,,,,,,,,,0,2,2,2,0,74,74,38,,,,1217.227791,None,1216.04467,1217.244452,s,1,0.4989826,吉祥,k,1,0.5430997,zy,m,20,2024_Apr_18_0857,mian,2021.2.3,59.86665302
,,,,,,1,0,pic/flanker6.png,pic/flanker4.png,s,l,pic/AffRest3.png,,,,,,,,,,,,,,,,,,,,,,,,,0,2,2,2,0,75,75,5,,,,1220.111476,None,1218.92784,1220.127838,s,1,0.5422861,穷苦,l,1,0.5387492,zy,m,20,2024_Apr_18_0857,mian,2021.2.3,59.86665302
,,,,,,1,1,pic/flanker6.png,pic/flanker4.png,s,k,pic/AffRest3.png,,,,,,,,,,,,,,,,,,,,,,,,,0,2,2,2,0,76,76,30,,,,1223.127672,None,1221.94438,1223.144485,s,1,0.4989703,瑰丽,k,1,0.5509722,zy,m,20,2024_Apr_18_0857,mian,2021.2.3,59.86665302
,,,,,,0,1,pic/flanker5.png,pic/flanker1.png,s,k,pic/AffRest3.png,,,,,,,,,,,,,,,,,,,,,,,,,0,2,2,2,0,77,77,8,,,,1226.027687,None,1224.844305,1226.044241,s,1,0.3769613,优雅,k,1,0.5030661,zy,m,20,2024_Apr_18_0857,mian,2021.2.3,59.86665302
,,,,,,1,1,pic/flanker5.png,pic/flanker3.png,a,k,pic/AffRest3.png,,,,,,,,,,,,,,,,,,,,,,,,,0,2,2,2,0,78,78,4,,,,1228.761014,None,1227.577749,1228.777758,a,1,0.4803299,畅销,k,1,0.4794245,zy,m,20,2024_Apr_18_0857,mian,2021.2.3,59.86665302
,,,,,,1,0,pic/flanker6.png,pic/flanker4.png,s,l,pic/AffRest3.png,,,,,,,,,,,,,,,,,,,,,,,,,0,2,2,2,0,79,79,45,,,,1231.544292,None,1230.361029,1231.560973,s,1,0.4644336,杂乱,l,1,0.4974421,zy,m,20,2024_Apr_18_0857,mian,2021.2.3,59.86665302
,,,,,,,,,,,,pic/AffRest3.png,,,,,,,,,,,,,,,,,,,,,,,,,0,2,2,2,,,,,,,,,,,,,,,,,,,zy,m,20,2024_Apr_18_0857,mian,2021.2.3,59.86665302
,,,,,,1,0,pic/flanker5.png,pic/flanker3.png,a,l,pic/EndExp.PNG,,,,,,,,,,,,,,,,,,,,,,,,,0,3,3,3,0,0,0,55,,,,1243.560795,None,1242.362711,1243.577466,a,1,0.5495161,沮丧,l,1,0.5206052,zy,m,20,2024_Apr_18_0857,mian,2021.2.3,59.86665302
,,,,,,1,1,pic/flanker5.png,pic/flanker3.png,a,k,pic/EndExp.PNG,,,,,,,,,,,,,,,,,,,,,,,,,0,3,3,3,0,1,1,20,,,,1246.760457,None,1245.577713,1246.77771,a,1,0.5366909,圣洁,k,1,0.5765087,zy,m,20,2024_Apr_18_0857,mian,2021.2.3,59.86665302
,,,,,,0,0,pic/flanker6.png,pic/flanker2.png,a,l,pic/EndExp.PNG,,,,,,,,,,,,,,,,,,,,,,,,,0,3,3,3,0,2,2,41,,,,1249.927708,None,1248.744481,1249.944411,a,1,0.4327811,消沉,l,1,0.480447,zy,m,20,2024_Apr_18_0857,mian,2021.2.3,59.86665302
,,,,,,0,0,pic/flanker5.png,pic/flanker1.png,s,l,pic/EndExp.PNG,,,,,,,,,,,,,,,,,,,,,,,,,0,3,3,3,0,3,3,67,,,,1252.877672,None,1251.694393,1252.894356,s,1,0.3613555,鲁莽,l,1,0.6048574,zy,m,20,2024_Apr_18_0857,mian,2021.2.3,59.86665302
,,,,,,1,1,pic/flanker6.png,pic/flanker4.png,s,k,pic/EndExp.PNG,,,,,,,,,,,,,,,,,,,,,,,,,0,3,3,3,0,4,4,78,,,,1255.82771,None,1254.64438,1255.844269,s,1,0.5224757,爽朗,k,1,0.5478382,zy,m,20,2024_Apr_18_0857,mian,2021.2.3,59.86665302
,,,,,,0,0,pic/flanker6.png,pic/flanker2.png,a,l,pic/EndExp.PNG,,,,,,,,,,,,,,,,,,,,,,,,,0,3,3,3,0,5,5,9,,,,1258.861065,None,1257.677728,1258.877771,a,1,0.5073952,争吵,l,1,0.6262245,zy,m,20,2024_Apr_18_0857,mian,2021.2.3,59.86665302
,,,,,,0,0,pic/flanker5.png,pic/flanker1.png,s,l,pic/EndExp.PNG,,,,,,,,,,,,,,,,,,,,,,,,,0,3,3,3,0,6,6,3,,,,1261.994724,None,1260.81097,1262.011264,s,1,0.3121564,嘲笑,l,1,0.6226429,zy,m,20,2024_Apr_18_0857,mian,2021.2.3,59.86665302
,,,,,,0,1,pic/flanker6.png,pic/flanker2.png,a,k,pic/EndExp.PNG,,,,,,,,,,,,,,,,,,,,,,,,,0,3,3,3,0,7,7,18,,,,1264.760963,None,1263.578063,1264.777634,a,1,0.3647749,雄厚,k,1,0.5642212,zy,m,20,2024_Apr_18_0857,mian,2021.2.3,59.86665302
,,,,,,1,1,pic/flanker6.png,pic/flanker4.png,s,k,pic/EndExp.PNG,,,,,,,,,,,,,,,,,,,,,,,,,0,3,3,3,0,8,8,54,,,,1267.627845,None,1266.444173,1267.644195,s,1,0.5194175,生动,k,1,0.5538149,zy,m,20,2024_Apr_18_0857,mian,2021.2.3,59.86665302
,,,,,,1,0,pic/flanker6.png,pic/flanker4.png,s,l,pic/EndExp.PNG,,,,,,,,,,,,,,,,,,,,,,,,,0,3,3,3,0,9,9,21,,,,1270.611296,None,1269.427904,1270.627739,s,1,0.5075997,黑暗,l,1,0.7066578,zy,m,20,2024_Apr_18_0857,mian,2021.2.3,59.86665302
,,,,,,0,1,pic/flanker5.png,pic/flanker1.png,s,k,pic/EndExp.PNG,,,,,,,,,,,,,,,,,,,,,,,,,0,3,3,3,0,10,10,40,,,,1273.67771,None,1272.494386,1273.69446,s,1,0.4380017,豪放,k,1,0.5594761,zy,m,20,2024_Apr_18_0857,mian,2021.2.3,59.86665302
,,,,,,1,0,pic/flanker6.png,pic/flanker4.png,s,l,pic/EndExp.PNG,,,,,,,,,,,,,,,,,,,,,,,,,0,3,3,3,0,11,11,13,,,,1276.67753,None,1275.494352,1276.694462,s,1,0.5030671,别扭,l,1,0.4828233,zy,m,20,2024_Apr_18_0857,mian,2021.2.3,59.86665302
,,,,,,1,0,pic/flanker5.png,pic/flanker3.png,a,l,pic/EndExp.PNG,,,,,,,,,,,,,,,,,,,,,,,,,0,3,3,3,0,12,12,63,,,,1279.610998,None,1278.427758,1279.627694,a,1,0.4497696,自卑,l,1,0.6319999,zy,m,20,2024_Apr_18_0857,mian,2021.2.3,59.86665302
,,,,,,0,0,pic/flanker5.png,pic/flanker1.png,s,l,pic/EndExp.PNG,,,,,,,,,,,,,,,,,,,,,,,,,0,3,3,3,0,13,13,35,,,,1282.727945,None,1281.546056,1282.761057,s,1,0.4163139,堵塞,l,1,0.5924306,zy,m,20,2024_Apr_18_0857,mian,2021.2.3,59.86665302
,,,,,,1,1,pic/flanker6.png,pic/flanker4.png,s,k,pic/EndExp.PNG,,,,,,,,,,,,,,,,,,,,,,,,,0,3,3,3,0,14,14,46,,,,1285.660918,None,1284.477309,1285.67764,s,1,0.5276948,富丽,k,1,0.5176938,zy,m,20,2024_Apr_18_0857,mian,2021.2.3,59.86665302
,,,,,,1,0,pic/flanker6.png,pic/flanker4.png,s,l,pic/EndExp.PNG,,,,,,,,,,,,,,,,,,,,,,,,,0,3,3,3,0,15,15,69,,,,1288.544382,None,1287.360983,1288.560986,s,1,0.5763785,懒惰,l,1,0.6634704,zy,m,20,2024_Apr_18_0857,mian,2021.2.3,59.86665302
,,,,,,1,0,pic/flanker5.png,pic/flanker3.png,a,l,pic/EndExp.PNG,,,,,,,,,,,,,,,,,,,,,,,,,0,3,3,3,0,16,16,47,,,,1291.777352,None,1290.5942,1291.794555,a,1,0.5101058,郁闷,l,1,0.5949702,zy,m,20,2024_Apr_18_0857,mian,2021.2.3,59.86665302
,,,,,,0,0,pic/flanker6.png,pic/flanker2.png,a,l,pic/EndExp.PNG,,,,,,,,,,,,,,,,,,,,,,,,,0,3,3,3,0,17,17,65,,,,1294.827682,None,1293.644501,1294.844268,a,1,0.4499377,穷苦,l,1,0.7024364,zy,m,20,2024_Apr_18_0857,mian,2021.2.3,59.86665302
,,,,,,1,1,pic/flanker5.png,pic/flanker3.png,a,k,pic/EndExp.PNG,,,,,,,,,,,,,,,,,,,,,,,,,0,3,3,3,0,18,18,44,,,,1297.84425,None,1296.66104,1297.860736,a,1,0.4965525,敬佩,k,1,0.6208992,zy,m,20,2024_Apr_18_0857,mian,2021.2.3,59.86665302
,,,,,,1,1,pic/flanker5.png,pic/flanker3.png,a,k,pic/EndExp.PNG,,,,,,,,,,,,,,,,,,,,,,,,,0,3,3,3,0,19,19,36,,,,1300.861,None,1299.677692,1300.877658,a,1,0.5811102,永恒,k,1,0.5901717,zy,m,20,2024_Apr_18_0857,mian,2021.2.3,59.86665302
,,,,,,0,1,pic/flanker6.png,pic/flanker2.png,a,k,pic/EndExp.PNG,,,,,,,,,,,,,,,,,,,,,,,,,0,3,3,3,0,20,20,42,,,,1304.077658,None,1302.894286,1304.094374,a,1,0.4173247,公平,k,1,0.5664901,zy,m,20,2024_Apr_18_0857,mian,2021.2.3,59.86665302
,,,,,,0,0,pic/flanker6.png,pic/flanker2.png,a,l,pic/EndExp.PNG,,,,,,,,,,,,,,,,,,,,,,,,,0,3,3,3,0,21,21,17,,,,1307.010973,None,1305.827653,1307.027707,a,1,0.4117293,罚款,l,1,0.5640535,zy,m,20,2024_Apr_18_0857,mian,2021.2.3,59.86665302
,,,,,,1,0,pic/flanker5.png,pic/flanker3.png,a,l,pic/EndExp.PNG,,,,,,,,,,,,,,,,,,,,,,,,,0,3,3,3,0,22,22,79,,,,1309.861031,None,1308.677686,1309.87766,a,1,0.5095097,闷热,l,1,0.4921159,zy,m,20,2024_Apr_18_0857,mian,2021.2.3,59.86665302
,,,,,,1,0,pic/flanker5.png,pic/flanker3.png,a,l,pic/EndExp.PNG,,,,,,,,,,,,,,,,,,,,,,,,,0,3,3,3,0,23,23,71,,,,1312.894103,None,1311.710987,1312.911146,a,1,0.515112,处罚,l,1,0.4429818,zy,m,20,2024_Apr_18_0857,mian,2021.2.3,59.86665302
,,,,,,0,1,pic/flanker5.png,pic/flanker1.png,s,k,pic/EndExp.PNG,,,,,,,,,,,,,,,,,,,,,,,,,0,3,3,3,0,24,24,0,,,,1315.694319,None,1314.510939,1315.711012,s,1,0.3909995,典雅,k,1,0.5847378,zy,m,20,2024_Apr_18_0857,mian,2021.2.3,59.86665302
,,,,,,0,0,pic/flanker5.png,pic/flanker1.png,s,l,pic/EndExp.PNG,,,,,,,,,,,,,,,,,,,,,,,,,0,3,3,3,0,25,25,27,,,,1318.561076,None,1317.377649,1318.577691,s,1,0.3773813,烦恼,l,1,0.5295524,zy,m,20,2024_Apr_18_0857,mian,2021.2.3,59.86665302
,,,,,,0,1,pic/flanker5.png,pic/flanker1.png,s,k,pic/EndExp.PNG,,,,,,,,,,,,,,,,,,,,,,,,,0,3,3,3,0,26,26,8,,,,1321.344355,None,1320.160887,1321.360925,s,1,0.3729667,吉祥,k,1,0.5705252,zy,m,20,2024_Apr_18_0857,mian,2021.2.3,59.86665302
,,,,,,0,0,pic/flanker5.png,pic/flanker1.png,s,l,pic/EndExp.PNG,,,,,,,,,,,,,,,,,,,,,,,,,0,3,3,3,0,27,27,51,,,,1324.194296,None,1323.01092,1324.21091,s,1,0.3852217,撒谎,l,1,0.4744523,zy,m,20,2024_Apr_18_0857,mian,2021.2.3,59.86665302
,,,,,,0,0,pic/flanker6.png,pic/flanker2.png,a,l,pic/EndExp.PNG,,,,,,,,,,,,,,,,,,,,,,,,,0,3,3,3,0,28,28,73,,,,1327.094192,None,1325.911041,1327.110903,a,1,0.3697035,禁止,l,1,0.5911232,zy,m,20,2024_Apr_18_0857,mian,2021.2.3,59.86665302
,,,,,,0,0,pic/flanker6.png,pic/flanker2.png,a,l,pic/EndExp.PNG,,,,,,,,,,,,,,,,,,,,,,,,,0,3,3,3,0,29,29,25,,,,1329.894248,None,1328.710908,1329.910947,a,1,0.3799204,焦躁,l,1,0.4183308,zy,m,20,2024_Apr_18_0857,mian,2021.2.3,59.86665302
,,,,,,0,1,pic/flanker6.png,pic/flanker2.png,a,k,pic/EndExp.PNG,,,,,,,,,,,,,,,,,,,,,,,,,0,3,3,3,0,30,30,2,,,,1332.62761,None,1331.444043,1332.644122,a,1,0.3964106,奉献,k,1,0.5879131,zy,m,20,2024_Apr_18_0857,mian,2021.2.3,59.86665302
,,,,,,1,1,pic/flanker6.png,pic/flanker4.png,s,k,pic/EndExp.PNG,,,,,,,,,,,,,,,,,,,,,,,,,0,3,3,3,0,31,31,38,,,,1335.644232,None,1334.461,1335.660874,s,1,0.5567947,丰满,k,1,0.5596568,zy,m,20,2024_Apr_18_0857,mian,2021.2.3,59.86665302
,,,,,,1,0,pic/flanker6.png,pic/flanker4.png,s,l,pic/EndExp.PNG,,,,,,,,,,,,,,,,,,,,,,,,,0,3,3,3,0,32,32,53,,,,1338.594215,None,1337.410718,1338.610899,s,1,0.4944223,丢失,l,1,0.4914219,zy,m,20,2024_Apr_18_0857,mian,2021.2.3,59.86665302
,,,,,,1,0,pic/flanker5.png,pic/flanker3.png,a,l,pic/EndExp.PNG,,,,,,,,,,,,,,,,,,,,,,,,,0,3,3,3,0,33,33,7,,,,1341.610766,None,1340.427031,1341.627576,a,1,0.4760789,忧虑,l,1,0.5375262,zy,m,20,2024_Apr_18_0857,mian,2021.2.3,59.86665302
,,,,,,1,1,pic/flanker5.png,pic/flanker3.png,a,k,pic/EndExp.PNG,,,,,,,,,,,,,,,,,,,,,,,,,0,3,3,3,0,34,34,76,,,,1344.610841,None,1343.427558,1344.627495,a,1,0.4867772,留恋,k,1,0.7579359,zy,m,20,2024_Apr_18_0857,mian,2021.2.3,59.86665302
,,,,,,0,0,pic/flanker5.png,pic/flanker1.png,s,l,pic/EndExp.PNG,,,,,,,,,,,,,,,,,,,,,,,,,0,3,3,3,0,35,35,59,,,,1347.911021,None,1346.727478,1347.92709,s,1,0.3705738,浪费,l,1,0.5716954,zy,m,20,2024_Apr_18_0857,mian,2021.2.3,59.86665302
,,,,,,1,1,pic/flanker6.png,pic/flanker4.png,s,k,pic/EndExp.PNG,,,,,,,,,,,,,,,,,,,,,,,,,0,3,3,3,0,36,36,22,,,,1350.694272,None,1349.510377,1350.71082,s,1,0.5889435,清秀,k,1,0.5870899,zy,m,20,2024_Apr_18_0857,mian,2021.2.3,59.86665302
,,,,,,1,0,pic/flanker5.png,pic/flanker3.png,a,l,pic/EndExp.PNG,,,,,,,,,,,,,,,,,,,,,,,,,0,3,3,3,0,37,37,31,,,,1353.844197,None,1352.660802,1353.860836,a,1,0.6202322,失意,l,1,0.584153,zy,m,20,2024_Apr_18_0857,mian,2021.2.3,59.86665302
,,,,,,1,1,pic/flanker5.png,pic/flanker3.png,a,k,pic/EndExp.PNG,,,,,,,,,,,,,,,,,,,,,,,,,0,3,3,3,0,38,38,28,,,,1357.060978,None,1355.877575,1357.07767,a,1,0.4784187,秀丽,k,1,0.688132,zy,m,20,2024_Apr_18_0857,mian,2021.2.3,59.86665302
,,,,,,0,0,pic/flanker5.png,pic/flanker1.png,s,l,pic/EndExp.PNG,,,,,,,,,,,,,,,,,,,,,,,,,0,3,3,3,0,39,39,43,,,,1360.127611,None,1358.943879,1360.144229,s,1,0.4168568,杂乱,k,0,0.7109162,zy,m,20,2024_Apr_18_0857,mian,2021.2.3,59.86665302
,,,,,,0,0,pic/flanker6.png,pic/flanker2.png,a,l,pic/EndExp.PNG,,,,,,,,,,,,,,,,,,,,,,,,,0,3,3,3,0,40,40,1,,,,1363.310219,None,1362.126896,1363.326931,a,1,0.4006116,轻率,l,1,0.6454142,zy,m,20,2024_Apr_18_0857,mian,2021.2.3,59.86665302
,,,,,,0,1,pic/flanker6.png,pic/flanker2.png,a,k,pic/EndExp.PNG,,,,,,,,,,,,,,,,,,,,,,,,,0,3,3,3,0,41,41,74,,,,1366.194126,None,1365.010585,1366.210992,a,1,0.4361498,羡慕,k,1,0.6879674,zy,m,20,2024_Apr_18_0857,mian,2021.2.3,59.86665302
,,,,,,1,1,pic/flanker5.png,pic/flanker3.png,a,k,pic/EndExp.PNG,,,,,,,,,,,,,,,,,,,,,,,,,0,3,3,3,0,42,42,4,,,,1369.194127,None,1368.010816,1369.210832,a,1,0.5028156,热切,k,1,0.621223,zy,m,20,2024_Apr_18_0857,mian,2021.2.3,59.86665302
,,,,,,0,1,pic/flanker6.png,pic/flanker2.png,a,k,pic/EndExp.PNG,,,,,,,,,,,,,,,,,,,,,,,,,0,3,3,3,0,43,43,66,,,,1372.377358,None,1371.194283,1372.394243,a,1,0.4290156,顽强,k,1,0.6441769,zy,m,20,2024_Apr_18_0857,mian,2021.2.3,59.86665302
,,,,,,0,1,pic/flanker5.png,pic/flanker1.png,s,k,pic/EndExp.PNG,,,,,,,,,,,,,,,,,,,,,,,,,0,3,3,3,0,44,44,32,,,,1375.47746,None,1374.294115,1375.49422,s,1,0.4698501,瑰丽,k,1,0.5570806,zy,m,20,2024_Apr_18_0857,mian,2021.2.3,59.86665302
,,,,,,1,0,pic/flanker6.png,pic/flanker4.png,s,l,pic/EndExp.PNG,,,,,,,,,,,,,,,,,,,,,,,,,0,3,3,3,0,45,45,5,,,,1378.510326,None,1377.32743,1378.526985,s,1,0.5636326,伤心,l,1,0.5602763,zy,m,20,2024_Apr_18_0857,mian,2021.2.3,59.86665302
,,,,,,1,1,pic/flanker5.png,pic/flanker3.png,a,k,pic/EndExp.PNG,,,,,,,,,,,,,,,,,,,,,,,,,0,3,3,3,0,46,46,60,,,,1381.677317,None,1380.494057,1381.694165,a,1,0.5106283,振作,k,1,0.7116121,zy,m,20,2024_Apr_18_0857,mian,2021.2.3,59.86665302
,,,,,,0,0,pic/flanker6.png,pic/flanker2.png,a,l,pic/EndExp.PNG,,,,,,,,,,,,,,,,,,,,,,,,,0,3,3,3,0,47,47,49,,,,1384.826736,None,1383.643975,1384.843443,a,1,0.3793202,损害,l,1,0.5952587,zy,m,20,2024_Apr_18_0857,mian,2021.2.3,59.86665302
,,,,,,0,0,pic/flanker5.png,pic/flanker1.png,s,l,pic/EndExp.PNG,,,,,,,,,,,,,,,,,,,,,,,,,0,3,3,3,0,48,48,19,,,,1387.744065,None,1386.560551,1387.760778,s,1,0.380998,逃避,l,1,0.5721921,zy,m,20,2024_Apr_18_0857,mian,2021.2.3,59.86665302
,,,,,,1,0,pic/flanker6.png,pic/flanker4.png,s,l,pic/EndExp.PNG,,,,,,,,,,,,,,,,,,,,,,,,,0,3,3,3,0,49,49,61,,,,1390.744041,None,1389.560799,1390.760625,s,1,0.5059857,缺乏,l,1,0.515023,zy,m,20,2024_Apr_18_0857,mian,2021.2.3,59.86665302
,,,,,,0,0,pic/flanker6.png,pic/flanker2.png,a,l,pic/EndExp.PNG,,,,,,,,,,,,,,,,,,,,,,,,,0,3,3,3,0,50,50,33,,,,1393.760609,None,1392.576907,1393.777323,a,1,0.4559427,冷笑,l,1,0.9859042,zy,m,20,2024_Apr_18_0857,mian,2021.2.3,59.86665302
,,,,,,1,0,pic/flanker6.png,pic/flanker4.png,s,l,pic/EndExp.PNG,,,,,,,,,,,,,,,,,,,,,,,,,0,3,3,3,0,51,51,77,,,,1397.093965,None,1395.910607,1397.110764,s,1,0.4672913,怀疑,l,1,0.6601967,zy,m,20,2024_Apr_18_0857,mian,2021.2.3,59.86665302
,,,,,,0,0,pic/flanker5.png,pic/flanker1.png,s,l,pic/EndExp.PNG,,,,,,,,,,,,,,,,,,,,,,,,,0,3,3,3,0,52,52,75,,,,1400.227408,None,1399.044182,1400.244038,s,1,0.3728205,慌忙,l,1,0.5314214,zy,m,20,2024_Apr_18_0857,mian,2021.2.3,59.86665302
,,,,,,0,0,pic/flanker5.png,pic/flanker1.png,s,l,pic/EndExp.PNG,,,,,,,,,,,,,,,,,,,,,,,,,0,3,3,3,0,53,53,11,,,,1403.177347,None,1401.994011,1403.194159,s,1,0.3525414,排斥,l,1,0.4793701,zy,m,20,2024_Apr_18_0857,mian,2021.2.3,59.86665302
,,,,,,1,1,pic/flanker6.png,pic/flanker4.png,s,k,pic/EndExp.PNG,,,,,,,,,,,,,,,,,,,,,,,,,0,3,3,3,0,54,54,6,,,,1405.894149,None,1404.710686,1405.910874,s,1,0.4734046,俊秀,k,1,0.5402726,zy,m,20,2024_Apr_18_0857,mian,2021.2.3,59.86665302
,,,,,,0,1,pic/flanker6.png,pic/flanker2.png,a,k,pic/EndExp.PNG,,,,,,,,,,,,,,,,,,,,,,,,,0,3,3,3,0,55,55,58,,,,1408.910813,None,1407.726819,1408.926704,a,1,0.4021529,珍藏,k,1,0.4661614,zy,m,20,2024_Apr_18_0857,mian,2021.2.3,59.86665302
,,,,,,0,1,pic/flanker5.png,pic/flanker1.png,s,k,pic/EndExp.PNG,,,,,,,,,,,,,,,,,,,,,,,,,0,3,3,3,0,56,56,24,,,,1411.777764,None,1410.594043,1411.793927,s,1,0.3564329,充裕,k,1,0.4913717,zy,m,20,2024_Apr_18_0857,mian,2021.2.3,59.86665302
,,,,,,1,1,pic/flanker6.png,pic/flanker4.png,s,k,pic/EndExp.PNG,,,,,,,,,,,,,,,,,,,,,,,,,0,3,3,3,0,57,57,14,,,,1414.560287,None,1413.376773,1414.576986,s,1,0.6360666,正直,k,1,0.5788557,zy,m,20,2024_Apr_18_0857,mian,2021.2.3,59.86665302
,,,,,,1,1,pic/flanker5.png,pic/flanker3.png,a,k,pic/EndExp.PNG,,,,,,,,,,,,,,,,,,,,,,,,,0,3,3,3,0,58,58,68,,,,1417.810662,None,1416.627569,1417.827385,a,1,0.4814852,前进,k,1,0.4690137,zy,m,20,2024_Apr_18_0857,mian,2021.2.3,59.86665302
,,,,,,0,1,pic/flanker5.png,pic/flanker1.png,s,k,pic/EndExp.PNG,,,,,,,,,,,,,,,,,,,,,,,,,0,3,3,3,0,59,59,48,,,,1420.660721,None,1419.477524,1420.677522,s,1,0.4334804,旺盛,k,1,0.48799,zy,m,20,2024_Apr_18_0857,mian,2021.2.3,59.86665302
,,,,,,1,1,pic/flanker6.png,pic/flanker4.png,s,k,pic/EndExp.PNG,,,,,,,,,,,,,,,,,,,,,,,,,0,3,3,3,0,60,60,70,,,,1423.544107,None,1422.360626,1423.560693,s,1,0.5369856,富足,k,1,0.5615808,zy,m,20,2024_Apr_18_0857,mian,2021.2.3,59.86665302
,,,,,,1,0,pic/flanker6.png,pic/flanker4.png,s,l,pic/EndExp.PNG,,,,,,,,,,,,,,,,,,,,,,,,,0,3,3,3,0,61,61,45,,,,1426.577665,None,1425.39406,1426.594373,s,1,0.5385976,悲观,l,1,0.7632114,zy,m,20,2024_Apr_18_0857,mian,2021.2.3,59.86665302
