target,反应类型,条件,truetarget,CorAns,Position,congruency,AffValue,flankerPic,targetPic,corAnsF,corAnsA,RestPic,returnPractice.thisRepN,returnPractice.thisTrialN,returnPractice.thisN,returnPractice.thisIndex,pracNum.thisRepN,pracNum.thisTrialN,pracNum.thisN,pracNum.thisIndex,NumBlock1.thisRepN,NumBlock1.thisTrialN,NumBlock1.thisN,NumBlock1.thisIndex,NumBlock2.thisRepN,NumBlock2.thisTrialN,NumBlock2.thisN,NumBlock2.thisIndex,returnPrac.thisRepN,returnPrac.thisTrialN,returnPrac.thisN,returnPrac.thisIndex,PracAff.thisRepN,PracAff.thisTrialN,PracAff.thisN,PracAff.thisIndex,AffBlocks.thisRepN,AffBlocks.thisTrialN,AffBlocks.thisN,AffBlocks.thisIndex,AffBlock1.thisRepN,AffBlock1.thisTrialN,AffBlock1.thisN,AffBlock1.thisIndex,respNum2word.keys,respNum2word.corr,respNum2word.rt,text.started,text.stopped,blank.started,blank.stopped,respFlanker.keys,respFlanker.corr,respFlanker.rt,thisWord,respAffWord.keys,respAffWord.corr,respAffWord.rt,姓名,性别,年龄（周岁）,date,expName,psychopyVersion,frameRate,
2A,1,1,A,a,"[0.2, 0.2]",,,,,,,,0,0,0,0,0,0,0,0,,,,,,,,,,,,,,,,,,,,,,,,,None,0,,,,,,,,,,,,,zyt,f,19,2024_Apr_12_1457,mian,2021.2.3,59.925057722904214,
A9,1,2,A,a,"[-0.2, 0.2]",,,,,,,,0,0,0,0,0,1,1,1,,,,,,,,,,,,,,,,,,,,,,,,,a,1,0.7733291000004101,,,,,,,,,,,,zyt,f,19,2024_Apr_12_1457,mian,2021.2.3,59.925057722904214,
7e,2,1,7.0,a,"[-0.2, -0.2]",,,,,,,,0,0,0,0,0,2,2,2,,,,,,,,,,,,,,,,,,,,,,,,,l,0,1.4540696999993088,,,,,,,,,,,,zyt,f,19,2024_Apr_12_1457,mian,2021.2.3,59.925057722904214,
9H,2,2,9.0,a,"[0.2, -0.2]",,,,,,,,0,0,0,0,0,3,3,3,,,,,,,,,,,,,,,,,,,,,,,,,a,1,1.0850656000002346,,,,,,,,,,,,zyt,f,19,2024_Apr_12_1457,mian,2021.2.3,59.925057722904214,
h4,1,1,h,l,"[0.2, 0.2]",,,,,,,,0,0,0,0,0,4,4,4,,,,,,,,,,,,,,,,,,,,,,,,,l,1,1.5075753999999506,,,,,,,,,,,,zyt,f,19,2024_Apr_12_1457,mian,2021.2.3,59.925057722904214,
4H,1,2,H,a,"[-0.2, 0.2]",,,,,,,,0,0,0,0,0,5,5,5,,,,,,,,,,,,,,,,,,,,,,,,,a,1,0.7789524999998321,,,,,,,,,,,,zyt,f,19,2024_Apr_12_1457,mian,2021.2.3,59.925057722904214,
F8,2,1,8.0,l,"[-0.2, -0.2]",,,,,,,,0,0,0,0,0,6,6,6,,,,,,,,,,,,,,,,,,,,,,,,,l,1,2.6508531999998013,,,,,,,,,,,,zyt,f,19,2024_Apr_12_1457,mian,2021.2.3,59.925057722904214,
h7,2,2,7.0,a,"[0.2, -0.2]",,,,,,,,0,0,0,0,0,7,7,7,,,,,,,,,,,,,,,,,,,,,,,,,a,1,0.910015200000089,,,,,,,,,,,,zyt,f,19,2024_Apr_12_1457,mian,2021.2.3,59.925057722904214,
5e,1,1,e,l,"[0.2, 0.2]",,,,,,,,0,0,0,0,0,8,8,8,,,,,,,,,,,,,,,,,,,,,,,,,l,1,1.5464872000002288,,,,,,,,,,,,zyt,f,19,2024_Apr_12_1457,mian,2021.2.3,59.925057722904214,
e8,1,2,e,l,"[-0.2, 0.2]",,,,,,,,0,0,0,0,0,9,9,9,,,,,,,,,,,,,,,,,,,,,,,,,l,1,1.1651533999993262,,,,,,,,,,,,zyt,f,19,2024_Apr_12_1457,mian,2021.2.3,59.925057722904214,
4E,2,1,4.0,l,"[-0.2, -0.2]",,,,,,,,0,0,0,0,0,10,10,10,,,,,,,,,,,,,,,,,,,,,,,,,a,0,2.07569599999988,,,,,,,,,,,,zyt,f,19,2024_Apr_12_1457,mian,2021.2.3,59.925057722904214,
5H,2,2,5.0,a,"[0.2, -0.2]",,,,,,,,0,0,0,0,0,11,11,11,,,,,,,,,,,,,,,,,,,,,,,,,a,1,1.5392102999994677,,,,,,,,,,,,zyt,f,19,2024_Apr_12_1457,mian,2021.2.3,59.925057722904214,
9E,1,1,E,a,"[0.2, 0.2]",,,,,,,,0,0,0,0,0,12,12,12,,,,,,,,,,,,,,,,,,,,,,,,,a,1,1.188131699999758,,,,,,,,,,,,zyt,f,19,2024_Apr_12_1457,mian,2021.2.3,59.925057722904214,
h9,1,2,h,l,"[-0.2, 0.2]",,,,,,,,0,0,0,0,0,13,13,13,,,,,,,,,,,,,,,,,,,,,,,,,l,1,0.9932391000002099,,,,,,,,,,,,zyt,f,19,2024_Apr_12_1457,mian,2021.2.3,59.925057722904214,
2a,2,1,2.0,l,"[-0.2, -0.2]",,,,,,,,0,0,0,0,0,14,14,14,,,,,,,,,,,,,,,,,,,,,,,,,l,1,1.2791951999997764,,,,,,,,,,,,zyt,f,19,2024_Apr_12_1457,mian,2021.2.3,59.925057722904214,
e5,2,2,5.0,a,"[0.2, -0.2]",,,,,,,,0,0,0,0,0,15,15,15,,,,,,,,,,,,,,,,,,,,,,,,,a,1,1.316232599999239,,,,,,,,,,,,zyt,f,19,2024_Apr_12_1457,mian,2021.2.3,59.925057722904214,
A5,1,1,A,a,"[0.2, 0.2]",,,,,,,,0,0,0,0,0,16,16,16,,,,,,,,,,,,,,,,,,,,,,,,,a,1,1.1300590999999258,,,,,,,,,,,,zyt,f,19,2024_Apr_12_1457,mian,2021.2.3,59.925057722904214,
a6,1,2,a,l,"[-0.2, 0.2]",,,,,,,,0,0,0,0,0,17,17,17,,,,,,,,,,,,,,,,,,,,,,,,,l,1,0.8181156999999075,,,,,,,,,,,,zyt,f,19,2024_Apr_12_1457,mian,2021.2.3,59.925057722904214,
2F,2,1,2.0,l,"[-0.2, -0.2]",,,,,,,,0,0,0,0,0,18,18,18,,,,,,,,,,,,,,,,,,,,,,,,,l,1,1.5463272000006327,,,,,,,,,,,,zyt,f,19,2024_Apr_12_1457,mian,2021.2.3,59.925057722904214,
e4,2,2,4.0,l,"[0.2, -0.2]",,,,,,,,0,0,0,0,0,19,19,19,,,,,,,,,,,,,,,,,,,,,,,,,l,1,1.1814942999999403,,,,,,,,,,,,zyt,f,19,2024_Apr_12_1457,mian,2021.2.3,59.925057722904214,
,,,,,,,,,,,,,0,0,0,0,,,,,,,,,,,,,,,,,,,,,,,,,,,,,,,,,,,,,,,,,,,zyt,f,19,2024_Apr_12_1457,mian,2021.2.3,59.925057722904214,
7h,1,1,h,l,"[0.2, 0.2]",,,,,,,,,,,,,,,,0,0,0,0,,,,,,,,,,,,,,,,,,,,,l,1,1.9158811999996033,,,,,,,,,,,,zyt,f,19,2024_Apr_12_1457,mian,2021.2.3,59.925057722904214,
8F,1,2,F,a,"[-0.2, 0.2]",,,,,,,,,,,,,,,,0,1,1,1,,,,,,,,,,,,,,,,,,,,,a,1,0.9461607000002914,,,,,,,,,,,,zyt,f,19,2024_Apr_12_1457,mian,2021.2.3,59.925057722904214,
8h,2,1,8.0,l,"[-0.2, -0.2]",,,,,,,,,,,,,,,,0,2,2,2,,,,,,,,,,,,,,,,,,,,,l,1,1.2846353000004456,,,,,,,,,,,,zyt,f,19,2024_Apr_12_1457,mian,2021.2.3,59.925057722904214,
a2,2,2,2.0,l,"[0.2, -0.2]",,,,,,,,,,,,,,,,0,3,3,3,,,,,,,,,,,,,,,,,,,,,l,1,0.9027278000003207,,,,,,,,,,,,zyt,f,19,2024_Apr_12_1457,mian,2021.2.3,59.925057722904214,
8f,1,1,f,l,"[0.2, 0.2]",,,,,,,,,,,,,,,,0,4,4,4,,,,,,,,,,,,,,,,,,,,,l,1,1.265165299999353,,,,,,,,,,,,zyt,f,19,2024_Apr_12_1457,mian,2021.2.3,59.925057722904214,
6a,1,2,a,l,"[-0.2, 0.2]",,,,,,,,,,,,,,,,0,5,5,5,,,,,,,,,,,,,,,,,,,,,l,1,0.7791454999996859,,,,,,,,,,,,zyt,f,19,2024_Apr_12_1457,mian,2021.2.3,59.925057722904214,
h6,2,1,6.0,l,"[-0.2, -0.2]",,,,,,,,,,,,,,,,0,6,6,6,,,,,,,,,,,,,,,,,,,,,l,1,1.3051869000000806,,,,,,,,,,,,zyt,f,19,2024_Apr_12_1457,mian,2021.2.3,59.925057722904214,
f9,2,2,9.0,a,"[0.2, -0.2]",,,,,,,,,,,,,,,,0,7,7,7,,,,,,,,,,,,,,,,,,,,,a,1,1.0524998000000778,,,,,,,,,,,,zyt,f,19,2024_Apr_12_1457,mian,2021.2.3,59.925057722904214,
E4,1,1,E,a,"[0.2, 0.2]",,,,,,,,,,,,,,,,0,8,8,8,,,,,,,,,,,,,,,,,,,,,a,1,1.1000997999999527,,,,,,,,,,,,zyt,f,19,2024_Apr_12_1457,mian,2021.2.3,59.925057722904214,
6e,1,2,e,l,"[-0.2, 0.2]",,,,,,,,,,,,,,,,0,9,9,9,,,,,,,,,,,,,,,,,,,,,l,1,0.9831365999998525,,,,,,,,,,,,zyt,f,19,2024_Apr_12_1457,mian,2021.2.3,59.925057722904214,
5G,2,1,5.0,a,"[-0.2, -0.2]",,,,,,,,,,,,,,,,0,10,10,10,,,,,,,,,,,,,,,,,,,,,a,1,1.373435999999856,,,,,,,,,,,,zyt,f,19,2024_Apr_12_1457,mian,2021.2.3,59.925057722904214,
h3,2,2,3.0,a,"[0.2, -0.2]",,,,,,,,,,,,,,,,0,11,11,11,,,,,,,,,,,,,,,,,,,,,a,1,0.6904324000006454,,,,,,,,,,,,zyt,f,19,2024_Apr_12_1457,mian,2021.2.3,59.925057722904214,
9e,1,1,e,l,"[0.2, 0.2]",,,,,,,,,,,,,,,,0,12,12,12,,,,,,,,,,,,,,,,,,,,,l,1,1.0354783000002499,,,,,,,,,,,,zyt,f,19,2024_Apr_12_1457,mian,2021.2.3,59.925057722904214,
a8,1,2,a,l,"[-0.2, 0.2]",,,,,,,,,,,,,,,,0,13,13,13,,,,,,,,,,,,,,,,,,,,,l,1,0.7718331999994916,,,,,,,,,,,,zyt,f,19,2024_Apr_12_1457,mian,2021.2.3,59.925057722904214,
e8,2,1,8.0,l,"[-0.2, -0.2]",,,,,,,,,,,,,,,,0,14,14,14,,,,,,,,,,,,,,,,,,,,,l,1,1.7013222999994468,,,,,,,,,,,,zyt,f,19,2024_Apr_12_1457,mian,2021.2.3,59.925057722904214,
3f,2,2,3.0,a,"[0.2, -0.2]",,,,,,,,,,,,,,,,0,15,15,15,,,,,,,,,,,,,,,,,,,,,a,1,0.7906771999996636,,,,,,,,,,,,zyt,f,19,2024_Apr_12_1457,mian,2021.2.3,59.925057722904214,
7f,1,1,f,l,"[0.2, 0.2]",,,,,,,,,,,,,,,,0,16,16,16,,,,,,,,,,,,,,,,,,,,,l,1,1.1724183000005723,,,,,,,,,,,,zyt,f,19,2024_Apr_12_1457,mian,2021.2.3,59.925057722904214,
a7,1,2,a,l,"[-0.2, 0.2]",,,,,,,,,,,,,,,,0,17,17,17,,,,,,,,,,,,,,,,,,,,,l,1,2.0992083000001003,,,,,,,,,,,,zyt,f,19,2024_Apr_12_1457,mian,2021.2.3,59.925057722904214,
5A,2,1,5.0,a,"[-0.2, -0.2]",,,,,,,,,,,,,,,,0,18,18,18,,,,,,,,,,,,,,,,,,,,,a,1,1.4519541999998182,,,,,,,,,,,,zyt,f,19,2024_Apr_12_1457,mian,2021.2.3,59.925057722904214,
8g,2,2,8.0,l,"[0.2, -0.2]",,,,,,,,,,,,,,,,0,19,19,19,,,,,,,,,,,,,,,,,,,,,l,1,1.4052192999997715,,,,,,,,,,,,zyt,f,19,2024_Apr_12_1457,mian,2021.2.3,59.925057722904214,
9a,1,1,a,l,"[0.2, 0.2]",,,,,,,,,,,,,,,,0,20,20,20,,,,,,,,,,,,,,,,,,,,,l,1,1.4380381999999372,,,,,,,,,,,,zyt,f,19,2024_Apr_12_1457,mian,2021.2.3,59.925057722904214,
f7,1,2,f,l,"[-0.2, 0.2]",,,,,,,,,,,,,,,,0,21,21,21,,,,,,,,,,,,,,,,,,,,,l,1,0.789807799999835,,,,,,,,,,,,zyt,f,19,2024_Apr_12_1457,mian,2021.2.3,59.925057722904214,
g9,2,1,9.0,a,"[-0.2, -0.2]",,,,,,,,,,,,,,,,0,22,22,22,,,,,,,,,,,,,,,,,,,,,a,1,1.5040429000000586,,,,,,,,,,,,zyt,f,19,2024_Apr_12_1457,mian,2021.2.3,59.925057722904214,
3h,2,2,3.0,a,"[0.2, -0.2]",,,,,,,,,,,,,,,,0,23,23,23,,,,,,,,,,,,,,,,,,,,,a,1,0.7304913999996643,,,,,,,,,,,,zyt,f,19,2024_Apr_12_1457,mian,2021.2.3,59.925057722904214,
E6,1,1,E,a,"[0.2, 0.2]",,,,,,,,,,,,,,,,0,24,24,24,,,,,,,,,,,,,,,,,,,,,a,1,1.308392100000674,,,,,,,,,,,,zyt,f,19,2024_Apr_12_1457,mian,2021.2.3,59.925057722904214,
F6,1,2,F,a,"[-0.2, 0.2]",,,,,,,,,,,,,,,,0,25,25,25,,,,,,,,,,,,,,,,,,,,,a,1,0.7576478999999381,,,,,,,,,,,,zyt,f,19,2024_Apr_12_1457,mian,2021.2.3,59.925057722904214,
3A,2,1,3.0,a,"[-0.2, -0.2]",,,,,,,,,,,,,,,,0,26,26,26,,,,,,,,,,,,,,,,,,,,,a,1,1.047536900000523,,,,,,,,,,,,zyt,f,19,2024_Apr_12_1457,mian,2021.2.3,59.925057722904214,
8H,2,2,8.0,l,"[0.2, -0.2]",,,,,,,,,,,,,,,,0,27,27,27,,,,,,,,,,,,,,,,,,,,,l,1,0.556496000000152,,,,,,,,,,,,zyt,f,19,2024_Apr_12_1457,mian,2021.2.3,59.925057722904214,
5a,1,1,a,l,"[0.2, 0.2]",,,,,,,,,,,,,,,,0,28,28,28,,,,,,,,,,,,,,,,,,,,,l,1,1.286124600000221,,,,,,,,,,,,zyt,f,19,2024_Apr_12_1457,mian,2021.2.3,59.925057722904214,
2h,1,2,h,l,"[-0.2, 0.2]",,,,,,,,,,,,,,,,0,29,29,29,,,,,,,,,,,,,,,,,,,,,l,1,1.3383112999999867,,,,,,,,,,,,zyt,f,19,2024_Apr_12_1457,mian,2021.2.3,59.925057722904214,
e5,2,1,5.0,a,"[-0.2, -0.2]",,,,,,,,,,,,,,,,0,30,30,30,,,,,,,,,,,,,,,,,,,,,a,1,1.6118768999995154,,,,,,,,,,,,zyt,f,19,2024_Apr_12_1457,mian,2021.2.3,59.925057722904214,
a3,2,2,3.0,a,"[0.2, -0.2]",,,,,,,,,,,,,,,,0,31,31,31,,,,,,,,,,,,,,,,,,,,,a,1,0.7048207999996521,,,,,,,,,,,,zyt,f,19,2024_Apr_12_1457,mian,2021.2.3,59.925057722904214,
f3,1,1,f,l,"[0.2, 0.2]",,,,,,,,,,,,,,,,0,32,32,32,,,,,,,,,,,,,,,,,,,,,l,1,1.4299494999995659,,,,,,,,,,,,zyt,f,19,2024_Apr_12_1457,mian,2021.2.3,59.925057722904214,
2E,1,2,E,a,"[-0.2, 0.2]",,,,,,,,,,,,,,,,0,33,33,33,,,,,,,,,,,,,,,,,,,,,a,1,1.1818868999998813,,,,,,,,,,,,zyt,f,19,2024_Apr_12_1457,mian,2021.2.3,59.925057722904214,
2H,2,1,2.0,l,"[-0.2, -0.2]",,,,,,,,,,,,,,,,0,34,34,34,,,,,,,,,,,,,,,,,,,,,l,1,2.2978806999999506,,,,,,,,,,,,zyt,f,19,2024_Apr_12_1457,mian,2021.2.3,59.925057722904214,
H8,2,2,8.0,l,"[0.2, -0.2]",,,,,,,,,,,,,,,,0,35,35,35,,,,,,,,,,,,,,,,,,,,,l,1,1.576251799999227,,,,,,,,,,,,zyt,f,19,2024_Apr_12_1457,mian,2021.2.3,59.925057722904214,
9g,1,1,g,l,"[0.2, 0.2]",,,,,,,,,,,,,,,,0,36,36,36,,,,,,,,,,,,,,,,,,,,,l,1,2.2380740999997215,,,,,,,,,,,,zyt,f,19,2024_Apr_12_1457,mian,2021.2.3,59.925057722904214,
5h,1,2,h,l,"[-0.2, 0.2]",,,,,,,,,,,,,,,,0,37,37,37,,,,,,,,,,,,,,,,,,,,,l,1,0.8218561999992744,,,,,,,,,,,,zyt,f,19,2024_Apr_12_1457,mian,2021.2.3,59.925057722904214,
e4,2,1,4.0,l,"[-0.2, -0.2]",,,,,,,,,,,,,,,,0,38,38,38,,,,,,,,,,,,,,,,,,,,,l,1,1.3866280000002007,,,,,,,,,,,,zyt,f,19,2024_Apr_12_1457,mian,2021.2.3,59.925057722904214,
9h,2,2,9.0,a,"[0.2, -0.2]",,,,,,,,,,,,,,,,0,39,39,39,,,,,,,,,,,,,,,,,,,,,a,1,0.7722383999998783,,,,,,,,,,,,zyt,f,19,2024_Apr_12_1457,mian,2021.2.3,59.925057722904214,
G3,1,1,G,a,"[0.2, 0.2]",,,,,,,,,,,,,,,,0,40,40,40,,,,,,,,,,,,,,,,,,,,,a,1,1.2025597000001653,,,,,,,,,,,,zyt,f,19,2024_Apr_12_1457,mian,2021.2.3,59.925057722904214,
9A,1,2,A,a,"[-0.2, 0.2]",,,,,,,,,,,,,,,,0,41,41,41,,,,,,,,,,,,,,,,,,,,,a,1,0.9815405999997893,,,,,,,,,,,,zyt,f,19,2024_Apr_12_1457,mian,2021.2.3,59.925057722904214,
H5,2,1,5.0,a,"[-0.2, -0.2]",,,,,,,,,,,,,,,,0,42,42,42,,,,,,,,,,,,,,,,,,,,,a,1,1.6472610000000714,,,,,,,,,,,,zyt,f,19,2024_Apr_12_1457,mian,2021.2.3,59.925057722904214,
4e,2,2,4.0,l,"[0.2, -0.2]",,,,,,,,,,,,,,,,0,43,43,43,,,,,,,,,,,,,,,,,,,,,l,1,1.2762214999993375,,,,,,,,,,,,zyt,f,19,2024_Apr_12_1457,mian,2021.2.3,59.925057722904214,
E2,1,1,E,a,"[0.2, 0.2]",,,,,,,,,,,,,,,,0,44,44,44,,,,,,,,,,,,,,,,,,,,,a,1,1.16249869999956,,,,,,,,,,,,zyt,f,19,2024_Apr_12_1457,mian,2021.2.3,59.925057722904214,
A5,1,2,A,a,"[-0.2, 0.2]",,,,,,,,,,,,,,,,0,45,45,45,,,,,,,,,,,,,,,,,,,,,a,1,0.5995285999997577,,,,,,,,,,,,zyt,f,19,2024_Apr_12_1457,mian,2021.2.3,59.925057722904214,
2A,2,1,2.0,l,"[-0.2, -0.2]",,,,,,,,,,,,,,,,0,46,46,46,,,,,,,,,,,,,,,,,,,,,l,1,1.6767220000001544,,,,,,,,,,,,zyt,f,19,2024_Apr_12_1457,mian,2021.2.3,59.925057722904214,
6G,2,2,6.0,l,"[0.2, -0.2]",,,,,,,,,,,,,,,,0,47,47,47,,,,,,,,,,,,,,,,,,,,,l,1,0.8400573999997505,,,,,,,,,,,,zyt,f,19,2024_Apr_12_1457,mian,2021.2.3,59.925057722904214,
H3,1,1,H,a,"[0.2, 0.2]",,,,,,,,,,,,,,,,0,48,48,48,,,,,,,,,,,,,,,,,,,,,a,1,1.4907640999999785,,,,,,,,,,,,zyt,f,19,2024_Apr_12_1457,mian,2021.2.3,59.925057722904214,
H2,1,2,H,a,"[-0.2, 0.2]",,,,,,,,,,,,,,,,0,49,49,49,,,,,,,,,,,,,,,,,,,,,a,1,0.769278800000393,,,,,,,,,,,,zyt,f,19,2024_Apr_12_1457,mian,2021.2.3,59.925057722904214,
e9,2,1,9.0,a,"[-0.2, -0.2]",,,,,,,,,,,,,,,,0,50,50,50,,,,,,,,,,,,,,,,,,,,,a,1,0.8795944000003146,,,,,,,,,,,,zyt,f,19,2024_Apr_12_1457,mian,2021.2.3,59.925057722904214,
2G,2,2,2.0,l,"[0.2, -0.2]",,,,,,,,,,,,,,,,0,51,51,51,,,,,,,,,,,,,,,,,,,,,l,1,1.2036459000000832,,,,,,,,,,,,zyt,f,19,2024_Apr_12_1457,mian,2021.2.3,59.925057722904214,
4f,1,1,f,l,"[0.2, 0.2]",,,,,,,,,,,,,,,,0,52,52,52,,,,,,,,,,,,,,,,,,,,,l,1,1.1874002000004111,,,,,,,,,,,,zyt,f,19,2024_Apr_12_1457,mian,2021.2.3,59.925057722904214,
H6,1,2,H,a,"[-0.2, 0.2]",,,,,,,,,,,,,,,,0,53,53,53,,,,,,,,,,,,,,,,,,,,,a,1,1.3506846000000223,,,,,,,,,,,,zyt,f,19,2024_Apr_12_1457,mian,2021.2.3,59.925057722904214,
A4,2,1,4.0,l,"[-0.2, -0.2]",,,,,,,,,,,,,,,,0,54,54,54,,,,,,,,,,,,,,,,,,,,,l,1,1.1059996999993018,,,,,,,,,,,,zyt,f,19,2024_Apr_12_1457,mian,2021.2.3,59.925057722904214,
3F,2,2,3.0,a,"[0.2, -0.2]",,,,,,,,,,,,,,,,0,55,55,55,,,,,,,,,,,,,,,,,,,,,a,1,0.7896826000005603,,,,,,,,,,,,zyt,f,19,2024_Apr_12_1457,mian,2021.2.3,59.925057722904214,
7e,1,1,e,l,"[0.2, 0.2]",,,,,,,,,,,,,,,,0,56,56,56,,,,,,,,,,,,,,,,,,,,,l,1,1.1703550000001997,,,,,,,,,,,,zyt,f,19,2024_Apr_12_1457,mian,2021.2.3,59.925057722904214,
F9,1,2,F,a,"[-0.2, 0.2]",,,,,,,,,,,,,,,,0,57,57,57,,,,,,,,,,,,,,,,,,,,,a,1,1.1224670000001424,,,,,,,,,,,,zyt,f,19,2024_Apr_12_1457,mian,2021.2.3,59.925057722904214,
e2,2,1,2.0,l,"[-0.2, -0.2]",,,,,,,,,,,,,,,,0,58,58,58,,,,,,,,,,,,,,,,,,,,,l,1,1.0644412000001466,,,,,,,,,,,,zyt,f,19,2024_Apr_12_1457,mian,2021.2.3,59.925057722904214,
5F,2,2,5.0,a,"[0.2, -0.2]",,,,,,,,,,,,,,,,0,59,59,59,,,,,,,,,,,,,,,,,,,,,a,1,0.5725077999995847,,,,,,,,,,,,zyt,f,19,2024_Apr_12_1457,mian,2021.2.3,59.925057722904214,
f6,1,1,f,l,"[0.2, 0.2]",,,,,,,,,,,,,,,,0,60,60,60,,,,,,,,,,,,,,,,,,,,,l,1,1.673484500000086,,,,,,,,,,,,zyt,f,19,2024_Apr_12_1457,mian,2021.2.3,59.925057722904214,
7G,1,2,G,a,"[-0.2, 0.2]",,,,,,,,,,,,,,,,0,61,61,61,,,,,,,,,,,,,,,,,,,,,a,1,0.9689866000007896,,,,,,,,,,,,zyt,f,19,2024_Apr_12_1457,mian,2021.2.3,59.925057722904214,
e6,2,1,6.0,l,"[-0.2, -0.2]",,,,,,,,,,,,,,,,0,62,62,62,,,,,,,,,,,,,,,,,,,,,l,1,1.4180895999998029,,,,,,,,,,,,zyt,f,19,2024_Apr_12_1457,mian,2021.2.3,59.925057722904214,
3G,2,2,3.0,a,"[0.2, -0.2]",,,,,,,,,,,,,,,,0,63,63,63,,,,,,,,,,,,,,,,,,,,,a,1,1.0690568999998504,,,,,,,,,,,,zyt,f,19,2024_Apr_12_1457,mian,2021.2.3,59.925057722904214,
5E,1,1,E,a,"[0.2, 0.2]",,,,,,,,,,,,,,,,0,64,64,64,,,,,,,,,,,,,,,,,,,,,l,0,1.4506006999999954,,,,,,,,,,,,zyt,f,19,2024_Apr_12_1457,mian,2021.2.3,59.925057722904214,
A6,1,2,A,a,"[-0.2, 0.2]",,,,,,,,,,,,,,,,0,65,65,65,,,,,,,,,,,,,,,,,,,,,a,1,1.125039800000195,,,,,,,,,,,,zyt,f,19,2024_Apr_12_1457,mian,2021.2.3,59.925057722904214,
E3,2,1,3.0,a,"[-0.2, -0.2]",,,,,,,,,,,,,,,,0,66,66,66,,,,,,,,,,,,,,,,,,,,,a,1,1.9226545999999871,,,,,,,,,,,,zyt,f,19,2024_Apr_12_1457,mian,2021.2.3,59.925057722904214,
2f,2,2,2.0,l,"[0.2, -0.2]",,,,,,,,,,,,,,,,0,67,67,67,,,,,,,,,,,,,,,,,,,,,l,1,1.269037600000047,,,,,,,,,,,,zyt,f,19,2024_Apr_12_1457,mian,2021.2.3,59.925057722904214,
g3,1,1,g,l,"[0.2, 0.2]",,,,,,,,,,,,,,,,0,68,68,68,,,,,,,,,,,,,,,,,,,,,l,1,1.2011984999999186,,,,,,,,,,,,zyt,f,19,2024_Apr_12_1457,mian,2021.2.3,59.925057722904214,
E8,1,2,E,a,"[-0.2, 0.2]",,,,,,,,,,,,,,,,0,69,69,69,,,,,,,,,,,,,,,,,,,,,a,1,0.804917899999964,,,,,,,,,,,,zyt,f,19,2024_Apr_12_1457,mian,2021.2.3,59.925057722904214,
6g,2,1,6.0,l,"[-0.2, -0.2]",,,,,,,,,,,,,,,,0,70,70,70,,,,,,,,,,,,,,,,,,,,,l,1,2.0481245000000854,,,,,,,,,,,,zyt,f,19,2024_Apr_12_1457,mian,2021.2.3,59.925057722904214,
5H,2,2,5.0,a,"[0.2, -0.2]",,,,,,,,,,,,,,,,0,71,71,71,,,,,,,,,,,,,,,,,,,,,a,1,0.8084862999994584,,,,,,,,,,,,zyt,f,19,2024_Apr_12_1457,mian,2021.2.3,59.925057722904214,
4A,1,1,A,a,"[0.2, 0.2]",,,,,,,,,,,,,,,,0,72,72,72,,,,,,,,,,,,,,,,,,,,,a,1,1.3358398000000307,,,,,,,,,,,,zyt,f,19,2024_Apr_12_1457,mian,2021.2.3,59.925057722904214,
7F,1,2,F,a,"[-0.2, 0.2]",,,,,,,,,,,,,,,,0,73,73,73,,,,,,,,,,,,,,,,,,,,,a,1,0.9352860999997574,,,,,,,,,,,,zyt,f,19,2024_Apr_12_1457,mian,2021.2.3,59.925057722904214,
6H,2,1,6.0,l,"[-0.2, -0.2]",,,,,,,,,,,,,,,,0,74,74,74,,,,,,,,,,,,,,,,,,,,,l,1,1.351144999999633,,,,,,,,,,,,zyt,f,19,2024_Apr_12_1457,mian,2021.2.3,59.925057722904214,
3a,2,2,3.0,a,"[0.2, -0.2]",,,,,,,,,,,,,,,,0,75,75,75,,,,,,,,,,,,,,,,,,,,,a,1,0.5602946999997584,,,,,,,,,,,,zyt,f,19,2024_Apr_12_1457,mian,2021.2.3,59.925057722904214,
9F,1,1,F,a,"[0.2, 0.2]",,,,,,,,,,,,,,,,0,76,76,76,,,,,,,,,,,,,,,,,,,,,a,1,2.0724310999994486,,,,,,,,,,,,zyt,f,19,2024_Apr_12_1457,mian,2021.2.3,59.925057722904214,
G7,1,2,G,a,"[-0.2, 0.2]",,,,,,,,,,,,,,,,0,77,77,77,,,,,,,,,,,,,,,,,,,,,a,1,0.6767426000005798,,,,,,,,,,,,zyt,f,19,2024_Apr_12_1457,mian,2021.2.3,59.925057722904214,
a6,2,1,6.0,l,"[-0.2, -0.2]",,,,,,,,,,,,,,,,0,78,78,78,,,,,,,,,,,,,,,,,,,,,l,1,1.2182585000000472,,,,,,,,,,,,zyt,f,19,2024_Apr_12_1457,mian,2021.2.3,59.925057722904214,
4h,2,2,4.0,l,"[0.2, -0.2]",,,,,,,,,,,,,,,,0,79,79,79,,,,,,,,,,,,,,,,,,,,,l,1,1.1438615999995818,,,,,,,,,,,,zyt,f,19,2024_Apr_12_1457,mian,2021.2.3,59.925057722904214,
6A,1,1,A,a,"[0.2, 0.2]",,,,,,,,,,,,,,,,,,,,0,0,0,0,,,,,,,,,,,,,,,,,a,1,0.8085293999993155,,,,,,,,,,,,zyt,f,19,2024_Apr_12_1457,mian,2021.2.3,59.925057722904214,
4H,1,2,H,a,"[-0.2, 0.2]",,,,,,,,,,,,,,,,,,,,0,1,1,1,,,,,,,,,,,,,,,,,a,1,0.7271284999997079,,,,,,,,,,,,zyt,f,19,2024_Apr_12_1457,mian,2021.2.3,59.925057722904214,
3H,2,1,3.0,a,"[-0.2, -0.2]",,,,,,,,,,,,,,,,,,,,0,2,2,2,,,,,,,,,,,,,,,,,a,1,1.8908384999995178,,,,,,,,,,,,zyt,f,19,2024_Apr_12_1457,mian,2021.2.3,59.925057722904214,
a9,2,2,9.0,a,"[0.2, -0.2]",,,,,,,,,,,,,,,,,,,,0,3,3,3,,,,,,,,,,,,,,,,,a,1,0.8699190999996063,,,,,,,,,,,,zyt,f,19,2024_Apr_12_1457,mian,2021.2.3,59.925057722904214,
E7,1,1,E,a,"[0.2, 0.2]",,,,,,,,,,,,,,,,,,,,0,4,4,4,,,,,,,,,,,,,,,,,a,1,0.7058600000000297,,,,,,,,,,,,zyt,f,19,2024_Apr_12_1457,mian,2021.2.3,59.925057722904214,
6h,1,2,h,l,"[-0.2, 0.2]",,,,,,,,,,,,,,,,,,,,0,5,5,5,,,,,,,,,,,,,,,,,l,1,0.5261600000003455,,,,,,,,,,,,zyt,f,19,2024_Apr_12_1457,mian,2021.2.3,59.925057722904214,
8A,2,1,8.0,l,"[-0.2, -0.2]",,,,,,,,,,,,,,,,,,,,0,6,6,6,,,,,,,,,,,,,,,,,l,1,1.127965700000459,,,,,,,,,,,,zyt,f,19,2024_Apr_12_1457,mian,2021.2.3,59.925057722904214,
f5,2,2,5.0,a,"[0.2, -0.2]",,,,,,,,,,,,,,,,,,,,0,7,7,7,,,,,,,,,,,,,,,,,a,1,0.8767568000002939,,,,,,,,,,,,zyt,f,19,2024_Apr_12_1457,mian,2021.2.3,59.925057722904214,
2a,1,1,a,l,"[0.2, 0.2]",,,,,,,,,,,,,,,,,,,,0,8,8,8,,,,,,,,,,,,,,,,,l,1,1.0695261999999275,,,,,,,,,,,,zyt,f,19,2024_Apr_12_1457,mian,2021.2.3,59.925057722904214,
F7,1,2,F,a,"[-0.2, 0.2]",,,,,,,,,,,,,,,,,,,,0,9,9,9,,,,,,,,,,,,,,,,,a,1,0.5876999000001888,,,,,,,,,,,,zyt,f,19,2024_Apr_12_1457,mian,2021.2.3,59.925057722904214,
h2,2,1,2.0,l,"[-0.2, -0.2]",,,,,,,,,,,,,,,,,,,,0,10,10,10,,,,,,,,,,,,,,,,,l,1,0.8235742999995637,,,,,,,,,,,,zyt,f,19,2024_Apr_12_1457,mian,2021.2.3,59.925057722904214,
F5,2,2,5.0,a,"[0.2, -0.2]",,,,,,,,,,,,,,,,,,,,0,11,11,11,,,,,,,,,,,,,,,,,a,1,0.6671805999994831,,,,,,,,,,,,zyt,f,19,2024_Apr_12_1457,mian,2021.2.3,59.925057722904214,
A9,1,1,A,a,"[0.2, 0.2]",,,,,,,,,,,,,,,,,,,,0,12,12,12,,,,,,,,,,,,,,,,,a,1,0.76880920000076,,,,,,,,,,,,zyt,f,19,2024_Apr_12_1457,mian,2021.2.3,59.925057722904214,
3e,1,2,e,l,"[-0.2, 0.2]",,,,,,,,,,,,,,,,,,,,0,13,13,13,,,,,,,,,,,,,,,,,l,1,0.5917742999999973,,,,,,,,,,,,zyt,f,19,2024_Apr_12_1457,mian,2021.2.3,59.925057722904214,
f8,2,1,8.0,l,"[-0.2, -0.2]",,,,,,,,,,,,,,,,,,,,0,14,14,14,,,,,,,,,,,,,,,,,l,1,1.5555114999997386,,,,,,,,,,,,zyt,f,19,2024_Apr_12_1457,mian,2021.2.3,59.925057722904214,
G2,2,2,2.0,l,"[0.2, -0.2]",,,,,,,,,,,,,,,,,,,,0,15,15,15,,,,,,,,,,,,,,,,,l,1,0.7674428999998781,,,,,,,,,,,,zyt,f,19,2024_Apr_12_1457,mian,2021.2.3,59.925057722904214,
F2,1,1,F,a,"[0.2, 0.2]",,,,,,,,,,,,,,,,,,,,0,16,16,16,,,,,,,,,,,,,,,,,a,1,1.121536799999376,,,,,,,,,,,,zyt,f,19,2024_Apr_12_1457,mian,2021.2.3,59.925057722904214,
5e,1,2,e,l,"[-0.2, 0.2]",,,,,,,,,,,,,,,,,,,,0,17,17,17,,,,,,,,,,,,,,,,,l,1,0.5997263999997813,,,,,,,,,,,,zyt,f,19,2024_Apr_12_1457,mian,2021.2.3,59.925057722904214,
A3,2,1,3.0,a,"[-0.2, -0.2]",,,,,,,,,,,,,,,,,,,,0,18,18,18,,,,,,,,,,,,,,,,,a,1,1.547341200000119,,,,,,,,,,,,zyt,f,19,2024_Apr_12_1457,mian,2021.2.3,59.925057722904214,
4g,2,2,4.0,l,"[0.2, -0.2]",,,,,,,,,,,,,,,,,,,,0,19,19,19,,,,,,,,,,,,,,,,,l,1,1.1734379999998055,,,,,,,,,,,,zyt,f,19,2024_Apr_12_1457,mian,2021.2.3,59.925057722904214,
h7,1,1,h,l,"[0.2, 0.2]",,,,,,,,,,,,,,,,,,,,0,20,20,20,,,,,,,,,,,,,,,,,l,1,1.230116900000212,,,,,,,,,,,,zyt,f,19,2024_Apr_12_1457,mian,2021.2.3,59.925057722904214,
3g,1,2,g,l,"[-0.2, 0.2]",,,,,,,,,,,,,,,,,,,,0,21,21,21,,,,,,,,,,,,,,,,,l,1,0.9109851000002891,,,,,,,,,,,,zyt,f,19,2024_Apr_12_1457,mian,2021.2.3,59.925057722904214,
8a,2,1,8.0,l,"[-0.2, -0.2]",,,,,,,,,,,,,,,,,,,,0,22,22,22,,,,,,,,,,,,,,,,,l,1,1.353857600000083,,,,,,,,,,,,zyt,f,19,2024_Apr_12_1457,mian,2021.2.3,59.925057722904214,
4E,2,2,4.0,l,"[0.2, -0.2]",,,,,,,,,,,,,,,,,,,,0,23,23,23,,,,,,,,,,,,,,,,,l,1,0.9996768000000884,,,,,,,,,,,,zyt,f,19,2024_Apr_12_1457,mian,2021.2.3,59.925057722904214,
E5,1,1,E,a,"[0.2, 0.2]",,,,,,,,,,,,,,,,,,,,0,24,24,24,,,,,,,,,,,,,,,,,a,1,0.7046001999997316,,,,,,,,,,,,zyt,f,19,2024_Apr_12_1457,mian,2021.2.3,59.925057722904214,
g6,1,2,g,l,"[-0.2, 0.2]",,,,,,,,,,,,,,,,,,,,0,25,25,25,,,,,,,,,,,,,,,,,l,1,1.552937500000553,,,,,,,,,,,,zyt,f,19,2024_Apr_12_1457,mian,2021.2.3,59.925057722904214,
2e,2,1,2.0,l,"[-0.2, -0.2]",,,,,,,,,,,,,,,,,,,,0,26,26,26,,,,,,,,,,,,,,,,,l,1,1.4090638999996372,,,,,,,,,,,,zyt,f,19,2024_Apr_12_1457,mian,2021.2.3,59.925057722904214,
h8,2,2,8.0,l,"[0.2, -0.2]",,,,,,,,,,,,,,,,,,,,0,27,27,27,,,,,,,,,,,,,,,,,l,1,1.0435165000008055,,,,,,,,,,,,zyt,f,19,2024_Apr_12_1457,mian,2021.2.3,59.925057722904214,
G6,1,1,G,a,"[0.2, 0.2]",,,,,,,,,,,,,,,,,,,,0,28,28,28,,,,,,,,,,,,,,,,,a,1,1.0898097999997844,,,,,,,,,,,,zyt,f,19,2024_Apr_12_1457,mian,2021.2.3,59.925057722904214,
a4,1,2,a,l,"[-0.2, 0.2]",,,,,,,,,,,,,,,,,,,,0,29,29,29,,,,,,,,,,,,,,,,,l,1,0.9326266999996733,,,,,,,,,,,,zyt,f,19,2024_Apr_12_1457,mian,2021.2.3,59.925057722904214,
9H,2,1,9.0,a,"[-0.2, -0.2]",,,,,,,,,,,,,,,,,,,,0,30,30,30,,,,,,,,,,,,,,,,,l,0,2.264367300000231,,,,,,,,,,,,zyt,f,19,2024_Apr_12_1457,mian,2021.2.3,59.925057722904214,
7H,2,2,7.0,a,"[0.2, -0.2]",,,,,,,,,,,,,,,,,,,,0,31,31,31,,,,,,,,,,,,,,,,,a,1,1.4786224999998012,,,,,,,,,,,,zyt,f,19,2024_Apr_12_1457,mian,2021.2.3,59.925057722904214,
9f,1,1,f,l,"[0.2, 0.2]",,,,,,,,,,,,,,,,,,,,0,32,32,32,,,,,,,,,,,,,,,,,l,1,1.8057097000000795,,,,,,,,,,,,zyt,f,19,2024_Apr_12_1457,mian,2021.2.3,59.925057722904214,
8E,1,2,E,a,"[-0.2, 0.2]",,,,,,,,,,,,,,,,,,,,0,33,33,33,,,,,,,,,,,,,,,,,a,1,1.3827460000002247,,,,,,,,,,,,zyt,f,19,2024_Apr_12_1457,mian,2021.2.3,59.925057722904214,
A2,2,1,2.0,l,"[-0.2, -0.2]",,,,,,,,,,,,,,,,,,,,0,34,34,34,,,,,,,,,,,,,,,,,l,1,0.8678577999999106,,,,,,,,,,,,zyt,f,19,2024_Apr_12_1457,mian,2021.2.3,59.925057722904214,
H7,2,2,7.0,a,"[0.2, -0.2]",,,,,,,,,,,,,,,,,,,,0,35,35,35,,,,,,,,,,,,,,,,,a,1,1.0377841999998054,,,,,,,,,,,,zyt,f,19,2024_Apr_12_1457,mian,2021.2.3,59.925057722904214,
h9,1,1,h,l,"[0.2, 0.2]",,,,,,,,,,,,,,,,,,,,0,36,36,36,,,,,,,,,,,,,,,,,l,1,1.460675600000286,,,,,,,,,,,,zyt,f,19,2024_Apr_12_1457,mian,2021.2.3,59.925057722904214,
8G,1,2,G,a,"[-0.2, 0.2]",,,,,,,,,,,,,,,,,,,,0,37,37,37,,,,,,,,,,,,,,,,,a,1,0.8228675999998813,,,,,,,,,,,,zyt,f,19,2024_Apr_12_1457,mian,2021.2.3,59.925057722904214,
H4,2,1,4.0,l,"[-0.2, -0.2]",,,,,,,,,,,,,,,,,,,,0,38,38,38,,,,,,,,,,,,,,,,,l,1,0.985851399999774,,,,,,,,,,,,zyt,f,19,2024_Apr_12_1457,mian,2021.2.3,59.925057722904214,
A8,2,2,8.0,l,"[0.2, -0.2]",,,,,,,,,,,,,,,,,,,,0,39,39,39,,,,,,,,,,,,,,,,,l,1,0.7307530999996743,,,,,,,,,,,,zyt,f,19,2024_Apr_12_1457,mian,2021.2.3,59.925057722904214,
g7,1,1,g,l,"[0.2, 0.2]",,,,,,,,,,,,,,,,,,,,0,40,40,40,,,,,,,,,,,,,,,,,l,1,1.186192199999823,,,,,,,,,,,,zyt,f,19,2024_Apr_12_1457,mian,2021.2.3,59.925057722904214,
H9,1,2,H,a,"[-0.2, 0.2]",,,,,,,,,,,,,,,,,,,,0,41,41,41,,,,,,,,,,,,,,,,,a,1,0.6893243000004077,,,,,,,,,,,,zyt,f,19,2024_Apr_12_1457,mian,2021.2.3,59.925057722904214,
9E,2,1,9.0,a,"[-0.2, -0.2]",,,,,,,,,,,,,,,,,,,,0,42,42,42,,,,,,,,,,,,,,,,,a,1,2.9429251000001386,,,,,,,,,,,,zyt,f,19,2024_Apr_12_1457,mian,2021.2.3,59.925057722904214,
a5,2,2,5.0,a,"[0.2, -0.2]",,,,,,,,,,,,,,,,,,,,0,43,43,43,,,,,,,,,,,,,,,,,a,1,1.381306900000709,,,,,,,,,,,,zyt,f,19,2024_Apr_12_1457,mian,2021.2.3,59.925057722904214,
3E,1,1,E,a,"[0.2, 0.2]",,,,,,,,,,,,,,,,,,,,0,44,44,44,,,,,,,,,,,,,,,,,a,1,0.9498990000001868,,,,,,,,,,,,zyt,f,19,2024_Apr_12_1457,mian,2021.2.3,59.925057722904214,
6f,1,2,f,l,"[-0.2, 0.2]",,,,,,,,,,,,,,,,,,,,0,45,45,45,,,,,,,,,,,,,,,,,l,1,0.6416472999999314,,,,,,,,,,,,zyt,f,19,2024_Apr_12_1457,mian,2021.2.3,59.925057722904214,
g8,2,1,8.0,l,"[-0.2, -0.2]",,,,,,,,,,,,,,,,,,,,0,46,46,46,,,,,,,,,,,,,,,,,l,1,1.1406274999999368,,,,,,,,,,,,zyt,f,19,2024_Apr_12_1457,mian,2021.2.3,59.925057722904214,
4F,2,2,4.0,l,"[0.2, -0.2]",,,,,,,,,,,,,,,,,,,,0,47,47,47,,,,,,,,,,,,,,,,,l,1,0.9408492000002298,,,,,,,,,,,,zyt,f,19,2024_Apr_12_1457,mian,2021.2.3,59.925057722904214,
4a,1,1,a,l,"[0.2, 0.2]",,,,,,,,,,,,,,,,,,,,0,48,48,48,,,,,,,,,,,,,,,,,a,0,0.8368032999997013,,,,,,,,,,,,zyt,f,19,2024_Apr_12_1457,mian,2021.2.3,59.925057722904214,
e3,1,2,e,l,"[-0.2, 0.2]",,,,,,,,,,,,,,,,,,,,0,49,49,49,,,,,,,,,,,,,,,,,a,0,0.8040143000007447,,,,,,,,,,,,zyt,f,19,2024_Apr_12_1457,mian,2021.2.3,59.925057722904214,
5g,2,1,5.0,a,"[-0.2, -0.2]",,,,,,,,,,,,,,,,,,,,0,50,50,50,,,,,,,,,,,,,,,,,a,1,2.349270699999579,,,,,,,,,,,,zyt,f,19,2024_Apr_12_1457,mian,2021.2.3,59.925057722904214,
f4,2,2,4.0,l,"[0.2, -0.2]",,,,,,,,,,,,,,,,,,,,0,51,51,51,,,,,,,,,,,,,,,,,l,1,1.2970770000001721,,,,,,,,,,,,zyt,f,19,2024_Apr_12_1457,mian,2021.2.3,59.925057722904214,
6E,1,1,E,a,"[0.2, 0.2]",,,,,,,,,,,,,,,,,,,,0,52,52,52,,,,,,,,,,,,,,,,,a,1,1.664998299999752,,,,,,,,,,,,zyt,f,19,2024_Apr_12_1457,mian,2021.2.3,59.925057722904214,
7A,1,2,A,a,"[-0.2, 0.2]",,,,,,,,,,,,,,,,,,,,0,53,53,53,,,,,,,,,,,,,,,,,a,1,0.5603480999998283,,,,,,,,,,,,zyt,f,19,2024_Apr_12_1457,mian,2021.2.3,59.925057722904214,
F4,2,1,4.0,l,"[-0.2, -0.2]",,,,,,,,,,,,,,,,,,,,0,54,54,54,,,,,,,,,,,,,,,,,l,1,1.757599499999742,,,,,,,,,,,,zyt,f,19,2024_Apr_12_1457,mian,2021.2.3,59.925057722904214,
2g,2,2,2.0,l,"[0.2, -0.2]",,,,,,,,,,,,,,,,,,,,0,55,55,55,,,,,,,,,,,,,,,,,l,1,0.752105799999299,,,,,,,,,,,,zyt,f,19,2024_Apr_12_1457,mian,2021.2.3,59.925057722904214,
7E,1,1,E,a,"[0.2, 0.2]",,,,,,,,,,,,,,,,,,,,0,56,56,56,,,,,,,,,,,,,,,,,a,1,1.7733072999999422,,,,,,,,,,,,zyt,f,19,2024_Apr_12_1457,mian,2021.2.3,59.925057722904214,
G4,1,2,G,a,"[-0.2, 0.2]",,,,,,,,,,,,,,,,,,,,0,57,57,57,,,,,,,,,,,,,,,,,a,1,0.5070716000000175,,,,,,,,,,,,zyt,f,19,2024_Apr_12_1457,mian,2021.2.3,59.925057722904214,
2F,2,1,2.0,l,"[-0.2, -0.2]",,,,,,,,,,,,,,,,,,,,0,58,58,58,,,,,,,,,,,,,,,,,l,1,1.1805185000002894,,,,,,,,,,,,zyt,f,19,2024_Apr_12_1457,mian,2021.2.3,59.925057722904214,
E9,2,2,9.0,a,"[0.2, -0.2]",,,,,,,,,,,,,,,,,,,,0,59,59,59,,,,,,,,,,,,,,,,,a,1,0.6310761999993701,,,,,,,,,,,,zyt,f,19,2024_Apr_12_1457,mian,2021.2.3,59.925057722904214,
5f,1,1,f,l,"[0.2, 0.2]",,,,,,,,,,,,,,,,,,,,0,60,60,60,,,,,,,,,,,,,,,,,l,1,1.2046573999996326,,,,,,,,,,,,zyt,f,19,2024_Apr_12_1457,mian,2021.2.3,59.925057722904214,
e7,1,2,e,l,"[-0.2, 0.2]",,,,,,,,,,,,,,,,,,,,0,61,61,61,,,,,,,,,,,,,,,,,l,1,1.649196600000323,,,,,,,,,,,,zyt,f,19,2024_Apr_12_1457,mian,2021.2.3,59.925057722904214,
f2,2,1,2.0,l,"[-0.2, -0.2]",,,,,,,,,,,,,,,,,,,,0,62,62,62,,,,,,,,,,,,,,,,,l,1,1.1655489000004309,,,,,,,,,,,,zyt,f,19,2024_Apr_12_1457,mian,2021.2.3,59.925057722904214,
G9,2,2,9.0,a,"[0.2, -0.2]",,,,,,,,,,,,,,,,,,,,0,63,63,63,,,,,,,,,,,,,,,,,a,1,1.1879061999998157,,,,,,,,,,,,zyt,f,19,2024_Apr_12_1457,mian,2021.2.3,59.925057722904214,
7g,1,1,g,l,"[0.2, 0.2]",,,,,,,,,,,,,,,,,,,,0,64,64,64,,,,,,,,,,,,,,,,,l,1,1.144590299999436,,,,,,,,,,,,zyt,f,19,2024_Apr_12_1457,mian,2021.2.3,59.925057722904214,
F8,1,2,F,a,"[-0.2, 0.2]",,,,,,,,,,,,,,,,,,,,0,65,65,65,,,,,,,,,,,,,,,,,a,1,1.387542200000098,,,,,,,,,,,,zyt,f,19,2024_Apr_12_1457,mian,2021.2.3,59.925057722904214,
A7,2,1,7.0,a,"[-0.2, -0.2]",,,,,,,,,,,,,,,,,,,,0,66,66,66,,,,,,,,,,,,,,,,,a,1,1.7197595999996338,,,,,,,,,,,,zyt,f,19,2024_Apr_12_1457,mian,2021.2.3,59.925057722904214,
4G,2,2,4.0,l,"[0.2, -0.2]",,,,,,,,,,,,,,,,,,,,0,67,67,67,,,,,,,,,,,,,,,,,l,1,0.6744455999996717,,,,,,,,,,,,zyt,f,19,2024_Apr_12_1457,mian,2021.2.3,59.925057722904214,
g2,1,1,g,l,"[0.2, 0.2]",,,,,,,,,,,,,,,,,,,,0,68,68,68,,,,,,,,,,,,,,,,,l,1,1.4293960999993942,,,,,,,,,,,,zyt,f,19,2024_Apr_12_1457,mian,2021.2.3,59.925057722904214,
g4,1,2,g,l,"[-0.2, 0.2]",,,,,,,,,,,,,,,,,,,,0,69,69,69,,,,,,,,,,,,,,,,,l,1,1.0567285999995875,,,,,,,,,,,,zyt,f,19,2024_Apr_12_1457,mian,2021.2.3,59.925057722904214,
7a,2,1,7.0,a,"[-0.2, -0.2]",,,,,,,,,,,,,,,,,,,,0,70,70,70,,,,,,,,,,,,,,,,,a,1,1.644890900000064,,,,,,,,,,,,zyt,f,19,2024_Apr_12_1457,mian,2021.2.3,59.925057722904214,
8e,2,2,8.0,l,"[0.2, -0.2]",,,,,,,,,,,,,,,,,,,,0,71,71,71,,,,,,,,,,,,,,,,,l,1,1.7927033000005395,,,,,,,,,,,,zyt,f,19,2024_Apr_12_1457,mian,2021.2.3,59.925057722904214,
h4,1,1,h,l,"[0.2, 0.2]",,,,,,,,,,,,,,,,,,,,0,72,72,72,,,,,,,,,,,,,,,,,l,1,1.2219632000005731,,,,,,,,,,,,zyt,f,19,2024_Apr_12_1457,mian,2021.2.3,59.925057722904214,
G8,1,2,G,a,"[-0.2, 0.2]",,,,,,,,,,,,,,,,,,,,0,73,73,73,,,,,,,,,,,,,,,,,a,1,0.756717999999637,,,,,,,,,,,,zyt,f,19,2024_Apr_12_1457,mian,2021.2.3,59.925057722904214,
6F,2,1,6.0,l,"[-0.2, -0.2]",,,,,,,,,,,,,,,,,,,,0,74,74,74,,,,,,,,,,,,,,,,,l,1,1.931337099999837,,,,,,,,,,,,zyt,f,19,2024_Apr_12_1457,mian,2021.2.3,59.925057722904214,
g5,2,2,5.0,a,"[0.2, -0.2]",,,,,,,,,,,,,,,,,,,,0,75,75,75,,,,,,,,,,,,,,,,,a,1,1.0576240000000325,,,,,,,,,,,,zyt,f,19,2024_Apr_12_1457,mian,2021.2.3,59.925057722904214,
G5,1,1,G,a,"[0.2, 0.2]",,,,,,,,,,,,,,,,,,,,0,76,76,76,,,,,,,,,,,,,,,,,a,1,1.0034920999996757,,,,,,,,,,,,zyt,f,19,2024_Apr_12_1457,mian,2021.2.3,59.925057722904214,
h5,1,2,h,l,"[-0.2, 0.2]",,,,,,,,,,,,,,,,,,,,0,77,77,77,,,,,,,,,,,,,,,,,l,1,0.7350302999993801,,,,,,,,,,,,zyt,f,19,2024_Apr_12_1457,mian,2021.2.3,59.925057722904214,
9G,2,1,9.0,a,"[-0.2, -0.2]",,,,,,,,,,,,,,,,,,,,0,78,78,78,,,,,,,,,,,,,,,,,a,1,2.3188885999998092,,,,,,,,,,,,zyt,f,19,2024_Apr_12_1457,mian,2021.2.3,59.925057722904214,
F3,2,2,3.0,a,"[0.2, -0.2]",,,,,,,,,,,,,,,,,,,,0,79,79,79,,,,,,,,,,,,,,,,,a,1,0.6725403999998889,,,,,,,,,,,,zyt,f,19,2024_Apr_12_1457,mian,2021.2.3,59.925057722904214,
,,,,,,0,1,pic/flanker6.png,pic/flanker2.png,a,k,,,,,,,,,,,,,,,,,,0,0,0,0,0,0,0,2,,,,,,,,,,,,572.2715103999999,None,571.0828277999999,572.2881860999996,a,1,1.0926027000004979,奉献,k,1,1.4469798999998602,zyt,f,19,2024_Apr_12_1457,mian,2021.2.3,59.925057722904214,
,,,,,,1,1,pic/flanker6.png,pic/flanker4.png,s,k,,,,,,,,,,,,,,,,,,0,0,0,0,0,1,1,6,,,,,,,,,,,,576.8216873000001,None,575.6381263000003,576.8382213000004,s,1,0.8270629999997254,精致,k,1,0.9673407000000225,zyt,f,19,2024_Apr_12_1457,mian,2021.2.3,59.925057722904214,
,,,,,,1,1,pic/flanker5.png,pic/flanker3.png,a,k,,,,,,,,,,,,,,,,,,0,0,0,0,0,2,2,4,,,,,,,,,,,,580.6540834999996,None,579.4714829000004,580.671472,a,1,0.648756599999615,热切,k,1,0.7946555999997145,zyt,f,19,2024_Apr_12_1457,mian,2021.2.3,59.925057722904214,
,,,,,,0,1,pic/flanker5.png,pic/flanker1.png,s,k,,,,,,,,,,,,,,,,,,0,0,0,0,0,3,3,0,,,,,,,,,,,,583.9382670000005,None,582.7548115,583.9550034000004,s,1,0.5496429999993779,俊秀,k,1,0.7744400999999925,zyt,f,19,2024_Apr_12_1457,mian,2021.2.3,59.925057722904214,
,,,,,,0,0,pic/flanker6.png,pic/flanker2.png,a,l,,,,,,,,,,,,,,,,,,0,0,0,0,0,4,4,1,,,,,,,,,,,,587.2214446999997,None,586.0381883,587.2383314999997,a,1,0.6159071000001859,消沉,l,1,0.8331618000001981,zyt,f,19,2024_Apr_12_1457,mian,2021.2.3,59.925057722904214,
,,,,,,0,0,pic/flanker5.png,pic/flanker1.png,s,l,,,,,,,,,,,,,,,,,,0,0,0,0,0,5,5,3,,,,,,,,,,,,590.5214308000004,None,589.338221,590.5383272999998,s,1,0.6088373000002321,穷苦,l,1,0.7229476000002251,zyt,f,19,2024_Apr_12_1457,mian,2021.2.3,59.925057722904214,
,,,,,,1,0,pic/flanker6.png,pic/flanker4.png,s,l,,,,,,,,,,,,,,,,,,0,0,0,0,0,6,6,5,,,,,,,,,,,,593.7550002999997,None,592.5717826999999,593.7716055000001,s,1,0.7469103000003088,焦躁,l,1,0.8425382000004902,zyt,f,19,2024_Apr_12_1457,mian,2021.2.3,59.925057722904214,
,,,,,,1,0,pic/flanker5.png,pic/flanker3.png,a,l,,,,,,,,,,,,,,,,,,0,0,0,0,0,7,7,7,,,,,,,,,,,,597.2214712000005,None,596.0382955000005,597.2382153999997,a,1,0.6811106000004656,闷热,l,1,1.0203773000002911,zyt,f,19,2024_Apr_12_1457,mian,2021.2.3,59.925057722904214,
,,,,,,,,,,,,,,,,,,,,,,,,,,,,,0,0,0,0,,,,,,,,,,,,,,,,,,,,,,,,,,,zyt,f,19,2024_Apr_12_1457,mian,2021.2.3,59.925057722904214,
,,,,,,1,1,pic/flanker5.png,pic/flanker3.png,a,k,pic/AffRest1.png,,,,,,,,,,,,,,,,,,,,,,,,,0,0,0,0,0,0,0,76,,,,611.9048307000003,None,610.7183481000002,611.9215697,a,1,0.6543879999999263,赞成,k,1,0.7802239000002373,zyt,f,19,2024_Apr_12_1457,mian,2021.2.3,59.925057722904214,
,,,,,,0,1,pic/flanker6.png,pic/flanker2.png,a,k,pic/AffRest1.png,,,,,,,,,,,,,,,,,,,,,,,,,0,0,0,0,0,1,1,74,,,,615.3714613000002,None,614.1882888999999,615.3883413000003,a,1,0.5247496000001775,廉洁,k,1,0.7120733000001565,zyt,f,19,2024_Apr_12_1457,mian,2021.2.3,59.925057722904214,
,,,,,,0,0,pic/flanker6.png,pic/flanker2.png,a,l,pic/AffRest1.png,,,,,,,,,,,,,,,,,,,,,,,,,0,0,0,0,0,2,2,9,,,,618.4381890000004,None,617.2547611999998,618.4549225999999,a,1,0.43788860000040586,损害,l,1,0.6872966999999335,zyt,f,19,2024_Apr_12_1457,mian,2021.2.3,59.925057722904214,
,,,,,,1,1,pic/flanker6.png,pic/flanker4.png,s,k,pic/AffRest1.png,,,,,,,,,,,,,,,,,,,,,,,,,0,0,0,0,0,3,3,70,,,,621.4050519000002,None,620.221579,621.4216966000004,s,1,0.582406099999389,瑰丽,k,1,0.6532880000004297,zyt,f,19,2024_Apr_12_1457,mian,2021.2.3,59.925057722904214,
,,,,,,0,1,pic/flanker5.png,pic/flanker1.png,s,k,pic/AffRest1.png,,,,,,,,,,,,,,,,,,,,,,,,,0,0,0,0,0,4,4,64,,,,624.5216114000004,None,623.3382349000003,624.5382731999998,s,1,0.6104480000003605,旺盛,k,1,0.648765299999468,zyt,f,19,2024_Apr_12_1457,mian,2021.2.3,59.925057722904214,
,,,,,,1,1,pic/flanker6.png,pic/flanker4.png,s,k,pic/AffRest1.png,,,,,,,,,,,,,,,,,,,,,,,,,0,0,0,0,0,5,5,38,,,,627.6882636999999,None,626.5049804,627.7050558000001,s,1,0.7407640999999785,正直,k,1,0.6657440999997561,zyt,f,19,2024_Apr_12_1457,mian,2021.2.3,59.925057722904214,
,,,,,,0,1,pic/flanker5.png,pic/flanker1.png,s,k,pic/AffRest1.png,,,,,,,,,,,,,,,,,,,,,,,,,0,0,0,0,0,6,6,32,,,,631.1050492000004,None,629.9213879999998,631.1216672999999,s,1,0.4700474999999642,吉祥,k,1,0.9213755999999194,zyt,f,19,2024_Apr_12_1457,mian,2021.2.3,59.925057722904214,
,,,,,,0,0,pic/flanker6.png,pic/flanker2.png,a,l,pic/AffRest1.png,,,,,,,,,,,,,,,,,,,,,,,,,0,0,0,0,0,7,7,49,,,,634.3715714,None,633.1880635999996,634.3884131000004,a,1,0.4967814999999973,悲观,l,1,0.666287399999419,zyt,f,19,2024_Apr_12_1457,mian,2021.2.3,59.925057722904214,
,,,,,,1,1,pic/flanker6.png,pic/flanker4.png,s,k,pic/AffRest1.png,,,,,,,,,,,,,,,,,,,,,,,,,0,0,0,0,0,8,8,30,,,,637.3878463000001,None,636.2042511999998,637.4045224000001,s,1,0.6894040999995923,生动,k,1,0.7933332000002338,zyt,f,19,2024_Apr_12_1457,mian,2021.2.3,59.925057722904214,
,,,,,,0,0,pic/flanker5.png,pic/flanker1.png,s,l,pic/AffRest1.png,,,,,,,,,,,,,,,,,,,,,,,,,0,0,0,0,0,9,9,19,,,,640.8217058999999,None,639.6382186999999,640.8383408,s,1,0.5093587999999727,罚款,l,1,1.0726881999999023,zyt,f,19,2024_Apr_12_1457,mian,2021.2.3,59.925057722904214,
,,,,,,1,1,pic/flanker5.png,pic/flanker3.png,a,k,pic/AffRest1.png,,,,,,,,,,,,,,,,,,,,,,,,,0,0,0,0,0,10,10,52,,,,644.2715472999998,None,643.0881902000001,644.2882608999998,a,1,0.7263977000002342,爽朗,k,1,1.076367200000277,zyt,f,19,2024_Apr_12_1457,mian,2021.2.3,59.925057722904214,
,,,,,,1,0,pic/flanker6.png,pic/flanker4.png,s,l,pic/AffRest1.png,,,,,,,,,,,,,,,,,,,,,,,,,0,0,0,0,0,11,11,5,,,,648.0384059999997,None,646.8550219999997,648.0549854000001,s,1,0.8257137000000512,黑暗,l,1,0.7038304000006974,zyt,f,19,2024_Apr_12_1457,mian,2021.2.3,59.925057722904214,
,,,,,,0,1,pic/flanker6.png,pic/flanker2.png,a,k,pic/AffRest1.png,,,,,,,,,,,,,,,,,,,,,,,,,0,0,0,0,0,12,12,18,,,,651.4383292000002,None,650.2549398000001,651.4548694000005,a,1,0.86019479999959,俊秀,k,1,0.7152452999998786,zyt,f,19,2024_Apr_12_1457,mian,2021.2.3,59.925057722904214,
,,,,,,0,0,pic/flanker6.png,pic/flanker2.png,a,l,pic/AffRest1.png,,,,,,,,,,,,,,,,,,,,,,,,,0,0,0,0,0,13,13,65,,,,655.0383557000005,None,653.8549387000003,655.0549039999996,a,1,0.5872265999996671,伤心,l,1,0.7918128999999681,zyt,f,19,2024_Apr_12_1457,mian,2021.2.3,59.925057722904214,
,,,,,,0,0,pic/flanker5.png,pic/flanker1.png,s,l,pic/AffRest1.png,,,,,,,,,,,,,,,,,,,,,,,,,0,0,0,0,0,14,14,75,,,,658.3216220000004,None,657.1383229000003,658.3383221000004,s,1,0.39289889999963634,闷热,l,1,1.0497710999998162,zyt,f,19,2024_Apr_12_1457,mian,2021.2.3,59.925057722904214,
,,,,,,1,1,pic/flanker6.png,pic/flanker4.png,s,k,pic/AffRest1.png,,,,,,,,,,,,,,,,,,,,,,,,,0,0,0,0,0,15,15,6,,,,661.7547041999997,None,660.5716321,661.7712079000003,s,1,0.7899726000005103,前进,k,1,0.7908408000002964,zyt,f,19,2024_Apr_12_1457,mian,2021.2.3,59.925057722904214,
,,,,,,0,1,pic/flanker6.png,pic/flanker2.png,a,k,pic/AffRest1.png,,,,,,,,,,,,,,,,,,,,,,,,,0,0,0,0,0,16,16,42,,,,665.1716315000003,None,663.9880197000002,665.1883324,a,1,0.6442276999996466,精致,k,1,0.7917310999991969,zyt,f,19,2024_Apr_12_1457,mian,2021.2.3,59.925057722904214,
,,,,,,1,0,pic/flanker6.png,pic/flanker4.png,s,l,pic/AffRest1.png,,,,,,,,,,,,,,,,,,,,,,,,,0,0,0,0,0,17,17,45,,,,668.4878938000002,None,667.3050714000001,668.5045207000003,s,1,0.5476236000004064,郁闷,l,1,0.8825520999998844,zyt,f,19,2024_Apr_12_1457,mian,2021.2.3,59.925057722904214,
,,,,,,1,0,pic/flanker5.png,pic/flanker3.png,a,l,pic/AffRest1.png,,,,,,,,,,,,,,,,,,,,,,,,,0,0,0,0,0,18,18,15,,,,671.9379296999996,None,670.7551436000003,671.9545760000001,a,1,0.5448949000001448,厌恶,l,1,0.6921972000000096,zyt,f,19,2024_Apr_12_1457,mian,2021.2.3,59.925057722904214,
,,,,,,0,0,pic/flanker6.png,pic/flanker2.png,a,l,pic/AffRest1.png,,,,,,,,,,,,,,,,,,,,,,,,,0,0,0,0,0,19,19,73,,,,675.0710742000001,None,673.8883377000002,675.0877597999997,a,1,0.45305049999933544,消沉,l,1,1.20784840000033,zyt,f,19,2024_Apr_12_1457,mian,2021.2.3,59.925057722904214,
,,,,,,1,0,pic/flanker6.png,pic/flanker4.png,s,l,pic/AffRest1.png,,,,,,,,,,,,,,,,,,,,,,,,,0,0,0,0,0,20,20,69,,,,678.5714105999996,None,677.3877430000002,678.5884048999997,s,1,0.5496855999999752,鲁莽,l,1,0.6462748999992982,zyt,f,19,2024_Apr_12_1457,mian,2021.2.3,59.925057722904214,
,,,,,,0,1,pic/flanker6.png,pic/flanker2.png,a,k,pic/AffRest1.png,,,,,,,,,,,,,,,,,,,,,,,,,0,0,0,0,0,21,21,26,,,,681.6209969000001,None,680.4381770999998,681.6382936,a,1,0.5368835999997827,丰满,k,1,1.6124288999999408,zyt,f,19,2024_Apr_12_1457,mian,2021.2.3,59.925057722904214,
,,,,,,1,1,pic/flanker6.png,pic/flanker4.png,s,k,pic/AffRest1.png,,,,,,,,,,,,,,,,,,,,,,,,,0,0,0,0,0,22,22,46,,,,685.7381851,None,684.5547348,685.7549232000001,s,1,0.680288799999289,富足,k,1,1.1200434999991558,zyt,f,19,2024_Apr_12_1457,mian,2021.2.3,59.925057722904214,
,,,,,,0,0,pic/flanker6.png,pic/flanker2.png,a,l,pic/AffRest1.png,,,,,,,,,,,,,,,,,,,,,,,,,0,0,0,0,0,23,23,25,,,,689.4211105000004,None,688.2386857000001,689.4377775000003,a,1,0.3939220000002024,沮丧,l,1,0.6273866999999882,zyt,f,19,2024_Apr_12_1457,mian,2021.2.3,59.925057722904214,
,,,,,,1,1,pic/flanker5.png,pic/flanker3.png,a,k,pic/AffRest1.png,,,,,,,,,,,,,,,,,,,,,,,,,0,0,0,0,0,24,24,44,,,,692.3718275000001,None,691.1883733000004,692.3884946999997,a,1,0.5246646000005057,舒畅,k,1,1.134318099999291,zyt,f,19,2024_Apr_12_1457,mian,2021.2.3,59.925057722904214,
,,,,,,0,1,pic/flanker6.png,pic/flanker2.png,a,k,pic/AffRest1.png,,,,,,,,,,,,,,,,,,,,,,,,,0,0,0,0,0,25,25,10,,,,695.9050275,None,694.7216718999998,695.9216539999998,a,1,0.45324170000003505,顽强,k,1,0.8270320000001448,zyt,f,19,2024_Apr_12_1457,mian,2021.2.3,59.925057722904214,
,,,,,,1,1,pic/flanker6.png,pic/flanker4.png,s,k,pic/AffRest1.png,,,,,,,,,,,,,,,,,,,,,,,,,0,0,0,0,0,26,26,54,,,,699.2384289000001,None,698.0550787000002,699.2550631000004,s,1,0.5743517999999312,诚恳,k,1,0.6529491000001144,zyt,f,19,2024_Apr_12_1457,mian,2021.2.3,59.925057722904214,
,,,,,,0,0,pic/flanker5.png,pic/flanker1.png,s,l,pic/AffRest1.png,,,,,,,,,,,,,,,,,,,,,,,,,0,0,0,0,0,27,27,35,,,,702.4382974999999,None,701.2549331999999,702.4549342999999,s,1,0.4293389999993451,排斥,l,1,0.9143635999998878,zyt,f,19,2024_Apr_12_1457,mian,2021.2.3,59.925057722904214,
,,,,,,1,1,pic/flanker6.png,pic/flanker4.png,s,k,pic/AffRest1.png,,,,,,,,,,,,,,,,,,,,,,,,,0,0,0,0,0,28,28,78,,,,705.7217152000003,None,704.5383045999997,705.7382444000004,s,1,0.8374762000003102,振作,k,1,0.7312176000004911,zyt,f,19,2024_Apr_12_1457,mian,2021.2.3,59.925057722904214,
,,,,,,1,0,pic/flanker6.png,pic/flanker4.png,s,l,pic/AffRest1.png,,,,,,,,,,,,,,,,,,,,,,,,,0,0,0,0,0,29,29,29,,,,709.2718797999996,None,708.088385,709.2883924999996,s,1,0.7405458000002909,争吵,l,1,1.2997833999997965,zyt,f,19,2024_Apr_12_1457,mian,2021.2.3,59.925057722904214,
,,,,,,0,1,pic/flanker6.png,pic/flanker2.png,a,k,pic/AffRest1.png,,,,,,,,,,,,,,,,,,,,,,,,,0,0,0,0,0,30,30,2,,,,713.1551164000002,None,711.9716717000001,713.1711279000001,a,1,0.41955379999944853,公平,k,1,0.9238238999996611,zyt,f,19,2024_Apr_12_1457,mian,2021.2.3,59.925057722904214,
,,,,,,0,1,pic/flanker5.png,pic/flanker1.png,s,k,pic/AffRest1.png,,,,,,,,,,,,,,,,,,,,,,,,,0,0,0,0,0,31,31,24,,,,716.6384509,None,715.4551399000002,716.6550636000002,s,1,0.5660871000000043,羡慕,k,1,1.0485444000005373,zyt,f,19,2024_Apr_12_1457,mian,2021.2.3,59.925057722904214,
,,,,,,1,0,pic/flanker5.png,pic/flanker3.png,a,l,pic/AffRest1.png,,,,,,,,,,,,,,,,,,,,,,,,,0,0,0,0,0,32,32,71,,,,720.1710647999998,None,718.9882478999998,720.1876881999997,a,1,0.5522738999998182,烦恼,l,1,0.8170115000002625,zyt,f,19,2024_Apr_12_1457,mian,2021.2.3,59.925057722904214,
,,,,,,0,1,pic/flanker6.png,pic/flanker2.png,a,k,pic/AffRest1.png,,,,,,,,,,,,,,,,,,,,,,,,,0,0,0,0,0,33,33,34,,,,723.4885218999998,None,722.3047970999996,723.5051753999996,a,1,0.5113627000000633,典雅,k,1,0.6596117999997659,zyt,f,19,2024_Apr_12_1457,mian,2021.2.3,59.925057722904214,
,,,,,,0,1,pic/flanker6.png,pic/flanker2.png,a,k,pic/AffRest1.png,,,,,,,,,,,,,,,,,,,,,,,,,0,0,0,0,0,34,34,66,,,,726.7548433000002,None,725.5715905999996,726.7715662999999,a,1,0.4107414999998582,豪放,k,1,1.0028387000002112,zyt,f,19,2024_Apr_12_1457,mian,2021.2.3,59.925057722904214,
,,,,,,1,0,pic/flanker6.png,pic/flanker4.png,s,l,pic/AffRest1.png,,,,,,,,,,,,,,,,,,,,,,,,,0,0,0,0,0,35,35,37,,,,730.2043002,None,729.0209823000005,730.2210689000003,s,1,0.6062574999996286,失意,l,1,0.8199791000006371,zyt,f,19,2024_Apr_12_1457,mian,2021.2.3,59.925057722904214,
,,,,,,0,1,pic/flanker6.png,pic/flanker2.png,a,k,pic/AffRest1.png,,,,,,,,,,,,,,,,,,,,,,,,,0,0,0,0,0,36,36,50,,,,733.6210285999996,None,732.4381352,733.6382959000002,a,1,0.3675038000001223,雄厚,k,1,1.461876200000006,zyt,f,19,2024_Apr_12_1457,mian,2021.2.3,59.925057722904214,
,,,,,,0,1,pic/flanker5.png,pic/flanker1.png,s,k,pic/AffRest1.png,,,,,,,,,,,,,,,,,,,,,,,,,0,0,0,0,0,37,37,40,,,,737.3377302999997,None,736.1550479999996,737.3544697999996,s,1,0.41030159999991156,如愿,k,1,0.8362768000006326,zyt,f,19,2024_Apr_12_1457,mian,2021.2.3,59.925057722904214,
,,,,,,1,0,pic/flanker5.png,pic/flanker3.png,a,l,pic/AffRest1.png,,,,,,,,,,,,,,,,,,,,,,,,,0,0,0,0,0,38,38,23,,,,740.6050717999997,None,739.4217558,740.6209446000003,a,1,0.5193957999999839,别扭,l,1,0.7635140000002139,zyt,f,19,2024_Apr_12_1457,mian,2021.2.3,59.925057722904214,
,,,,,,0,0,pic/flanker6.png,pic/flanker2.png,a,l,pic/AffRest1.png,,,,,,,,,,,,,,,,,,,,,,,,,0,0,0,0,0,39,39,33,,,,743.7383081999997,None,742.5551298999999,743.7550735000004,a,1,0.5478199999997742,丢失,l,1,0.8870348999998896,zyt,f,19,2024_Apr_12_1457,mian,2021.2.3,59.925057722904214,
,,,,,,1,1,pic/flanker5.png,pic/flanker3.png,a,k,pic/AffRest1.png,,,,,,,,,,,,,,,,,,,,,,,,,0,0,0,0,0,40,40,36,,,,747.2049183999998,None,746.0217420999998,747.2216079,a,1,0.5763484999997672,鲜艳,k,1,0.7353353999997125,zyt,f,19,2024_Apr_12_1457,mian,2021.2.3,59.925057722904214,
,,,,,,0,0,pic/flanker5.png,pic/flanker1.png,s,l,pic/AffRest1.png,,,,,,,,,,,,,,,,,,,,,,,,,0,0,0,0,0,41,41,43,,,,750.5552127000001,None,749.3715524999998,750.5716708,s,1,0.5680844999997134,杂乱,l,1,0.78807500000039,zyt,f,19,2024_Apr_12_1457,mian,2021.2.3,59.925057722904214,
,,,,,,1,1,pic/flanker5.png,pic/flanker3.png,a,k,pic/AffRest1.png,,,,,,,,,,,,,,,,,,,,,,,,,0,0,0,0,0,42,42,12,,,,753.8051027000001,None,752.6209983999997,753.8210758000005,a,1,0.49854599999980564,清秀,k,1,0.7634492999995928,zyt,f,19,2024_Apr_12_1457,mian,2021.2.3,59.925057722904214,
,,,,,,0,0,pic/flanker5.png,pic/flanker1.png,s,l,pic/AffRest1.png,,,,,,,,,,,,,,,,,,,,,,,,,0,0,0,0,0,43,43,27,,,,757.1218893000005,None,755.9385390999996,757.1386071999996,s,1,0.5325038999999379,处罚,l,1,0.7941284999997151,zyt,f,19,2024_Apr_12_1457,mian,2021.2.3,59.925057722904214,
,,,,,,1,0,pic/flanker5.png,pic/flanker3.png,a,l,pic/AffRest1.png,,,,,,,,,,,,,,,,,,,,,,,,,0,0,0,0,0,44,44,63,,,,760.4715910000004,None,759.2885673000001,760.4884697999996,a,1,0.491178299999774,撒谎,l,1,0.7404929000003904,zyt,f,19,2024_Apr_12_1457,mian,2021.2.3,59.925057722904214,
,,,,,,0,0,pic/flanker5.png,pic/flanker1.png,s,l,pic/AffRest1.png,,,,,,,,,,,,,,,,,,,,,,,,,0,0,0,0,0,45,45,67,,,,763.6384754000001,None,762.4547498000002,763.6551196,s,1,0.49018489999980375,逃避,l,1,0.7564602000002196,zyt,f,19,2024_Apr_12_1457,mian,2021.2.3,59.925057722904214,
,,,,,,0,1,pic/flanker5.png,pic/flanker1.png,s,k,pic/AffRest1.png,,,,,,,,,,,,,,,,,,,,,,,,,0,0,0,0,0,46,46,0,,,,766.8883922000005,None,765.7051106999998,766.9050911000004,s,1,1.3592368999998143,敬佩,k,1,0.7411701000000903,zyt,f,19,2024_Apr_12_1457,mian,2021.2.3,59.925057722904214,
,,,,,,1,1,pic/flanker5.png,pic/flanker3.png,a,k,pic/AffRest1.png,,,,,,,,,,,,,,,,,,,,,,,,,0,0,0,0,0,47,47,28,,,,771.0385908999997,None,769.8551367,771.0552315000004,a,1,0.5375690999999279,富丽,k,1,0.895894700000099,zyt,f,19,2024_Apr_12_1457,mian,2021.2.3,59.925057722904214,
,,,,,,1,0,pic/flanker5.png,pic/flanker3.png,a,l,pic/AffRest1.png,,,,,,,,,,,,,,,,,,,,,,,,,0,0,0,0,0,48,48,31,,,,774.3883816999996,None,773.2052669000004,774.4051085000001,a,1,0.7892275000003792,懒惰,l,1,0.6675715999999738,zyt,f,19,2024_Apr_12_1457,mian,2021.2.3,59.925057722904214,
,,,,,,0,0,pic/flanker5.png,pic/flanker1.png,s,l,pic/AffRest1.png,,,,,,,,,,,,,,,,,,,,,,,,,0,0,0,0,0,49,49,51,,,,777.6883782000004,None,776.5049153,777.7050402000004,s,1,0.7607747999991261,落后,l,1,0.8583632999998372,zyt,f,19,2024_Apr_12_1457,mian,2021.2.3,59.925057722904214,
,,,,,,0,1,pic/flanker5.png,pic/flanker1.png,s,k,pic/AffRest1.png,,,,,,,,,,,,,,,,,,,,,,,,,0,0,0,0,0,50,50,72,,,,781.2385051000001,None,780.0551605999999,781.2551057999999,s,1,0.9223902000003363,充裕,k,1,0.9456513000004634,zyt,f,19,2024_Apr_12_1457,mian,2021.2.3,59.925057722904214,
,,,,,,0,1,pic/flanker5.png,pic/flanker1.png,s,k,pic/AffRest1.png,,,,,,,,,,,,,,,,,,,,,,,,,0,0,0,0,0,51,51,56,,,,784.9385347999996,None,783.7550678999996,784.9551970000002,s,1,0.4512853999995059,圣洁,k,1,0.677022300000317,zyt,f,19,2024_Apr_12_1457,mian,2021.2.3,59.925057722904214,
,,,,,,1,1,pic/flanker5.png,pic/flanker3.png,a,k,pic/AffRest1.png,,,,,,,,,,,,,,,,,,,,,,,,,0,0,0,0,0,52,52,60,,,,787.9720082000003,None,786.7882831999996,787.9885566000003,a,1,0.5588092999996661,享受,l,0,0.9889161000000968,zyt,f,19,2024_Apr_12_1457,mian,2021.2.3,59.925057722904214,
,,,,,,1,0,pic/flanker5.png,pic/flanker3.png,a,l,pic/AffRest1.png,,,,,,,,,,,,,,,,,,,,,,,,,0,0,0,0,0,53,53,7,,,,791.5383346999997,None,790.3550703999999,791.5551865999996,a,1,0.7648567000005642,嘲笑,l,1,0.7759132000001046,zyt,f,19,2024_Apr_12_1457,mian,2021.2.3,59.925057722904214,
,,,,,,1,1,pic/flanker6.png,pic/flanker4.png,s,k,pic/AffRest1.png,,,,,,,,,,,,,,,,,,,,,,,,,0,0,0,0,0,54,54,14,,,,795.0884941000004,None,793.9049842000004,795.1051201,s,1,0.6097893999994994,优雅,k,1,0.7092943999996351,zyt,f,19,2024_Apr_12_1457,mian,2021.2.3,59.925057722904214,
,,,,,,0,0,pic/flanker6.png,pic/flanker2.png,a,l,pic/AffRest1.png,,,,,,,,,,,,,,,,,,,,,,,,,0,0,0,0,0,55,55,41,,,,798.3050128000004,None,797.1218074999997,798.3216619000004,a,1,0.8361875000000509,堵塞,l,1,0.7417523000003712,zyt,f,19,2024_Apr_12_1457,mian,2021.2.3,59.925057722904214,
,,,,,,0,0,pic/flanker5.png,pic/flanker1.png,s,l,pic/AffRest1.png,,,,,,,,,,,,,,,,,,,,,,,,,0,0,0,0,0,56,56,59,,,,801.7717579999999,None,800.5884506000002,801.7883757999998,s,1,0.6956452000003992,轻率,l,1,1.480725400000665,zyt,f,19,2024_Apr_12_1457,mian,2021.2.3,59.925057722904214,
,,,,,,1,0,pic/flanker6.png,pic/flanker4.png,s,l,pic/AffRest1.png,,,,,,,,,,,,,,,,,,,,,,,,,0,0,0,0,0,57,57,53,,,,805.8880578999997,None,804.7050109000002,805.9053006000004,s,1,0.61988939999992,穷苦,l,1,0.7483469999997396,zyt,f,19,2024_Apr_12_1457,mian,2021.2.3,59.925057722904214,
,,,,,,1,0,pic/flanker5.png,pic/flanker3.png,a,l,pic/AffRest1.png,,,,,,,,,,,,,,,,,,,,,,,,,0,0,0,0,0,58,58,47,,,,809.1216809999996,None,807.9385043000002,809.1386120999996,a,1,0.49777589999939664,胡涂,l,1,0.7177329999994981,zyt,f,19,2024_Apr_12_1457,mian,2021.2.3,59.925057722904214,
,,,,,,0,1,pic/flanker6.png,pic/flanker2.png,a,k,pic/AffRest1.png,,,,,,,,,,,,,,,,,,,,,,,,,0,0,0,0,0,59,59,58,,,,812.3551039000004,None,811.1716845000001,812.3717913,a,1,0.41910230000030424,热切,k,1,0.6901656000000003,zyt,f,19,2024_Apr_12_1457,mian,2021.2.3,59.925057722904214,
,,,,,,1,1,pic/flanker5.png,pic/flanker3.png,a,k,pic/AffRest1.png,,,,,,,,,,,,,,,,,,,,,,,,,0,0,0,0,0,60,60,4,,,,815.3551103999998,None,814.1717914999999,815.371854,a,1,1.179260300000351,畅销,k,1,1.043615999999929,zyt,f,19,2024_Apr_12_1457,mian,2021.2.3,59.925057722904214,
,,,,,,1,0,pic/flanker6.png,pic/flanker4.png,s,l,pic/AffRest1.png,,,,,,,,,,,,,,,,,,,,,,,,,0,0,0,0,0,61,61,61,,,,819.6051324999999,None,818.4217474999996,819.6216697,s,1,0.8181831000001694,怀疑,l,1,1.03463980000015,zyt,f,19,2024_Apr_12_1457,mian,2021.2.3,59.925057722904214,
,,,,,,1,1,pic/flanker5.png,pic/flanker3.png,a,k,pic/AffRest1.png,,,,,,,,,,,,,,,,,,,,,,,,,0,0,0,0,0,62,62,20,,,,823.3884957,None,822.2049893000003,823.4051750999997,a,1,0.5114537000008568,秀丽,k,1,0.782169299999623,zyt,f,19,2024_Apr_12_1457,mian,2021.2.3,59.925057722904214,
,,,,,,0,0,pic/flanker6.png,pic/flanker2.png,a,l,pic/AffRest1.png,,,,,,,,,,,,,,,,,,,,,,,,,0,0,0,0,0,63,63,1,,,,826.5216922999998,None,825.3385094000005,826.5383844999997,a,1,0.5102789000002304,自卑,l,1,0.7262480999997933,zyt,f,19,2024_Apr_12_1457,mian,2021.2.3,59.925057722904214,
,,,,,,1,1,pic/flanker6.png,pic/flanker4.png,s,k,pic/AffRest1.png,,,,,,,,,,,,,,,,,,,,,,,,,0,0,0,0,0,64,64,62,,,,829.7050994000001,None,828.5213986999997,829.7217516000001,s,1,0.5479270000005272,有利,k,1,1.066419799999494,zyt,f,19,2024_Apr_12_1457,mian,2021.2.3,59.925057722904214,
,,,,,,1,0,pic/flanker5.png,pic/flanker3.png,a,l,pic/AffRest1.png,,,,,,,,,,,,,,,,,,,,,,,,,0,0,0,0,0,65,65,39,,,,833.2383866999999,None,832.0550568999997,833.2552354,a,1,0.502641200000653,心慌,l,1,0.6990455999994083,zyt,f,19,2024_Apr_12_1457,mian,2021.2.3,59.925057722904214,
,,,,,,0,0,pic/flanker5.png,pic/flanker1.png,s,l,pic/AffRest1.png,,,,,,,,,,,,,,,,,,,,,,,,,0,0,0,0,0,66,66,3,,,,836.4717842,None,835.2884353,836.4883805,s,1,0.543686300000445,浪费,l,1,1.0987603000003219,zyt,f,19,2024_Apr_12_1457,mian,2021.2.3,59.925057722904214,
,,,,,,1,0,pic/flanker6.png,pic/flanker4.png,s,l,pic/AffRest1.png,,,,,,,,,,,,,,,,,,,,,,,,,0,0,0,0,0,67,67,21,,,,839.9385049000002,None,838.7550246999999,839.9551140000003,s,1,0.7687897999994675,禁止,l,1,0.7422776000003068,zyt,f,19,2024_Apr_12_1457,mian,2021.2.3,59.925057722904214,
,,,,,,1,1,pic/flanker6.png,pic/flanker4.png,s,k,pic/AffRest1.png,,,,,,,,,,,,,,,,,,,,,,,,,0,0,0,0,0,68,68,22,,,,843.3379764000001,None,842.1550059000001,843.3546465,s,1,0.7513184999997975,永恒,k,1,0.8087372999998479,zyt,f,19,2024_Apr_12_1457,mian,2021.2.3,59.925057722904214,
,,,,,,1,0,pic/flanker6.png,pic/flanker4.png,s,l,pic/AffRest1.png,,,,,,,,,,,,,,,,,,,,,,,,,0,0,0,0,0,69,69,77,,,,846.7716560999997,None,845.5884262,846.7883628999998,s,1,0.676072799999929,假冒,l,1,0.9010925000002317,zyt,f,19,2024_Apr_12_1457,mian,2021.2.3,59.925057722904214,
,,,,,,0,0,pic/flanker6.png,pic/flanker2.png,a,l,pic/AffRest1.png,,,,,,,,,,,,,,,,,,,,,,,,,0,0,0,0,0,70,70,57,,,,850.2886717000001,None,849.1050107000001,850.3053282999999,a,1,0.47667529999944236,忧虑,l,1,0.802828299999419,zyt,f,19,2024_Apr_12_1457,mian,2021.2.3,59.925057722904214,
,,,,,,0,1,pic/flanker5.png,pic/flanker1.png,s,k,pic/AffRest1.png,,,,,,,,,,,,,,,,,,,,,,,,,0,0,0,0,0,71,71,16,,,,853.6049248999998,None,852.4213368000001,853.6217561000003,s,1,0.4567092999996021,留恋,k,1,1.4265392000006614,zyt,f,19,2024_Apr_12_1457,mian,2021.2.3,59.925057722904214,
,,,,,,1,1,pic/flanker5.png,pic/flanker3.png,a,k,pic/AffRest1.png,,,,,,,,,,,,,,,,,,,,,,,,,0,0,0,0,0,72,72,68,,,,857.4217516999997,None,856.2383044999997,857.4384554999997,a,1,0.5225585999996838,卓越,k,1,0.7244211999995969,zyt,f,19,2024_Apr_12_1457,mian,2021.2.3,59.925057722904214,
,,,,,,1,0,pic/flanker6.png,pic/flanker4.png,s,l,pic/AffRest1.png,,,,,,,,,,,,,,,,,,,,,,,,,0,0,0,0,0,73,73,13,,,,860.7047677999999,None,859.5212410000004,860.7215266000003,s,1,0.5414684999996098,孤单,l,1,1.2092218999996476,zyt,f,19,2024_Apr_12_1457,mian,2021.2.3,59.925057722904214,
,,,,,,0,0,pic/flanker5.png,pic/flanker1.png,s,l,pic/AffRest1.png,,,,,,,,,,,,,,,,,,,,,,,,,0,0,0,0,0,74,74,11,,,,864.3384939999996,None,863.1554219999998,864.3552018999999,s,1,0.5169191000004503,缺乏,l,1,0.8026437999997142,zyt,f,19,2024_Apr_12_1457,mian,2021.2.3,59.925057722904214,
,,,,,,0,1,pic/flanker5.png,pic/flanker1.png,s,k,pic/AffRest1.png,,,,,,,,,,,,,,,,,,,,,,,,,0,0,0,0,0,75,75,48,,,,867.6718409000005,None,866.4885633000004,867.6884991999996,s,1,0.48647950000031415,珍藏,k,1,0.7066830999992817,zyt,f,19,2024_Apr_12_1457,mian,2021.2.3,59.925057722904214,
,,,,,,0,1,pic/flanker5.png,pic/flanker1.png,s,k,pic/AffRest1.png,,,,,,,,,,,,,,,,,,,,,,,,,0,0,0,0,0,76,76,8,,,,870.7050626,None,869.5216104000001,870.7218881999997,s,1,0.44322029999966617,奉献,k,1,0.9501452999993489,zyt,f,19,2024_Apr_12_1457,mian,2021.2.3,59.925057722904214,
,,,,,,1,0,pic/flanker5.png,pic/flanker3.png,a,l,pic/AffRest1.png,,,,,,,,,,,,,,,,,,,,,,,,,0,0,0,0,0,77,77,55,,,,873.9216044000004,None,872.7378245,873.9380970000002,a,1,0.6378561999999874,冷笑,l,1,1.2275638000000981,zyt,f,19,2024_Apr_12_1457,mian,2021.2.3,59.925057722904214,
,,,,,,0,0,pic/flanker6.png,pic/flanker2.png,a,l,pic/AffRest1.png,,,,,,,,,,,,,,,,,,,,,,,,,0,0,0,0,0,78,78,17,,,,877.6712933999997,None,876.4883104,877.6877937999998,a,1,0.5201304000001983,焦躁,l,1,0.7275210000007064,zyt,f,19,2024_Apr_12_1457,mian,2021.2.3,59.925057722904214,
,,,,,,1,0,pic/flanker5.png,pic/flanker3.png,a,l,pic/AffRest1.png,,,,,,,,,,,,,,,,,,,,,,,,,0,0,0,0,0,79,79,79,,,,880.9882233999997,None,879.8046655999997,881.0050078000004,a,1,0.5826550000001589,慌忙,l,1,1.1212328999999954,zyt,f,19,2024_Apr_12_1457,mian,2021.2.3,59.925057722904214,
,,,,,,,,,,,,pic/AffRest1.png,,,,,,,,,,,,,,,,,,,,,,,,,0,0,0,0,,,,,,,,,,,,,,,,,,,zyt,f,19,2024_Apr_12_1457,mian,2021.2.3,59.925057722904214,
,,,,,,1,0,pic/flanker6.png,pic/flanker4.png,s,l,pic/AffRest2.png,,,,,,,,,,,,,,,,,,,,,,,,,0,1,1,1,0,0,0,45,,,,895.8718322000004,None,894.6728702999999,895.8718322000004,s,1,0.608632999999827,嘲笑,l,1,0.7240388000000166,zyt,f,19,2024_Apr_12_1457,mian,2021.2.3,59.925057722904214,
,,,,,,0,1,pic/flanker6.png,pic/flanker2.png,a,k,pic/AffRest2.png,,,,,,,,,,,,,,,,,,,,,,,,,0,1,1,1,0,1,1,66,,,,899.2052229000001,None,898.0220307,899.2217891999999,a,1,0.4806500999993659,充裕,k,1,0.7715332000007038,zyt,f,19,2024_Apr_12_1457,mian,2021.2.3,59.925057722904214,
,,,,,,0,1,pic/flanker5.png,pic/flanker1.png,s,k,pic/AffRest2.png,,,,,,,,,,,,,,,,,,,,,,,,,0,1,1,1,0,2,2,0,,,,902.4884595000003,None,901.3051515999996,902.5050941999998,s,1,0.40559229999962554,俊秀,k,1,0.6507600000004459,zyt,f,19,2024_Apr_12_1457,mian,2021.2.3,59.925057722904214,
,,,,,,0,0,pic/flanker5.png,pic/flanker1.png,s,l,pic/AffRest2.png,,,,,,,,,,,,,,,,,,,,,,,,,0,1,1,1,0,3,3,11,,,,905.4720767999997,None,904.2885073999996,905.4887742999999,s,1,0.5980969000002005,杂乱,l,1,0.5949058000005607,zyt,f,19,2024_Apr_12_1457,mian,2021.2.3,59.925057722904214,
,,,,,,1,0,pic/flanker6.png,pic/flanker4.png,s,l,pic/AffRest2.png,,,,,,,,,,,,,,,,,,,,,,,,,0,1,1,1,0,4,4,21,,,,908.7383006999999,None,907.5543108000002,908.7549944000002,s,1,0.6168104000007588,缺乏,l,1,0.6480547999999544,zyt,f,19,2024_Apr_12_1457,mian,2021.2.3,59.925057722904214,
,,,,,,1,1,pic/flanker5.png,pic/flanker3.png,a,k,pic/AffRest2.png,,,,,,,,,,,,,,,,,,,,,,,,,0,1,1,1,0,5,5,76,,,,912.005177,None,910.8216739999998,912.0219624000001,a,1,0.5391855000007126,珍藏,k,1,0.6576359000000593,zyt,f,19,2024_Apr_12_1457,mian,2021.2.3,59.925057722904214,
,,,,,,0,0,pic/flanker6.png,pic/flanker2.png,a,l,pic/AffRest2.png,,,,,,,,,,,,,,,,,,,,,,,,,0,1,1,1,0,6,6,65,,,,915.1884646999997,None,914.0047903000004,915.2052615000002,a,1,0.3929284000005282,忧虑,l,1,1.0928193999998257,zyt,f,19,2024_Apr_12_1457,mian,2021.2.3,59.925057722904214,
,,,,,,0,0,pic/flanker6.png,pic/flanker2.png,a,l,pic/AffRest2.png,,,,,,,,,,,,,,,,,,,,,,,,,0,1,1,1,0,7,7,25,,,,918.7052333000001,None,917.5218312999996,918.7218247999999,a,1,0.46541329999945447,慌忙,l,1,0.727187600000434,zyt,f,19,2024_Apr_12_1457,mian,2021.2.3,59.925057722904214,
,,,,,,1,0,pic/flanker6.png,pic/flanker4.png,s,l,pic/AffRest2.png,,,,,,,,,,,,,,,,,,,,,,,,,0,1,1,1,0,8,8,13,,,,921.9385411000003,None,920.7551190000004,921.9552439999998,s,1,0.9104645000006713,郁闷,l,1,1.0463078000002497,zyt,f,19,2024_Apr_12_1457,mian,2021.2.3,59.925057722904214,
,,,,,,0,1,pic/flanker6.png,pic/flanker2.png,a,k,pic/AffRest2.png,,,,,,,,,,,,,,,,,,,,,,,,,0,1,1,1,0,9,9,42,,,,925.821801,None,924.6385615999998,925.8386587000005,a,1,0.3944624000005206,有利,k,1,0.8253328999999212,zyt,f,19,2024_Apr_12_1457,mian,2021.2.3,59.925057722904214,
,,,,,,0,0,pic/flanker5.png,pic/flanker1.png,s,l,pic/AffRest2.png,,,,,,,,,,,,,,,,,,,,,,,,,0,1,1,1,0,10,10,3,,,,928.9218515000002,None,927.7385206999998,928.9385468999999,s,1,0.4458925000008094,自卑,l,1,1.2700324999996155,zyt,f,19,2024_Apr_12_1457,mian,2021.2.3,59.925057722904214,
,,,,,,0,0,pic/flanker6.png,pic/flanker2.png,a,l,pic/AffRest2.png,,,,,,,,,,,,,,,,,,,,,,,,,0,1,1,1,0,11,11,9,,,,932.5220688999998,None,931.3378777999997,932.5387804000002,a,1,0.44386020000001736,厌恶,l,1,1.0537105000003066,zyt,f,19,2024_Apr_12_1457,mian,2021.2.3,59.925057722904214,
,,,,,,0,0,pic/flanker5.png,pic/flanker1.png,s,l,pic/AffRest2.png,,,,,,,,,,,,,,,,,,,,,,,,,0,1,1,1,0,12,12,67,,,,935.8719112999997,None,934.6887018999996,935.8878507,s,1,0.6013732999999775,烦恼,l,1,0.690815200000543,zyt,f,19,2024_Apr_12_1457,mian,2021.2.3,59.925057722904214,
,,,,,,1,1,pic/flanker6.png,pic/flanker4.png,s,k,pic/AffRest2.png,,,,,,,,,,,,,,,,,,,,,,,,,0,1,1,1,0,13,13,78,,,,939.0552666000003,None,937.8719043000001,939.0719500000005,a,0,0.3499653999997463,如愿,k,1,1.3157588999993095,zyt,f,19,2024_Apr_12_1457,mian,2021.2.3,59.925057722904214,
,,,,,,1,0,pic/flanker6.png,pic/flanker4.png,s,l,pic/AffRest2.png,,,,,,,,,,,,,,,,,,,,,,,,,0,1,1,1,0,14,14,5,,,,942.7053809999998,None,941.5217024000003,942.7217938000003,s,1,0.674170100000083,落后,l,1,0.7110623999997188,zyt,f,19,2024_Apr_12_1457,mian,2021.2.3,59.925057722904214,
,,,,,,1,0,pic/flanker5.png,pic/flanker3.png,a,l,pic/AffRest2.png,,,,,,,,,,,,,,,,,,,,,,,,,0,1,1,1,0,15,15,23,,,,946.1053803000004,None,944.9219623999998,946.1220145999996,a,1,0.5787982000001648,轻率,l,1,1.2407468999999764,zyt,f,19,2024_Apr_12_1457,mian,2021.2.3,59.925057722904214,
,,,,,,1,0,pic/flanker6.png,pic/flanker4.png,s,l,pic/AffRest2.png,,,,,,,,,,,,,,,,,,,,,,,,,0,1,1,1,0,16,16,61,,,,949.9053843000002,None,948.7219431000003,949.9220601999996,s,1,0.5605677000003197,失意,l,1,0.8622082000001683,zyt,f,19,2024_Apr_12_1457,mian,2021.2.3,59.925057722904214,
,,,,,,0,0,pic/flanker6.png,pic/flanker2.png,a,l,pic/AffRest2.png,,,,,,,,,,,,,,,,,,,,,,,,,0,1,1,1,0,17,17,1,,,,953.3052262000001,None,952.1218956000002,953.3218569999999,a,1,0.42673130000002857,冷笑,l,1,0.6615372000005664,zyt,f,19,2024_Apr_12_1457,mian,2021.2.3,59.925057722904214,
,,,,,,1,0,pic/flanker5.png,pic/flanker3.png,a,l,pic/AffRest2.png,,,,,,,,,,,,,,,,,,,,,,,,,0,1,1,1,0,18,18,79,,,,956.3220113999996,None,955.1388195,956.3386283,a,1,0.7718971000003876,沮丧,l,1,0.7886828000000605,zyt,f,19,2024_Apr_12_1457,mian,2021.2.3,59.925057722904214,
,,,,,,0,0,pic/flanker5.png,pic/flanker1.png,s,l,pic/AffRest2.png,,,,,,,,,,,,,,,,,,,,,,,,,0,1,1,1,0,19,19,51,,,,959.8219704000003,None,958.6389257000001,959.8385836999996,s,1,0.5112841999998636,黑暗,l,1,0.7050074999997378,zyt,f,19,2024_Apr_12_1457,mian,2021.2.3,59.925057722904214,
,,,,,,1,1,pic/flanker6.png,pic/flanker4.png,s,k,pic/AffRest2.png,,,,,,,,,,,,,,,,,,,,,,,,,0,1,1,1,0,20,20,38,,,,963.0719151000003,None,961.8885873999998,963.0886252,s,1,0.6892188000001624,精致,k,1,0.7984588999997868,zyt,f,19,2024_Apr_12_1457,mian,2021.2.3,59.925057722904214,
,,,,,,1,0,pic/flanker5.png,pic/flanker3.png,a,l,pic/AffRest2.png,,,,,,,,,,,,,,,,,,,,,,,,,0,1,1,1,0,21,21,39,,,,966.4387772,None,965.2552753999998,966.4555346999996,a,1,0.7892166999999972,穷苦,l,1,0.838295300000027,zyt,f,19,2024_Apr_12_1457,mian,2021.2.3,59.925057722904214,
,,,,,,1,1,pic/flanker6.png,pic/flanker4.png,s,k,pic/AffRest2.png,,,,,,,,,,,,,,,,,,,,,,,,,0,1,1,1,0,22,22,70,,,,970.0887002999998,None,968.9054431000004,970.1053657000002,s,1,0.5736903999995775,前进,k,1,1.2397145000004457,zyt,f,19,2024_Apr_12_1457,mian,2021.2.3,59.925057722904214,
,,,,,,0,1,pic/flanker5.png,pic/flanker1.png,s,k,pic/AffRest2.png,,,,,,,,,,,,,,,,,,,,,,,,,0,1,1,1,0,23,23,40,,,,973.8552928999998,None,972.6720882,973.8718050999996,s,1,0.5146252999993521,吉祥,k,1,0.7593836999994892,zyt,f,19,2024_Apr_12_1457,mian,2021.2.3,59.925057722904214,
,,,,,,1,1,pic/flanker5.png,pic/flanker3.png,a,k,pic/AffRest2.png,,,,,,,,,,,,,,,,,,,,,,,,,0,1,1,1,0,24,24,28,,,,977.0553061999999,None,975.8719314999998,977.0721129000003,a,1,0.5116300999998202,诚恳,k,1,0.710052800000085,zyt,f,19,2024_Apr_12_1457,mian,2021.2.3,59.925057722904214,
,,,,,,1,1,pic/flanker5.png,pic/flanker3.png,a,k,pic/AffRest2.png,,,,,,,,,,,,,,,,,,,,,,,,,0,1,1,1,0,25,25,36,,,,980.2053022,None,979.0219962000001,980.2219083,a,1,0.7426549000001614,顽强,k,1,0.6490223999999216,zyt,f,19,2024_Apr_12_1457,mian,2021.2.3,59.925057722904214,
,,,,,,0,0,pic/flanker6.png,pic/flanker2.png,a,l,pic/AffRest2.png,,,,,,,,,,,,,,,,,,,,,,,,,0,1,1,1,0,26,26,17,,,,983.5220562000004,None,982.3386301,983.5387232000003,a,1,0.3621442000003299,罚款,l,1,0.8173014000003604,zyt,f,19,2024_Apr_12_1457,mian,2021.2.3,59.925057722904214,
,,,,,,1,1,pic/flanker5.png,pic/flanker3.png,a,k,pic/AffRest2.png,,,,,,,,,,,,,,,,,,,,,,,,,0,1,1,1,0,27,27,52,,,,986.7219852999997,None,985.538622,986.7385585000002,a,1,0.5260308000006262,优雅,k,1,0.6421217999995861,zyt,f,19,2024_Apr_12_1457,mian,2021.2.3,59.925057722904214,
,,,,,,1,1,pic/flanker5.png,pic/flanker3.png,a,k,pic/AffRest2.png,,,,,,,,,,,,,,,,,,,,,,,,,0,1,1,1,0,28,28,20,,,,989.7219127999997,None,988.5387098000001,989.7386618,a,1,0.49999019999995653,鲜艳,k,1,0.7877802000002703,zyt,f,19,2024_Apr_12_1457,mian,2021.2.3,59.925057722904214,
,,,,,,1,0,pic/flanker5.png,pic/flanker3.png,a,l,pic/AffRest2.png,,,,,,,,,,,,,,,,,,,,,,,,,0,1,1,1,0,29,29,71,,,,992.9388062999997,None,991.7555481999998,992.9554822999999,a,1,0.5658114000007117,损害,l,1,0.6190944999998464,zyt,f,19,2024_Apr_12_1457,mian,2021.2.3,59.925057722904214,
,,,,,,0,1,pic/flanker5.png,pic/flanker1.png,s,k,pic/AffRest2.png,,,,,,,,,,,,,,,,,,,,,,,,,0,1,1,1,0,30,30,8,,,,996.0553532000004,None,994.8720825,996.0719990999996,s,1,0.5726689999992232,公平,k,1,0.7886507000002894,zyt,f,19,2024_Apr_12_1457,mian,2021.2.3,59.925057722904214,
,,,,,,1,0,pic/flanker5.png,pic/flanker3.png,a,l,pic/AffRest2.png,,,,,,,,,,,,,,,,,,,,,,,,,0,1,1,1,0,31,31,31,,,,999.3052495000002,None,998.1219266999997,999.3220153000002,a,1,0.5926507000003767,孤单,l,1,1.2331735999996454,zyt,f,19,2024_Apr_12_1457,mian,2021.2.3,59.925057722904214,
,,,,,,0,1,pic/flanker6.png,pic/flanker2.png,a,k,pic/AffRest2.png,,,,,,,,,,,,,,,,,,,,,,,,,0,1,1,1,0,32,32,2,,,,1002.9553599999999,None,1001.7719391999999,1002.9720312,a,1,0.3916814999993221,正直,k,1,0.7118123000000196,zyt,f,19,2024_Apr_12_1457,mian,2021.2.3,59.925057722904214,
,,,,,,1,0,pic/flanker5.png,pic/flanker3.png,a,l,pic/AffRest2.png,,,,,,,,,,,,,,,,,,,,,,,,,0,1,1,1,0,33,33,47,,,,1005.9387112000004,None,1004.7553154999996,1005.9553591000004,a,1,0.514196200000697,怀疑,l,1,0.6562724999994316,zyt,f,19,2024_Apr_12_1457,mian,2021.2.3,59.925057722904214,
,,,,,,0,1,pic/flanker6.png,pic/flanker2.png,a,k,pic/AffRest2.png,,,,,,,,,,,,,,,,,,,,,,,,,0,1,1,1,0,34,34,50,,,,1009.1052982000001,None,1007.9219536999999,1009.1219978999998,a,1,0.44955819999995583,秀丽,k,1,0.6309574000006251,zyt,f,19,2024_Apr_12_1457,mian,2021.2.3,59.925057722904214,
,,,,,,0,1,pic/flanker6.png,pic/flanker2.png,a,k,pic/AffRest2.png,,,,,,,,,,,,,,,,,,,,,,,,,0,1,1,1,0,35,35,74,,,,1012.1052759000004,None,1010.9220101000001,1012.1220157999996,a,1,0.36654790000011417,廉洁,k,1,0.957598599999983,zyt,f,19,2024_Apr_12_1457,mian,2021.2.3,59.925057722904214,
,,,,,,1,0,pic/flanker6.png,pic/flanker4.png,s,l,pic/AffRest2.png,,,,,,,,,,,,,,,,,,,,,,,,,0,1,1,1,0,36,36,53,,,,1015.3724315,None,1014.1886038000002,1015.3886671,s,1,0.6170946000002004,心慌,l,1,0.6799858000003951,zyt,f,19,2024_Apr_12_1457,mian,2021.2.3,59.925057722904214,
,,,,,,0,1,pic/flanker5.png,pic/flanker1.png,s,k,pic/AffRest2.png,,,,,,,,,,,,,,,,,,,,,,,,,0,1,1,1,0,37,37,72,,,,1018.6053074000001,None,1017.4220826000001,1018.6218989999998,s,1,0.4446053000001484,爽朗,k,1,0.6349288999999771,zyt,f,19,2024_Apr_12_1457,mian,2021.2.3,59.925057722904214,
,,,,,,1,1,pic/flanker5.png,pic/flanker3.png,a,k,pic/AffRest2.png,,,,,,,,,,,,,,,,,,,,,,,,,0,1,1,1,0,38,38,60,,,,1021.7220350999996,None,1020.5386699999999,1021.7389181999997,a,1,0.5228561000003538,典雅,k,1,1.3468112000000474,zyt,f,19,2024_Apr_12_1457,mian,2021.2.3,59.925057722904214,
,,,,,,1,1,pic/flanker6.png,pic/flanker4.png,s,k,pic/AffRest2.png,,,,,,,,,,,,,,,,,,,,,,,,,0,1,1,1,0,39,39,46,,,,1025.4887520000002,None,1024.3051457000001,1025.5053463000004,s,1,0.5972388999998657,羡慕,k,1,1.3544347000006383,zyt,f,19,2024_Apr_12_1457,mian,2021.2.3,59.925057722904214,
,,,,,,0,0,pic/flanker5.png,pic/flanker1.png,s,l,pic/AffRest2.png,,,,,,,,,,,,,,,,,,,,,,,,,0,1,1,1,0,40,40,35,,,,1029.3219528999998,None,1028.1388422999999,1029.3387525999997,None,0,,撒谎,l,1,1.5601877999997669,zyt,f,19,2024_Apr_12_1457,mian,2021.2.3,59.925057722904214,
,,,,,,0,0,pic/flanker5.png,pic/flanker1.png,s,l,pic/AffRest2.png,,,,,,,,,,,,,,,,,,,,,,,,,0,1,1,1,0,41,41,27,,,,1034.2554862999996,None,1033.0720732,1034.2718156,s,1,0.5099009000005026,假冒,l,1,0.7893767999994452,zyt,f,19,2024_Apr_12_1457,mian,2021.2.3,59.925057722904214,
,,,,,,0,0,pic/flanker6.png,pic/flanker2.png,a,l,pic/AffRest2.png,,,,,,,,,,,,,,,,,,,,,,,,,0,1,1,1,0,42,42,33,,,,1037.5885883,None,1036.4053181999998,1037.6054862,a,1,0.42246759999943606,懒惰,l,1,0.632138699999814,zyt,f,19,2024_Apr_12_1457,mian,2021.2.3,59.925057722904214,
,,,,,,1,1,pic/flanker5.png,pic/flanker3.png,a,k,pic/AffRest2.png,,,,,,,,,,,,,,,,,,,,,,,,,0,1,1,1,0,43,43,44,,,,1040.4721319,None,1039.2887173,1040.4887718999998,a,1,0.654756300000372,留恋,k,1,0.9105042999999569,zyt,f,19,2024_Apr_12_1457,mian,2021.2.3,59.925057722904214,
,,,,,,0,1,pic/flanker5.png,pic/flanker1.png,s,k,pic/AffRest2.png,,,,,,,,,,,,,,,,,,,,,,,,,0,1,1,1,0,44,44,64,,,,1044.0720566999998,None,1042.8887068000004,1044.0888281999996,s,1,0.40832979999959207,富丽,k,1,0.609191099999407,zyt,f,19,2024_Apr_12_1457,mian,2021.2.3,59.925057722904214,
,,,,,,1,1,pic/flanker5.png,pic/flanker3.png,a,k,pic/AffRest2.png,,,,,,,,,,,,,,,,,,,,,,,,,0,1,1,1,0,45,45,4,,,,1046.9220642999999,None,1045.7383159,1046.9386888,a,1,0.5676119999998264,畅销,k,1,1.023576999999932,zyt,f,19,2024_Apr_12_1457,mian,2021.2.3,59.925057722904214,
,,,,,,1,1,pic/flanker6.png,pic/flanker4.png,s,k,pic/AffRest2.png,,,,,,,,,,,,,,,,,,,,,,,,,0,1,1,1,0,46,46,30,,,,1050.4387565999996,None,1049.2552216000004,1050.4553477,s,1,0.6045560000002297,舒畅,k,1,1.2569754999994984,zyt,f,19,2024_Apr_12_1457,mian,2021.2.3,59.925057722904214,
,,,,,,1,1,pic/flanker6.png,pic/flanker4.png,s,k,pic/AffRest2.png,,,,,,,,,,,,,,,,,,,,,,,,,0,1,1,1,0,47,47,14,,,,1054.2888636999996,None,1053.1055339000004,1054.3055802999997,s,1,0.708941999999297,热切,k,1,0.9635808000002726,zyt,f,19,2024_Apr_12_1457,mian,2021.2.3,59.925057722904214,
,,,,,,0,1,pic/flanker5.png,pic/flanker1.png,s,k,pic/AffRest2.png,,,,,,,,,,,,,,,,,,,,,,,,,0,1,1,1,0,48,48,32,,,,1057.8720491000004,None,1056.6886833999997,1057.8886724000004,s,1,0.5558358999996926,生动,k,1,0.6408950999993976,zyt,f,19,2024_Apr_12_1457,mian,2021.2.3,59.925057722904214,
,,,,,,1,0,pic/flanker5.png,pic/flanker3.png,a,l,pic/AffRest2.png,,,,,,,,,,,,,,,,,,,,,,,,,0,1,1,1,0,49,49,15,,,,1061.0388528000003,None,1059.855412,1061.0548170000002,a,1,0.5548478999999134,别扭,l,1,0.9249945000001389,zyt,f,19,2024_Apr_12_1457,mian,2021.2.3,59.925057722904214,
,,,,,,0,1,pic/flanker6.png,pic/flanker2.png,a,k,pic/AffRest2.png,,,,,,,,,,,,,,,,,,,,,,,,,0,1,1,1,0,50,50,26,,,,1064.3887840999996,None,1063.2053428,1064.4048427999996,a,1,0.37613800000053743,丰满,k,1,0.6527562000001126,zyt,f,19,2024_Apr_12_1457,mian,2021.2.3,59.925057722904214,
,,,,,,1,0,pic/flanker6.png,pic/flanker4.png,s,l,pic/AffRest2.png,,,,,,,,,,,,,,,,,,,,,,,,,0,1,1,1,0,51,51,69,,,,1067.3721380999996,None,1066.1882865999996,1067.3887038000003,s,1,0.7410704999992959,逃避,l,1,0.5827332999997452,zyt,f,19,2024_Apr_12_1457,mian,2021.2.3,59.925057722904214,
,,,,,,0,1,pic/flanker5.png,pic/flanker1.png,s,k,pic/AffRest2.png,,,,,,,,,,,,,,,,,,,,,,,,,0,1,1,1,0,52,52,16,,,,1070.622147,None,1069.4387521999997,1070.638629,s,1,0.4648770000003424,赞成,k,1,0.6242963000004238,zyt,f,19,2024_Apr_12_1457,mian,2021.2.3,59.925057722904214,
,,,,,,0,0,pic/flanker5.png,pic/flanker1.png,s,l,pic/AffRest2.png,,,,,,,,,,,,,,,,,,,,,,,,,0,1,1,1,0,53,53,75,,,,1073.7387932000001,None,1072.5553944000003,1073.7553423,s,1,0.3581470999997691,堵塞,l,1,1.0950952000002872,zyt,f,19,2024_Apr_12_1457,mian,2021.2.3,59.925057722904214,
,,,,,,1,1,pic/flanker6.png,pic/flanker4.png,s,k,pic/AffRest2.png,,,,,,,,,,,,,,,,,,,,,,,,,0,1,1,1,0,54,54,54,,,,1077.0720898,None,1075.8886168,1077.0888489,s,1,0.6677294999999503,清秀,k,1,0.7561763000003339,zyt,f,19,2024_Apr_12_1457,mian,2021.2.3,59.925057722904214,
,,,,,,1,1,pic/flanker5.png,pic/flanker3.png,a,k,pic/AffRest2.png,,,,,,,,,,,,,,,,,,,,,,,,,0,1,1,1,0,55,55,68,,,,1080.5387019,None,1079.3553382,1080.5548826000004,a,1,0.5603854999999385,享受,k,1,0.9075620000003255,zyt,f,19,2024_Apr_12_1457,mian,2021.2.3,59.925057722904214,
,,,,,,1,0,pic/flanker6.png,pic/flanker4.png,s,l,pic/AffRest2.png,,,,,,,,,,,,,,,,,,,,,,,,,0,1,1,1,0,56,56,29,,,,1083.8387174999998,None,1082.6554595999996,1083.8553478000003,s,1,0.595299999999952,处罚,l,1,0.6032703000000765,zyt,f,19,2024_Apr_12_1457,mian,2021.2.3,59.925057722904214,
,,,,,,0,0,pic/flanker5.png,pic/flanker1.png,s,l,pic/AffRest2.png,,,,,,,,,,,,,,,,,,,,,,,,,0,1,1,1,0,57,57,19,,,,1087.0721068000003,None,1085.8887115999996,1087.0887362000003,s,1,0.4125685999997586,闷热,l,1,1.2393747999994957,zyt,f,19,2024_Apr_12_1457,mian,2021.2.3,59.925057722904214,
,,,,,,0,1,pic/flanker6.png,pic/flanker2.png,a,k,pic/AffRest2.png,,,,,,,,,,,,,,,,,,,,,,,,,0,1,1,1,0,58,58,58,,,,1090.6055803,None,1089.4221869000003,1090.6223668000002,a,1,0.4212000999996235,振作,k,1,0.9102327000000514,zyt,f,19,2024_Apr_12_1457,mian,2021.2.3,59.925057722904214,
,,,,,,1,1,pic/flanker6.png,pic/flanker4.png,s,k,pic/AffRest2.png,,,,,,,,,,,,,,,,,,,,,,,,,0,1,1,1,0,59,59,62,,,,1093.8555134999997,None,1092.6719457,1093.8720598,s,1,0.565118700000312,奉献,k,1,0.7862589000005755,zyt,f,19,2024_Apr_12_1457,mian,2021.2.3,59.925057722904214,
,,,,,,0,0,pic/flanker5.png,pic/flanker1.png,s,l,pic/AffRest2.png,,,,,,,,,,,,,,,,,,,,,,,,,0,1,1,1,0,60,60,59,,,,1097.2389592999998,None,1096.0555783999998,1097.2556469,s,1,0.448756400000093,鲁莽,l,1,0.7385756000003312,zyt,f,19,2024_Apr_12_1457,mian,2021.2.3,59.925057722904214,
,,,,,,0,1,pic/flanker6.png,pic/flanker2.png,a,k,pic/AffRest2.png,,,,,,,,,,,,,,,,,,,,,,,,,0,1,1,1,0,61,61,34,,,,1100.3388267,None,1099.1553935000002,1100.3548849999997,a,1,0.41664309999941906,永恒,k,1,0.867628699999841,zyt,f,19,2024_Apr_12_1457,mian,2021.2.3,59.925057722904214,
,,,,,,1,1,pic/flanker6.png,pic/flanker4.png,s,k,pic/AffRest2.png,,,,,,,,,,,,,,,,,,,,,,,,,0,1,1,1,0,62,62,22,,,,1103.6721706999997,None,1102.4889691999997,1103.6888154999997,s,1,0.5545486000000892,圣洁,k,1,1.1887217000003147,zyt,f,19,2024_Apr_12_1457,mian,2021.2.3,59.925057722904214,
,,,,,,1,1,pic/flanker6.png,pic/flanker4.png,s,k,pic/AffRest2.png,,,,,,,,,,,,,,,,,,,,,,,,,0,1,1,1,0,63,63,6,,,,1107.2555189000004,None,1106.0719959999997,1107.2719835999997,s,1,0.5043037000004915,瑰丽,k,1,0.7972834000001967,zyt,f,19,2024_Apr_12_1457,mian,2021.2.3,59.925057722904214,
,,,,,,0,0,pic/flanker5.png,pic/flanker1.png,s,l,pic/AffRest2.png,,,,,,,,,,,,,,,,,,,,,,,,,0,1,1,1,0,64,64,43,,,,1110.4547596000002,None,1109.2721011000003,1110.4721035000002,s,1,0.3774776000000202,丢失,l,1,0.6835162000006676,zyt,f,19,2024_Apr_12_1457,mian,2021.2.3,59.925057722904214,
,,,,,,1,1,pic/flanker5.png,pic/flanker3.png,a,k,pic/AffRest2.png,,,,,,,,,,,,,,,,,,,,,,,,,0,1,1,1,0,65,65,12,,,,1113.4721120000004,None,1112.2889326000004,1113.4889057,a,1,0.5003945999997086,富足,k,1,0.8239550999996936,zyt,f,19,2024_Apr_12_1457,mian,2021.2.3,59.925057722904214,
,,,,,,1,0,pic/flanker5.png,pic/flanker3.png,a,l,pic/AffRest2.png,,,,,,,,,,,,,,,,,,,,,,,,,0,1,1,1,0,66,66,7,,,,1116.8555342,None,1115.6721436999997,1116.8720905999999,a,1,0.5469615000001795,胡涂,l,1,0.752027999999882,zyt,f,19,2024_Apr_12_1457,mian,2021.2.3,59.925057722904214,
,,,,,,1,0,pic/flanker6.png,pic/flanker4.png,s,l,pic/AffRest2.png,,,,,,,,,,,,,,,,,,,,,,,,,0,1,1,1,0,67,67,77,,,,1120.1888943000004,None,1119.0054393,1120.2055389999996,s,1,0.5451788000000306,悲观,l,1,0.6628070999995543,zyt,f,19,2024_Apr_12_1457,mian,2021.2.3,59.925057722904214,
,,,,,,1,0,pic/flanker5.png,pic/flanker3.png,a,l,pic/AffRest2.png,,,,,,,,,,,,,,,,,,,,,,,,,0,1,1,1,0,68,68,55,,,,1123.3388713000004,None,1122.1555791,1123.3556362999998,a,1,0.5848494000001665,排斥,l,1,0.6248471999997491,zyt,f,19,2024_Apr_12_1457,mian,2021.2.3,59.925057722904214,
,,,,,,0,0,pic/flanker6.png,pic/flanker2.png,a,l,pic/AffRest2.png,,,,,,,,,,,,,,,,,,,,,,,,,0,1,1,1,0,69,69,73,,,,1126.5387151000004,None,1125.3554861000002,1126.5555203000004,a,1,0.4922298999999839,浪费,l,1,0.7512259000004633,zyt,f,19,2024_Apr_12_1457,mian,2021.2.3,59.925057722904214,
,,,,,,0,0,pic/flanker6.png,pic/flanker2.png,a,l,pic/AffRest2.png,,,,,,,,,,,,,,,,,,,,,,,,,0,1,1,1,0,70,70,57,,,,1129.6556432999996,None,1128.4723388000002,1129.6722943000004,a,1,0.4545729000001302,焦躁,l,1,0.6677452999992965,zyt,f,19,2024_Apr_12_1457,mian,2021.2.3,59.925057722904214,
,,,,,,0,0,pic/flanker6.png,pic/flanker2.png,a,l,pic/AffRest2.png,,,,,,,,,,,,,,,,,,,,,,,,,0,1,1,1,0,71,71,41,,,,1132.7389071999996,None,1131.5554433999996,1132.7554467999998,a,1,0.3735324999997829,伤心,l,1,0.7157428000000436,zyt,f,19,2024_Apr_12_1457,mian,2021.2.3,59.925057722904214,
,,,,,,0,1,pic/flanker5.png,pic/flanker1.png,s,k,pic/AffRest2.png,,,,,,,,,,,,,,,,,,,,,,,,,0,1,1,1,0,72,72,56,,,,1135.7223755000005,None,1134.5389256999997,1135.7389929,s,1,0.36151429999972606,豪放,k,1,1.039551400000164,zyt,f,19,2024_Apr_12_1457,mian,2021.2.3,59.925057722904214,
,,,,,,0,1,pic/flanker5.png,pic/flanker1.png,s,k,pic/AffRest2.png,,,,,,,,,,,,,,,,,,,,,,,,,0,1,1,1,0,73,73,48,,,,1138.9889552000004,None,1137.8070564,1139.0222770999999,s,1,0.40296610000041255,敬佩,k,1,0.8191617000002225,zyt,f,19,2024_Apr_12_1457,mian,2021.2.3,59.925057722904214,
,,,,,,1,0,pic/flanker6.png,pic/flanker4.png,s,l,pic/AffRest2.png,,,,,,,,,,,,,,,,,,,,,,,,,0,1,1,1,0,74,74,37,,,,1142.2389983000003,None,1141.0555519999998,1142.2554692000003,s,1,0.8215119999995295,禁止,l,1,0.5492194999997082,zyt,f,19,2024_Apr_12_1457,mian,2021.2.3,59.925057722904214,
,,,,,,0,1,pic/flanker6.png,pic/flanker2.png,a,k,pic/AffRest2.png,,,,,,,,,,,,,,,,,,,,,,,,,0,1,1,1,0,75,75,18,,,,1145.4554755999998,None,1144.2721264000002,1145.4721827000003,a,1,0.4504520999998931,卓越,k,1,0.786306599999989,zyt,f,19,2024_Apr_12_1457,mian,2021.2.3,59.925057722904214,
,,,,,,1,0,pic/flanker5.png,pic/flanker3.png,a,l,pic/AffRest2.png,,,,,,,,,,,,,,,,,,,,,,,,,0,1,1,1,0,76,76,63,,,,1148.5890636000004,None,1147.4056939000002,1148.6056774999997,a,1,0.6097603999996863,消沉,l,1,0.7250567999999475,zyt,f,19,2024_Apr_12_1457,mian,2021.2.3,59.925057722904214,
,,,,,,0,1,pic/flanker6.png,pic/flanker2.png,a,k,pic/AffRest2.png,,,,,,,,,,,,,,,,,,,,,,,,,0,1,1,1,0,77,77,10,,,,1151.8387765999996,None,1150.6558806000003,1151.8554713000003,a,1,0.4493331000003309,旺盛,k,1,0.6769615000002887,zyt,f,19,2024_Apr_12_1457,mian,2021.2.3,59.925057722904214,
,,,,,,0,1,pic/flanker5.png,pic/flanker1.png,s,k,pic/AffRest2.png,,,,,,,,,,,,,,,,,,,,,,,,,0,1,1,1,0,78,78,24,,,,1154.9888412999999,None,1153.8054920000004,1155.0055141000003,s,1,0.4723012000004019,雄厚,k,1,0.6621641000001546,zyt,f,19,2024_Apr_12_1457,mian,2021.2.3,59.925057722904214,
,,,,,,0,0,pic/flanker6.png,pic/flanker2.png,a,l,pic/AffRest2.png,,,,,,,,,,,,,,,,,,,,,,,,,0,1,1,1,0,79,79,49,,,,1157.9887436999998,None,1156.8049922,1158.0054803000003,a,1,0.3686300999997911,争吵,l,1,0.5630622000007861,zyt,f,19,2024_Apr_12_1457,mian,2021.2.3,59.925057722904214,
,,,,,,,,,,,,pic/AffRest2.png,,,,,,,,,,,,,,,,,,,,,,,,,0,1,1,1,,,,,,,,,,,,,,,,,,,zyt,f,19,2024_Apr_12_1457,mian,2021.2.3,59.925057722904214,
,,,,,,1,1,pic/flanker6.png,pic/flanker4.png,s,k,pic/AffRest3.png,,,,,,,,,,,,,,,,,,,,,,,,,0,2,2,2,0,0,0,6,,,,1168.7554944000003,None,1167.5568204,1168.7721969000004,s,1,0.6417981999993572,前进,k,1,0.6772136999998111,zyt,f,19,2024_Apr_12_1457,mian,2021.2.3,59.925057722904214,
,,,,,,0,0,pic/flanker6.png,pic/flanker2.png,a,l,pic/AffRest3.png,,,,,,,,,,,,,,,,,,,,,,,,,0,2,2,2,0,1,1,49,,,,1172.1222537000003,None,1170.9388296999996,1172.1389789000004,a,1,0.5997467999995933,悲观,l,1,1.0751317000003837,zyt,f,19,2024_Apr_12_1457,mian,2021.2.3,59.925057722904214,
,,,,,,1,0,pic/flanker5.png,pic/flanker3.png,a,l,pic/AffRest3.png,,,,,,,,,,,,,,,,,,,,,,,,,0,2,2,2,0,2,2,63,,,,1175.8222097999997,None,1174.6388777000002,1175.8387914000004,a,1,0.5923148000001675,罚款,l,1,0.6625380000004952,zyt,f,19,2024_Apr_12_1457,mian,2021.2.3,59.925057722904214,
,,,,,,1,0,pic/flanker6.png,pic/flanker4.png,s,l,pic/AffRest3.png,,,,,,,,,,,,,,,,,,,,,,,,,0,2,2,2,0,3,3,69,,,,1179.0889187000002,None,1177.9055383000004,1179.1054015999998,s,1,0.5614040000000386,假冒,l,1,0.5981590000001233,zyt,f,19,2024_Apr_12_1457,mian,2021.2.3,59.925057722904214,
,,,,,,0,0,pic/flanker6.png,pic/flanker2.png,a,l,pic/AffRest3.png,,,,,,,,,,,,,,,,,,,,,,,,,0,2,2,2,0,4,4,25,,,,1182.1886936,None,1181.0055593999996,1182.2055897999999,a,1,0.6738581999998132,消沉,l,1,0.5930496999999377,zyt,f,19,2024_Apr_12_1457,mian,2021.2.3,59.925057722904214,
,,,,,,1,1,pic/flanker6.png,pic/flanker4.png,s,k,pic/AffRest3.png,,,,,,,,,,,,,,,,,,,,,,,,,0,2,2,2,0,5,5,46,,,,1185.2888618999996,None,1184.1054290000002,1185.3055010999997,s,1,1.047620399999687,生动,k,1,0.6459373999996387,zyt,f,19,2024_Apr_12_1457,mian,2021.2.3,59.925057722904214,
,,,,,,0,0,pic/flanker6.png,pic/flanker2.png,a,l,pic/AffRest3.png,,,,,,,,,,,,,,,,,,,,,,,,,0,2,2,2,0,6,6,41,,,,1189.0387836999998,None,1187.8556010000002,1189.0554770999997,a,1,0.5453268999999636,别扭,l,1,0.8604513000000225,zyt,f,19,2024_Apr_12_1457,mian,2021.2.3,59.925057722904214,
,,,,,,0,1,pic/flanker6.png,pic/flanker2.png,a,k,pic/AffRest3.png,,,,,,,,,,,,,,,,,,,,,,,,,0,2,2,2,0,7,7,10,,,,1192.2722252000003,None,1191.0888919999998,1192.2888205,a,1,0.3987387999995917,爽朗,k,1,1.0567895999993198,zyt,f,19,2024_Apr_12_1457,mian,2021.2.3,59.925057722904214,
,,,,,,1,1,pic/flanker5.png,pic/flanker3.png,a,k,pic/AffRest3.png,,,,,,,,,,,,,,,,,,,,,,,,,0,2,2,2,0,8,8,20,,,,1195.6723522000002,None,1194.4888833000005,1195.6890063,a,1,0.7361175999994884,顽强,k,1,1.2200175999996645,zyt,f,19,2024_Apr_12_1457,mian,2021.2.3,59.925057722904214,
,,,,,,1,0,pic/flanker6.png,pic/flanker4.png,s,l,pic/AffRest3.png,,,,,,,,,,,,,,,,,,,,,,,,,0,2,2,2,0,9,9,29,,,,1199.5221460000002,None,1198.3387227000003,1199.5388247,s,1,0.6766913999999815,怀疑,l,1,0.7008739000002606,zyt,f,19,2024_Apr_12_1457,mian,2021.2.3,59.925057722904214,
,,,,,,0,0,pic/flanker6.png,pic/flanker2.png,a,l,pic/AffRest3.png,,,,,,,,,,,,,,,,,,,,,,,,,0,2,2,2,0,10,10,73,,,,1202.8222355999997,None,1201.6388737999996,1202.8389496999998,a,1,0.4309142999991309,逃避,l,1,0.9575009000000136,zyt,f,19,2024_Apr_12_1457,mian,2021.2.3,59.925057722904214,
,,,,,,1,0,pic/flanker6.png,pic/flanker4.png,s,l,pic/AffRest3.png,,,,,,,,,,,,,,,,,,,,,,,,,0,2,2,2,0,11,11,5,,,,1206.1722105,None,1204.9889331000004,1206.1887655,s,1,0.5586479000003237,伤心,l,1,0.7344531999997344,zyt,f,19,2024_Apr_12_1457,mian,2021.2.3,59.925057722904214,
,,,,,,0,1,pic/flanker6.png,pic/flanker2.png,a,k,pic/AffRest3.png,,,,,,,,,,,,,,,,,,,,,,,,,0,2,2,2,0,12,12,2,,,,1209.3555847999996,None,1208.1721844000003,1209.3722644,a,1,0.415618999999424,富丽,k,1,0.6241334999995161,zyt,f,19,2024_Apr_12_1457,mian,2021.2.3,59.925057722904214,
,,,,,,0,1,pic/flanker5.png,pic/flanker1.png,s,k,pic/AffRest3.png,,,,,,,,,,,,,,,,,,,,,,,,,0,2,2,2,0,13,13,24,,,,1212.4555477000004,None,1211.2721468,1212.4721636000004,s,1,0.38365240000075573,珍藏,k,1,1.2288398999999117,zyt,f,19,2024_Apr_12_1457,mian,2021.2.3,59.925057722904214,
,,,,,,1,0,pic/flanker5.png,pic/flanker3.png,a,l,pic/AffRest3.png,,,,,,,,,,,,,,,,,,,,,,,,,0,2,2,2,0,14,14,23,,,,1216.1555004000002,None,1214.9724018999996,1216.1717097,a,1,0.5015292000007321,焦躁,l,1,0.6263431999996101,zyt,f,19,2024_Apr_12_1457,mian,2021.2.3,59.925057722904214,
,,,,,,0,0,pic/flanker5.png,pic/flanker1.png,s,l,pic/AffRest3.png,,,,,,,,,,,,,,,,,,,,,,,,,0,2,2,2,0,15,15,11,,,,1219.2888875999997,None,1218.105482,1219.3056727000003,s,1,0.3856110999995508,堵塞,l,1,1.0589768999998341,zyt,f,19,2024_Apr_12_1457,mian,2021.2.3,59.925057722904214,
,,,,,,1,1,pic/flanker5.png,pic/flanker3.png,a,k,pic/AffRest3.png,,,,,,,,,,,,,,,,,,,,,,,,,0,2,2,2,0,16,16,36,,,,1222.7722224,None,1221.5886954999996,1222.7889680999997,a,1,0.5899274999992485,舒畅,k,1,0.7291706999994858,zyt,f,19,2024_Apr_12_1457,mian,2021.2.3,59.925057722904214,
,,,,,,0,1,pic/flanker6.png,pic/flanker2.png,a,k,pic/AffRest3.png,,,,,,,,,,,,,,,,,,,,,,,,,0,2,2,2,0,17,17,50,,,,1226.0717010999997,None,1224.8889464000003,1226.0889140999998,a,1,0.35317420000046695,永恒,k,1,0.6234310999998343,zyt,f,19,2024_Apr_12_1457,mian,2021.2.3,59.925057722904214,
,,,,,,1,0,pic/flanker5.png,pic/flanker3.png,a,l,pic/AffRest3.png,,,,,,,,,,,,,,,,,,,,,,,,,0,2,2,2,0,18,18,15,,,,1228.9055403000002,None,1227.7221379000002,1228.9216642000001,a,1,0.4755580999999438,冷笑,l,1,0.5821297000002232,zyt,f,19,2024_Apr_12_1457,mian,2021.2.3,59.925057722904214,
,,,,,,0,0,pic/flanker5.png,pic/flanker1.png,s,l,pic/AffRest3.png,,,,,,,,,,,,,,,,,,,,,,,,,0,2,2,2,0,19,19,75,,,,1231.8049113999996,None,1230.622297,1231.8216017000004,s,1,0.6961578999998892,沮丧,l,1,0.6948210000000472,zyt,f,19,2024_Apr_12_1457,mian,2021.2.3,59.925057722904214,
,,,,,,0,1,pic/flanker6.png,pic/flanker2.png,a,k,pic/AffRest3.png,,,,,,,,,,,,,,,,,,,,,,,,,0,2,2,2,0,20,20,26,,,,1235.2554423000001,None,1234.0717461000004,1235.2721890000003,a,1,0.41481840000051307,如愿,k,1,0.760363999999754,zyt,f,19,2024_Apr_12_1457,mian,2021.2.3,59.925057722904214,
,,,,,,0,1,pic/flanker5.png,pic/flanker1.png,s,k,pic/AffRest3.png,,,,,,,,,,,,,,,,,,,,,,,,,0,2,2,2,0,21,21,32,,,,1238.4218756999999,None,1237.2383995,1238.4385002,s,1,0.5476272999994762,旺盛,l,0,0.3905154999993101,zyt,f,19,2024_Apr_12_1457,mian,2021.2.3,59.925057722904214,
,,,,,,0,0,pic/flanker6.png,pic/flanker2.png,a,l,pic/AffRest3.png,,,,,,,,,,,,,,,,,,,,,,,,,0,2,2,2,0,22,22,57,,,,1241.3715571000002,None,1240.1887539,1241.3882462000001,a,1,0.5308046999998624,禁止,l,1,1.0629224000003887,zyt,f,19,2024_Apr_12_1457,mian,2021.2.3,59.925057722904214,
,,,,,,1,1,pic/flanker6.png,pic/flanker4.png,s,k,pic/AffRest3.png,,,,,,,,,,,,,,,,,,,,,,,,,0,2,2,2,0,23,23,70,,,,1244.7884057,None,1243.6052341000004,1244.8050208000004,s,1,0.7720127000002321,留恋,k,1,0.567269999999553,zyt,f,19,2024_Apr_12_1457,mian,2021.2.3,59.925057722904214,
,,,,,,0,0,pic/flanker6.png,pic/flanker2.png,a,l,pic/AffRest3.png,,,,,,,,,,,,,,,,,,,,,,,,,0,2,2,2,0,24,24,33,,,,1248.0217992999997,None,1246.8381086999998,1248.0383094,a,1,0.49172660000022006,心慌,l,1,0.8433765999998286,zyt,f,19,2024_Apr_12_1457,mian,2021.2.3,59.925057722904214,
,,,,,,1,1,pic/flanker5.png,pic/flanker3.png,a,k,pic/AffRest3.png,,,,,,,,,,,,,,,,,,,,,,,,,0,2,2,2,0,25,25,76,,,,1251.3891125999999,None,1250.2056752999997,1251.4056695999998,a,1,0.49390979999952833,有利,k,1,0.6571340000000419,zyt,f,19,2024_Apr_12_1457,mian,2021.2.3,59.925057722904214,
,,,,,,1,1,pic/flanker6.png,pic/flanker4.png,s,k,pic/AffRest3.png,,,,,,,,,,,,,,,,,,,,,,,,,0,2,2,2,0,26,26,14,,,,1254.4557004999997,None,1253.2716381999999,1254.4722407,s,1,0.5415087999999741,丰满,k,1,0.7397399999999834,zyt,f,19,2024_Apr_12_1457,mian,2021.2.3,59.925057722904214,
,,,,,,0,1,pic/flanker5.png,pic/flanker1.png,s,k,pic/AffRest3.png,,,,,,,,,,,,,,,,,,,,,,,,,0,2,2,2,0,27,27,48,,,,1257.6553396,None,1256.4717417000002,1257.6715579000002,s,1,0.48583289999987755,羡慕,k,1,1.0231824000002234,zyt,f,19,2024_Apr_12_1457,mian,2021.2.3,59.925057722904214,
,,,,,,1,0,pic/flanker6.png,pic/flanker4.png,s,l,pic/AffRest3.png,,,,,,,,,,,,,,,,,,,,,,,,,0,2,2,2,0,28,28,61,,,,1261.1723112999998,None,1259.9889353999997,1261.1888935999996,s,1,0.6741546000002927,自卑,l,1,1.3080083999993803,zyt,f,19,2024_Apr_12_1457,mian,2021.2.3,59.925057722904214,
,,,,,,1,1,pic/flanker5.png,pic/flanker3.png,a,k,pic/AffRest3.png,,,,,,,,,,,,,,,,,,,,,,,,,0,2,2,2,0,29,29,68,,,,1265.0055788999998,None,1263.8222119000002,1265.0216442,a,1,0.49484949999987293,豪放,k,1,0.967234599999756,zyt,f,19,2024_Apr_12_1457,mian,2021.2.3,59.925057722904214,
,,,,,,0,0,pic/flanker6.png,pic/flanker2.png,a,l,pic/AffRest3.png,,,,,,,,,,,,,,,,,,,,,,,,,0,2,2,2,0,30,30,1,,,,1268.4888202000002,None,1267.3053585999996,1268.5057287999998,a,1,0.4048130000001038,落后,l,1,0.9125825000000987,zyt,f,19,2024_Apr_12_1457,mian,2021.2.3,59.925057722904214,
,,,,,,1,1,pic/flanker5.png,pic/flanker3.png,a,k,pic/AffRest3.png,,,,,,,,,,,,,,,,,,,,,,,,,0,2,2,2,0,31,31,52,,,,1271.7390370000003,None,1270.5556709000002,1271.7556530000002,a,1,0.47161529999993945,廉洁,k,1,1.6540051000001768,zyt,f,19,2024_Apr_12_1457,mian,2021.2.3,59.925057722904214,
,,,,,,1,1,pic/flanker6.png,pic/flanker4.png,s,k,pic/AffRest3.png,,,,,,,,,,,,,,,,,,,,,,,,,0,2,2,2,0,32,32,22,,,,1275.9056762,None,1274.7225073999998,1275.9216594999998,s,1,0.5829693000005136,鲜艳,k,1,0.6531924000000799,zyt,f,19,2024_Apr_12_1457,mian,2021.2.3,59.925057722904214,
,,,,,,1,1,pic/flanker6.png,pic/flanker4.png,s,k,pic/AffRest3.png,,,,,,,,,,,,,,,,,,,,,,,,,0,2,2,2,0,33,33,30,,,,1279.2056013000001,None,1278.0222634000002,1279.2222154,s,1,1.2771684999997888,公平,k,1,1.3824697000000015,zyt,f,19,2024_Apr_12_1457,mian,2021.2.3,59.925057722904214,
,,,,,,1,1,pic/flanker6.png,pic/flanker4.png,s,k,pic/AffRest3.png,,,,,,,,,,,,,,,,,,,,,,,,,0,2,2,2,0,34,34,38,,,,1283.8391594000004,None,1282.6556368000001,1283.8556527,s,1,0.593720900000335,精致,k,1,0.728840400000081,zyt,f,19,2024_Apr_12_1457,mian,2021.2.3,59.925057722904214,
,,,,,,1,0,pic/flanker5.png,pic/flanker3.png,a,l,pic/AffRest3.png,,,,,,,,,,,,,,,,,,,,,,,,,0,2,2,2,0,35,35,31,,,,1287.1888777000004,None,1286.0054743,1287.2056344000002,a,1,0.5420490999995309,穷苦,l,1,0.7312339999998585,zyt,f,19,2024_Apr_12_1457,mian,2021.2.3,59.925057722904214,
,,,,,,0,0,pic/flanker6.png,pic/flanker2.png,a,l,pic/AffRest3.png,,,,,,,,,,,,,,,,,,,,,,,,,0,2,2,2,0,36,36,65,,,,1290.2889575,None,1289.1055779999997,1290.3056485999996,a,1,0.462782700000389,忧虑,l,1,0.5995992999996815,zyt,f,19,2024_Apr_12_1457,mian,2021.2.3,59.925057722904214,
,,,,,,0,1,pic/flanker6.png,pic/flanker2.png,a,k,pic/AffRest3.png,,,,,,,,,,,,,,,,,,,,,,,,,0,2,2,2,0,37,37,66,,,,1293.2223141000004,None,1292.0387647999996,1293.2390133999997,a,1,0.4946969000002355,典雅,k,1,0.5217485000002853,zyt,f,19,2024_Apr_12_1457,mian,2021.2.3,59.925057722904214,
,,,,,,1,0,pic/flanker6.png,pic/flanker4.png,s,l,pic/AffRest3.png,,,,,,,,,,,,,,,,,,,,,,,,,0,2,2,2,0,38,38,37,,,,1296.1222674,None,1294.9389135000001,1296.1389882000003,s,1,0.8427825999997367,嘲笑,l,1,1.053299799999877,zyt,f,19,2024_Apr_12_1457,mian,2021.2.3,59.925057722904214,
,,,,,,0,1,pic/flanker6.png,pic/flanker2.png,a,k,pic/AffRest3.png,,,,,,,,,,,,,,,,,,,,,,,,,0,2,2,2,0,39,39,58,,,,1299.9722786000002,None,1298.7890171999998,1299.9888468,a,1,0.3768411000000924,诚恳,k,1,0.6127802999999403,zyt,f,19,2024_Apr_12_1457,mian,2021.2.3,59.925057722904214,
,,,,,,0,1,pic/flanker5.png,pic/flanker1.png,s,k,pic/AffRest3.png,,,,,,,,,,,,,,,,,,,,,,,,,0,2,2,2,0,40,40,8,,,,1303.0050124,None,1301.8224140000002,1303.0217338000002,s,1,0.5031017999999676,充裕,k,1,0.6350127000005159,zyt,f,19,2024_Apr_12_1457,mian,2021.2.3,59.925057722904214,
,,,,,,1,0,pic/flanker6.png,pic/flanker4.png,s,l,pic/AffRest3.png,,,,,,,,,,,,,,,,,,,,,,,,,0,2,2,2,0,41,41,77,,,,1306.0222292999997,None,1304.8388513,1306.0390774999996,a,0,0.3966556999994282,烦恼,l,1,1.0414792000001398,zyt,f,19,2024_Apr_12_1457,mian,2021.2.3,59.925057722904214,
,,,,,,0,0,pic/flanker5.png,pic/flanker1.png,s,l,pic/AffRest3.png,,,,,,,,,,,,,,,,,,,,,,,,,0,2,2,2,0,42,42,59,,,,1309.2724424999997,None,1308.0890974000004,1309.2892149,s,1,0.43800280000050407,处罚,l,1,0.6803427000004376,zyt,f,19,2024_Apr_12_1457,mian,2021.2.3,59.925057722904214,
,,,,,,1,1,pic/flanker5.png,pic/flanker3.png,a,k,pic/AffRest3.png,,,,,,,,,,,,,,,,,,,,,,,,,0,2,2,2,0,43,43,60,,,,1312.4056674000003,None,1311.2223149000001,1312.4223863999996,a,1,0.5795487999994293,清秀,k,1,0.6772702999996909,zyt,f,19,2024_Apr_12_1457,mian,2021.2.3,59.925057722904214,
,,,,,,1,0,pic/flanker5.png,pic/flanker3.png,a,l,pic/AffRest3.png,,,,,,,,,,,,,,,,,,,,,,,,,0,2,2,2,0,44,44,7,,,,1315.6557032,None,1314.4718239000003,1315.6721545999999,a,1,0.5502667000000656,撒谎,l,1,1.247378099999878,zyt,f,19,2024_Apr_12_1457,mian,2021.2.3,59.925057722904214,
,,,,,,0,0,pic/flanker5.png,pic/flanker1.png,s,l,pic/AffRest3.png,,,,,,,,,,,,,,,,,,,,,,,,,0,2,2,2,0,45,45,3,,,,1319.4557525,None,1318.2728047,1319.4722540000002,s,1,0.722515000000385,轻率,l,1,1.033546199999364,zyt,f,19,2024_Apr_12_1457,mian,2021.2.3,59.925057722904214,
,,,,,,1,1,pic/flanker6.png,pic/flanker4.png,s,k,pic/AffRest3.png,,,,,,,,,,,,,,,,,,,,,,,,,0,2,2,2,0,46,46,62,,,,1323.2557890999997,None,1322.0724681000002,1323.2724257999998,s,1,0.6094969999994646,畅销,k,1,1.3529466999998476,zyt,f,19,2024_Apr_12_1457,mian,2021.2.3,59.925057722904214,
,,,,,,0,1,pic/flanker5.png,pic/flanker1.png,s,k,pic/AffRest3.png,,,,,,,,,,,,,,,,,,,,,,,,,0,2,2,2,0,47,47,72,,,,1327.1221574,None,1325.9388243000003,1327.1388229000004,s,1,0.5072405999999319,奉献,k,1,0.7018443999995725,zyt,f,19,2024_Apr_12_1457,mian,2021.2.3,59.925057722904214,
,,,,,,1,0,pic/flanker6.png,pic/flanker4.png,s,l,pic/AffRest3.png,,,,,,,,,,,,,,,,,,,,,,,,,0,2,2,2,0,48,48,21,,,,1330.1556564000002,None,1328.9724024999996,1330.1722198999996,s,1,0.6801777000000584,缺乏,l,1,1.130367099999603,zyt,f,19,2024_Apr_12_1457,mian,2021.2.3,59.925057722904214,
,,,,,,0,1,pic/flanker5.png,pic/flanker1.png,s,k,pic/AffRest3.png,,,,,,,,,,,,,,,,,,,,,,,,,0,2,2,2,0,49,49,56,,,,1333.9057329999996,None,1332.7223193,1333.9225829999996,s,1,0.5732129999996687,卓越,k,1,0.693148299999848,zyt,f,19,2024_Apr_12_1457,mian,2021.2.3,59.925057722904214,
,,,,,,0,0,pic/flanker5.png,pic/flanker1.png,s,l,pic/AffRest3.png,,,,,,,,,,,,,,,,,,,,,,,,,0,2,2,2,0,50,50,19,,,,1337.0557866,None,1335.8724633000002,1337.0724348000003,s,1,0.3942257000007885,排斥,l,1,0.6474163999992015,zyt,f,19,2024_Apr_12_1457,mian,2021.2.3,59.925057722904214,
,,,,,,1,0,pic/flanker5.png,pic/flanker3.png,a,l,pic/AffRest3.png,,,,,,,,,,,,,,,,,,,,,,,,,0,2,2,2,0,51,51,79,,,,1339.9723783,None,1338.7889351000003,1339.9890733000002,a,1,0.6535815999995975,慌忙,l,1,1.3650207000000592,zyt,f,19,2024_Apr_12_1457,mian,2021.2.3,59.925057722904214,
,,,,,,1,1,pic/flanker5.png,pic/flanker3.png,a,k,pic/AffRest3.png,,,,,,,,,,,,,,,,,,,,,,,,,0,2,2,2,0,52,52,4,,,,1343.8221888999997,None,1342.6389307,1343.8389366000001,a,1,1.0945003999995606,圣洁,k,1,0.6938027000005604,zyt,f,19,2024_Apr_12_1457,mian,2021.2.3,59.925057722904214,
,,,,,,0,1,pic/flanker5.png,pic/flanker1.png,s,k,pic/AffRest3.png,,,,,,,,,,,,,,,,,,,,,,,,,0,2,2,2,0,53,53,0,,,,1347.4390397999996,None,1346.2557336999998,1347.4557265000003,s,1,0.4993672999999035,雄厚,k,1,0.8238397000004625,zyt,f,19,2024_Apr_12_1457,mian,2021.2.3,59.925057722904214,
,,,,,,1,0,pic/flanker6.png,pic/flanker4.png,s,l,pic/AffRest3.png,,,,,,,,,,,,,,,,,,,,,,,,,0,2,2,2,0,54,54,13,,,,1350.7724261000003,None,1349.5891267999996,1350.7889833,s,1,0.6936817999994673,争吵,l,1,0.6393398999998681,zyt,f,19,2024_Apr_12_1457,mian,2021.2.3,59.925057722904214,
,,,,,,0,0,pic/flanker5.png,pic/flanker1.png,s,l,pic/AffRest3.png,,,,,,,,,,,,,,,,,,,,,,,,,0,2,2,2,0,55,55,27,,,,1354.1056795000004,None,1352.9223474,1354.1222958999997,s,1,0.7627862999997888,失意,l,1,0.8026939000001221,zyt,f,19,2024_Apr_12_1457,mian,2021.2.3,59.925057722904214,
,,,,,,1,1,pic/flanker6.png,pic/flanker4.png,s,k,pic/AffRest3.png,,,,,,,,,,,,,,,,,,,,,,,,,0,2,2,2,0,56,56,78,,,,1357.6056267000004,None,1356.422353,1357.6223650000002,s,1,0.557267199999842,秀丽,k,1,0.5996618999997736,zyt,f,19,2024_Apr_12_1457,mian,2021.2.3,59.925057722904214,
,,,,,,1,0,pic/flanker5.png,pic/flanker3.png,a,l,pic/AffRest3.png,,,,,,,,,,,,,,,,,,,,,,,,,0,2,2,2,0,57,57,55,,,,1360.5891217999997,None,1359.4056926000003,1360.6056424999997,a,1,0.5249149999999645,孤单,l,1,0.5465438999999606,zyt,f,19,2024_Apr_12_1457,mian,2021.2.3,59.925057722904214,
,,,,,,0,0,pic/flanker5.png,pic/flanker1.png,s,l,pic/AffRest3.png,,,,,,,,,,,,,,,,,,,,,,,,,0,2,2,2,0,58,58,35,,,,1363.7057639000004,None,1362.5224366000002,1363.7224026000004,s,1,0.4908799999993789,浪费,l,1,0.8744865999997273,zyt,f,19,2024_Apr_12_1457,mian,2021.2.3,59.925057722904214,
,,,,,,1,1,pic/flanker5.png,pic/flanker3.png,a,k,pic/AffRest3.png,,,,,,,,,,,,,,,,,,,,,,,,,0,2,2,2,0,59,59,44,,,,1367.1057750999998,None,1365.9224047999996,1367.1222214999998,a,1,0.5612491000001683,富足,k,1,0.8017792000000554,zyt,f,19,2024_Apr_12_1457,mian,2021.2.3,59.925057722904214,
,,,,,,0,1,pic/flanker6.png,pic/flanker2.png,a,k,pic/AffRest3.png,,,,,,,,,,,,,,,,,,,,,,,,,0,2,2,2,0,60,60,34,,,,1370.4056861,None,1369.2225005999999,1370.4224938999996,a,1,0.4209939000002123,正直,k,1,1.1957135000002381,zyt,f,19,2024_Apr_12_1457,mian,2021.2.3,59.925057722904214,
,,,,,,0,1,pic/flanker5.png,pic/flanker1.png,s,k,pic/AffRest3.png,,,,,,,,,,,,,,,,,,,,,,,,,0,2,2,2,0,61,61,16,,,,1373.9557551999997,None,1372.772398,1373.9723084999996,s,1,0.4509274000001824,吉祥,k,1,0.8109908999995241,zyt,f,19,2024_Apr_12_1457,mian,2021.2.3,59.925057722904214,
,,,,,,1,0,pic/flanker5.png,pic/flanker3.png,a,l,pic/AffRest3.png,,,,,,,,,,,,,,,,,,,,,,,,,0,2,2,2,0,62,62,47,,,,1377.0559415999996,None,1375.8723435000002,1377.0724591999997,s,0,0.5428814000006241,丢失,l,1,1.663219800000661,zyt,f,19,2024_Apr_12_1457,mian,2021.2.3,59.925057722904214,
,,,,,,1,0,pic/flanker6.png,pic/flanker4.png,s,l,pic/AffRest3.png,,,,,,,,,,,,,,,,,,,,,,,,,0,2,2,2,0,63,63,53,,,,1381.1224681000003,None,1379.9390776,1381.1390426999997,s,1,0.7839119999998729,胡涂,l,1,0.869809400000122,zyt,f,19,2024_Apr_12_1457,mian,2021.2.3,59.925057722904214,
,,,,,,0,1,pic/flanker5.png,pic/flanker1.png,s,k,pic/AffRest3.png,,,,,,,,,,,,,,,,,,,,,,,,,0,2,2,2,0,64,64,64,,,,1384.6889572999999,None,1383.5056784999997,1384.7057163999998,s,1,0.4536534999997457,热切,k,1,0.6781840000003285,zyt,f,19,2024_Apr_12_1457,mian,2021.2.3,59.925057722904214,
,,,,,,1,1,pic/flanker5.png,pic/flanker3.png,a,k,pic/AffRest3.png,,,,,,,,,,,,,,,,,,,,,,,,,0,2,2,2,0,65,65,28,,,,1387.8558564000004,None,1386.6724250999996,1387.8723849999997,a,1,0.6313633999998274,优雅,k,1,0.6523252999995748,zyt,f,19,2024_Apr_12_1457,mian,2021.2.3,59.925057722904214,
,,,,,,1,1,pic/flanker5.png,pic/flanker3.png,a,k,pic/AffRest3.png,,,,,,,,,,,,,,,,,,,,,,,,,0,2,2,2,0,66,66,12,,,,1391.0386729000002,None,1389.8557563000004,1391.0558652,a,1,0.5781723999998576,赞成,k,1,1.5234325000001263,zyt,f,19,2024_Apr_12_1457,mian,2021.2.3,59.925057722904214,
,,,,,,0,0,pic/flanker5.png,pic/flanker1.png,s,l,pic/AffRest3.png,,,,,,,,,,,,,,,,,,,,,,,,,0,2,2,2,0,67,67,51,,,,1394.9725181000003,None,1393.7891489000003,1394.9885166000004,None,0,,厌恶,l,1,1.8459291999997731,zyt,f,19,2024_Apr_12_1457,mian,2021.2.3,59.925057722904214,
,,,,,,1,0,pic/flanker5.png,pic/flanker3.png,a,l,pic/AffRest3.png,,,,,,,,,,,,,,,,,,,,,,,,,0,2,2,2,0,68,68,39,,,,1400.2385572000003,None,1399.0558030000002,1400.2558228999997,a,1,1.0632159999995565,鲁莽,l,1,0.9760792999995829,zyt,f,19,2024_Apr_12_1457,mian,2021.2.3,59.925057722904214,
,,,,,,0,0,pic/flanker6.png,pic/flanker2.png,a,l,pic/AffRest3.png,,,,,,,,,,,,,,,,,,,,,,,,,0,2,2,2,0,69,69,9,,,,1404.1725293999998,None,1402.9891590999996,1404.1892446000002,a,1,0.4643357000004471,损害,l,1,0.6717883000001166,zyt,f,19,2024_Apr_12_1457,mian,2021.2.3,59.925057722904214,
,,,,,,1,1,pic/flanker6.png,pic/flanker4.png,s,k,pic/AffRest3.png,,,,,,,,,,,,,,,,,,,,,,,,,0,2,2,2,0,70,70,54,,,,1407.2557219,None,1406.0725107999997,1407.2724663999998,s,1,0.5603557000004002,振作,k,1,0.8846082000000024,zyt,f,19,2024_Apr_12_1457,mian,2021.2.3,59.925057722904214,
,,,,,,0,0,pic/flanker6.png,pic/flanker2.png,a,l,pic/AffRest3.png,,,,,,,,,,,,,,,,,,,,,,,,,0,2,2,2,0,71,71,17,,,,1410.6223824999997,None,1409.4390015999998,1410.6390079000003,a,1,0.4543737999993027,懒惰,l,1,0.9089008000000831,zyt,f,19,2024_Apr_12_1457,mian,2021.2.3,59.925057722904214,
,,,,,,0,1,pic/flanker6.png,pic/flanker2.png,a,k,pic/AffRest3.png,,,,,,,,,,,,,,,,,,,,,,,,,0,2,2,2,0,72,72,42,,,,1413.8225923,None,1412.6391684999999,1413.8392473000004,a,1,0.37675970000054804,瑰丽,k,1,0.6031220000004396,zyt,f,19,2024_Apr_12_1457,mian,2021.2.3,59.925057722904214,
,,,,,,0,1,pic/flanker6.png,pic/flanker2.png,a,k,pic/AffRest3.png,,,,,,,,,,,,,,,,,,,,,,,,,0,2,2,2,0,73,73,18,,,,1416.7390102,None,1415.5555986999998,1416.7557919,a,1,0.3737481000007392,敬佩,k,1,0.584801800000605,zyt,f,19,2024_Apr_12_1457,mian,2021.2.3,59.925057722904214,
,,,,,,1,0,pic/flanker6.png,pic/flanker4.png,s,l,pic/AffRest3.png,,,,,,,,,,,,,,,,,,,,,,,,,0,2,2,2,0,74,74,45,,,,1419.6890962999996,None,1418.5057484,1419.7058660000002,s,1,0.555699900000036,杂乱,l,1,0.7332801000002291,zyt,f,19,2024_Apr_12_1457,mian,2021.2.3,59.925057722904214,
,,,,,,0,1,pic/flanker6.png,pic/flanker2.png,a,k,pic/AffRest3.png,,,,,,,,,,,,,,,,,,,,,,,,,0,2,2,2,0,75,75,74,,,,1422.9724711999997,None,1421.7890091999998,1422.9885212999998,a,1,0.40839649999998073,俊秀,k,1,0.6126135999993494,zyt,f,19,2024_Apr_12_1457,mian,2021.2.3,59.925057722904214,
,,,,,,0,0,pic/flanker5.png,pic/flanker1.png,s,l,pic/AffRest3.png,,,,,,,,,,,,,,,,,,,,,,,,,0,2,2,2,0,76,76,67,,,,1425.9723479000004,None,1424.7891805,1425.9885261999998,s,1,0.4087006999998266,郁闷,l,1,0.5685282000004008,zyt,f,19,2024_Apr_12_1457,mian,2021.2.3,59.925057722904214,
,,,,,,1,0,pic/flanker5.png,pic/flanker3.png,a,l,pic/AffRest3.png,,,,,,,,,,,,,,,,,,,,,,,,,0,2,2,2,0,77,77,71,,,,1428.8885342000003,None,1427.7058961000002,1428.9055233,a,1,0.6146957999999358,闷热,l,1,0.6591431999995621,zyt,f,19,2024_Apr_12_1457,mian,2021.2.3,59.925057722904214,
,,,,,,0,0,pic/flanker5.png,pic/flanker1.png,s,l,pic/AffRest3.png,,,,,,,,,,,,,,,,,,,,,,,,,0,2,2,2,0,78,78,43,,,,1432.0722286999999,None,1430.8890173999998,1432.0891795999996,s,1,0.5379153000003498,黑暗,l,1,0.9941801999993913,zyt,f,19,2024_Apr_12_1457,mian,2021.2.3,59.925057722904214,
,,,,,,0,1,pic/flanker5.png,pic/flanker1.png,s,k,pic/AffRest3.png,,,,,,,,,,,,,,,,,,,,,,,,,0,2,2,2,0,79,79,40,,,,1435.6225009999998,None,1434.4385173,1435.639201,s,1,0.38691339999968477,享受,k,1,1.0030603999994128,zyt,f,19,2024_Apr_12_1457,mian,2021.2.3,59.925057722904214,
,,,,,,,,,,,,pic/AffRest3.png,,,,,,,,,,,,,,,,,,,,,,,,,0,2,2,2,,,,,,,,,,,,,,,,,,,zyt,f,19,2024_Apr_12_1457,mian,2021.2.3,59.925057722904214,
