target,反应类型,条件,truetarget,CorAns,Position,congruency,AffValue,flankerPic,targetPic,corAnsF,corAnsA,RestPic,returnPractice.thisRepN,returnPractice.thisTrialN,returnPractice.thisN,returnPractice.thisIndex,pracNum.thisRepN,pracNum.thisTrialN,pracNum.thisN,pracNum.thisIndex,NumBlock1.thisRepN,NumBlock1.thisTrialN,NumBlock1.thisN,NumBlock1.thisIndex,NumBlock2.thisRepN,NumBlock2.thisTrialN,NumBlock2.thisN,NumBlock2.thisIndex,returnPrac.thisRepN,returnPrac.thisTrialN,returnPrac.thisN,returnPrac.thisIndex,PracAff.thisRepN,PracAff.thisTrialN,PracAff.thisN,PracAff.thisIndex,AffBlocks.thisRepN,AffBlocks.thisTrialN,AffBlocks.thisN,AffBlocks.thisIndex,AffBlock1.thisRepN,AffBlock1.thisTrialN,AffBlock1.thisN,AffBlock1.thisIndex,respNum2word.keys,respNum2word.corr,respNum2word.rt,blank.started,text.started,blank.stopped,text.stopped,respFlanker.keys,respFlanker.corr,respFlanker.rt,thisWord,respAffWord.keys,respAffWord.corr,respAffWord.rt,姓名,性别,年龄（周岁）,date,expName,psychopyVersion,frameRate,
2A,1,1,A,a,"[0.2, 0.2]",,,,,,,,0,0,0,0,0,0,0,0,,,,,,,,,,,,,,,,,,,,,,,,,a,1,1.929394200022216,,,,,,,,,,,,db,m,22,2024-04-19_17h36.17.087,mian,2022.2.4,60.03413541422578,
A9,1,2,A,a,"[-0.2, 0.2]",,,,,,,,0,0,0,0,0,1,1,1,,,,,,,,,,,,,,,,,,,,,,,,,a,1,1.187521600004402,,,,,,,,,,,,db,m,22,2024-04-19_17h36.17.087,mian,2022.2.4,60.03413541422578,
7e,2,1,7.0,a,"[-0.2, -0.2]",,,,,,,,0,0,0,0,0,2,2,2,,,,,,,,,,,,,,,,,,,,,,,,,a,1,3.6922640000120737,,,,,,,,,,,,db,m,22,2024-04-19_17h36.17.087,mian,2022.2.4,60.03413541422578,
9H,2,2,9.0,a,"[0.2, -0.2]",,,,,,,,0,0,0,0,0,3,3,3,,,,,,,,,,,,,,,,,,,,,,,,,a,1,2.553395000009914,,,,,,,,,,,,db,m,22,2024-04-19_17h36.17.087,mian,2022.2.4,60.03413541422578,
h4,1,1,h,l,"[0.2, 0.2]",,,,,,,,0,0,0,0,0,4,4,4,,,,,,,,,,,,,,,,,,,,,,,,,l,1,1.7558432000078028,,,,,,,,,,,,db,m,22,2024-04-19_17h36.17.087,mian,2022.2.4,60.03413541422578,
4H,1,2,H,a,"[-0.2, 0.2]",,,,,,,,0,0,0,0,0,5,5,5,,,,,,,,,,,,,,,,,,,,,,,,,a,1,1.1695286000031047,,,,,,,,,,,,db,m,22,2024-04-19_17h36.17.087,mian,2022.2.4,60.03413541422578,
F8,2,1,8.0,l,"[-0.2, -0.2]",,,,,,,,0,0,0,0,0,6,6,6,,,,,,,,,,,,,,,,,,,,,,,,,l,1,2.0753868000174407,,,,,,,,,,,,db,m,22,2024-04-19_17h36.17.087,mian,2022.2.4,60.03413541422578,
h7,2,2,7.0,a,"[0.2, -0.2]",,,,,,,,0,0,0,0,0,7,7,7,,,,,,,,,,,,,,,,,,,,,,,,,a,1,0.9845807000092464,,,,,,,,,,,,db,m,22,2024-04-19_17h36.17.087,mian,2022.2.4,60.03413541422578,
5e,1,1,e,l,"[0.2, 0.2]",,,,,,,,0,0,0,0,0,8,8,8,,,,,,,,,,,,,,,,,,,,,,,,,l,1,1.0246297999983653,,,,,,,,,,,,db,m,22,2024-04-19_17h36.17.087,mian,2022.2.4,60.03413541422578,
e8,1,2,e,l,"[-0.2, 0.2]",,,,,,,,0,0,0,0,0,9,9,9,,,,,,,,,,,,,,,,,,,,,,,,,l,1,1.435733500024071,,,,,,,,,,,,db,m,22,2024-04-19_17h36.17.087,mian,2022.2.4,60.03413541422578,
4E,2,1,4.0,l,"[-0.2, -0.2]",,,,,,,,0,0,0,0,0,10,10,10,,,,,,,,,,,,,,,,,,,,,,,,,l,1,1.7024063999997452,,,,,,,,,,,,db,m,22,2024-04-19_17h36.17.087,mian,2022.2.4,60.03413541422578,
5H,2,2,5.0,a,"[0.2, -0.2]",,,,,,,,0,0,0,0,0,11,11,11,,,,,,,,,,,,,,,,,,,,,,,,,a,1,1.1343335000128718,,,,,,,,,,,,db,m,22,2024-04-19_17h36.17.087,mian,2022.2.4,60.03413541422578,
9E,1,1,E,a,"[0.2, 0.2]",,,,,,,,0,0,0,0,0,12,12,12,,,,,,,,,,,,,,,,,,,,,,,,,a,1,2.7734753000113415,,,,,,,,,,,,db,m,22,2024-04-19_17h36.17.087,mian,2022.2.4,60.03413541422578,
h9,1,2,h,l,"[-0.2, 0.2]",,,,,,,,0,0,0,0,0,13,13,13,,,,,,,,,,,,,,,,,,,,,,,,,l,1,1.0194061000074726,,,,,,,,,,,,db,m,22,2024-04-19_17h36.17.087,mian,2022.2.4,60.03413541422578,
2a,2,1,2.0,l,"[-0.2, -0.2]",,,,,,,,0,0,0,0,0,14,14,14,,,,,,,,,,,,,,,,,,,,,,,,,l,1,1.9061615000246093,,,,,,,,,,,,db,m,22,2024-04-19_17h36.17.087,mian,2022.2.4,60.03413541422578,
e5,2,2,5.0,a,"[0.2, -0.2]",,,,,,,,0,0,0,0,0,15,15,15,,,,,,,,,,,,,,,,,,,,,,,,,a,1,1.1864053000172134,,,,,,,,,,,,db,m,22,2024-04-19_17h36.17.087,mian,2022.2.4,60.03413541422578,
A5,1,1,A,a,"[0.2, 0.2]",,,,,,,,0,0,0,0,0,16,16,16,,,,,,,,,,,,,,,,,,,,,,,,,a,1,0.8260909000091488,,,,,,,,,,,,db,m,22,2024-04-19_17h36.17.087,mian,2022.2.4,60.03413541422578,
a6,1,2,a,l,"[-0.2, 0.2]",,,,,,,,0,0,0,0,0,17,17,17,,,,,,,,,,,,,,,,,,,,,,,,,l,1,0.5533543000055943,,,,,,,,,,,,db,m,22,2024-04-19_17h36.17.087,mian,2022.2.4,60.03413541422578,
2F,2,1,2.0,l,"[-0.2, -0.2]",,,,,,,,0,0,0,0,0,18,18,18,,,,,,,,,,,,,,,,,,,,,,,,,l,1,2.066732500010403,,,,,,,,,,,,db,m,22,2024-04-19_17h36.17.087,mian,2022.2.4,60.03413541422578,
e4,2,2,4.0,l,"[0.2, -0.2]",,,,,,,,0,0,0,0,0,19,19,19,,,,,,,,,,,,,,,,,,,,,,,,,l,1,0.9959781000070507,,,,,,,,,,,,db,m,22,2024-04-19_17h36.17.087,mian,2022.2.4,60.03413541422578,
,,,,,,,,,,,,,0,0,0,0,,,,,,,,,,,,,,,,,,,,,,,,,,,,,,,,,,,,,,,,,,,db,m,22,2024-04-19_17h36.17.087,mian,2022.2.4,60.03413541422578,
7h,1,1,h,l,"[0.2, 0.2]",,,,,,,,,,,,,,,,0,0,0,0,,,,,,,,,,,,,,,,,,,,,l,1,1.396462100019562,,,,,,,,,,,,db,m,22,2024-04-19_17h36.17.087,mian,2022.2.4,60.03413541422578,
8F,1,2,F,a,"[-0.2, 0.2]",,,,,,,,,,,,,,,,0,1,1,1,,,,,,,,,,,,,,,,,,,,,a,1,0.8933298000047216,,,,,,,,,,,,db,m,22,2024-04-19_17h36.17.087,mian,2022.2.4,60.03413541422578,
8h,2,1,8.0,l,"[-0.2, -0.2]",,,,,,,,,,,,,,,,0,2,2,2,,,,,,,,,,,,,,,,,,,,,l,1,1.2448123000067426,,,,,,,,,,,,db,m,22,2024-04-19_17h36.17.087,mian,2022.2.4,60.03413541422578,
a2,2,2,2.0,l,"[0.2, -0.2]",,,,,,,,,,,,,,,,0,3,3,3,,,,,,,,,,,,,,,,,,,,,l,1,0.6236449000134598,,,,,,,,,,,,db,m,22,2024-04-19_17h36.17.087,mian,2022.2.4,60.03413541422578,
8f,1,1,f,l,"[0.2, 0.2]",,,,,,,,,,,,,,,,0,4,4,4,,,,,,,,,,,,,,,,,,,,,l,1,1.1339074000134133,,,,,,,,,,,,db,m,22,2024-04-19_17h36.17.087,mian,2022.2.4,60.03413541422578,
6a,1,2,a,l,"[-0.2, 0.2]",,,,,,,,,,,,,,,,0,5,5,5,,,,,,,,,,,,,,,,,,,,,l,1,0.7521514000109164,,,,,,,,,,,,db,m,22,2024-04-19_17h36.17.087,mian,2022.2.4,60.03413541422578,
h6,2,1,6.0,l,"[-0.2, -0.2]",,,,,,,,,,,,,,,,0,6,6,6,,,,,,,,,,,,,,,,,,,,,l,1,1.2977134000248043,,,,,,,,,,,,db,m,22,2024-04-19_17h36.17.087,mian,2022.2.4,60.03413541422578,
f9,2,2,9.0,a,"[0.2, -0.2]",,,,,,,,,,,,,,,,0,7,7,7,,,,,,,,,,,,,,,,,,,,,a,1,0.8419204000092577,,,,,,,,,,,,db,m,22,2024-04-19_17h36.17.087,mian,2022.2.4,60.03413541422578,
E4,1,1,E,a,"[0.2, 0.2]",,,,,,,,,,,,,,,,0,8,8,8,,,,,,,,,,,,,,,,,,,,,a,1,1.275405900014448,,,,,,,,,,,,db,m,22,2024-04-19_17h36.17.087,mian,2022.2.4,60.03413541422578,
6e,1,2,e,l,"[-0.2, 0.2]",,,,,,,,,,,,,,,,0,9,9,9,,,,,,,,,,,,,,,,,,,,,l,1,0.7761752000224078,,,,,,,,,,,,db,m,22,2024-04-19_17h36.17.087,mian,2022.2.4,60.03413541422578,
5G,2,1,5.0,a,"[-0.2, -0.2]",,,,,,,,,,,,,,,,0,10,10,10,,,,,,,,,,,,,,,,,,,,,a,1,4.33664740002132,,,,,,,,,,,,db,m,22,2024-04-19_17h36.17.087,mian,2022.2.4,60.03413541422578,
h3,2,2,3.0,a,"[0.2, -0.2]",,,,,,,,,,,,,,,,0,11,11,11,,,,,,,,,,,,,,,,,,,,,a,1,0.9612703000166221,,,,,,,,,,,,db,m,22,2024-04-19_17h36.17.087,mian,2022.2.4,60.03413541422578,
9e,1,1,e,l,"[0.2, 0.2]",,,,,,,,,,,,,,,,0,12,12,12,,,,,,,,,,,,,,,,,,,,,l,1,0.8466886000096565,,,,,,,,,,,,db,m,22,2024-04-19_17h36.17.087,mian,2022.2.4,60.03413541422578,
a8,1,2,a,l,"[-0.2, 0.2]",,,,,,,,,,,,,,,,0,13,13,13,,,,,,,,,,,,,,,,,,,,,l,1,0.5602183000009973,,,,,,,,,,,,db,m,22,2024-04-19_17h36.17.087,mian,2022.2.4,60.03413541422578,
e8,2,1,8.0,l,"[-0.2, -0.2]",,,,,,,,,,,,,,,,0,14,14,14,,,,,,,,,,,,,,,,,,,,,l,1,0.5820067000022391,,,,,,,,,,,,db,m,22,2024-04-19_17h36.17.087,mian,2022.2.4,60.03413541422578,
3f,2,2,3.0,a,"[0.2, -0.2]",,,,,,,,,,,,,,,,0,15,15,15,,,,,,,,,,,,,,,,,,,,,a,1,0.737978800010751,,,,,,,,,,,,db,m,22,2024-04-19_17h36.17.087,mian,2022.2.4,60.03413541422578,
7f,1,1,f,l,"[0.2, 0.2]",,,,,,,,,,,,,,,,0,16,16,16,,,,,,,,,,,,,,,,,,,,,l,1,0.8279640000109794,,,,,,,,,,,,db,m,22,2024-04-19_17h36.17.087,mian,2022.2.4,60.03413541422578,
a7,1,2,a,l,"[-0.2, 0.2]",,,,,,,,,,,,,,,,0,17,17,17,,,,,,,,,,,,,,,,,,,,,l,1,0.6626211999973748,,,,,,,,,,,,db,m,22,2024-04-19_17h36.17.087,mian,2022.2.4,60.03413541422578,
5A,2,1,5.0,a,"[-0.2, -0.2]",,,,,,,,,,,,,,,,0,18,18,18,,,,,,,,,,,,,,,,,,,,,a,1,0.6834851000166964,,,,,,,,,,,,db,m,22,2024-04-19_17h36.17.087,mian,2022.2.4,60.03413541422578,
8g,2,2,8.0,l,"[0.2, -0.2]",,,,,,,,,,,,,,,,0,19,19,19,,,,,,,,,,,,,,,,,,,,,l,1,1.6606411000102526,,,,,,,,,,,,db,m,22,2024-04-19_17h36.17.087,mian,2022.2.4,60.03413541422578,
9a,1,1,a,l,"[0.2, 0.2]",,,,,,,,,,,,,,,,0,20,20,20,,,,,,,,,,,,,,,,,,,,,l,1,1.0584713000134798,,,,,,,,,,,,db,m,22,2024-04-19_17h36.17.087,mian,2022.2.4,60.03413541422578,
f7,1,2,f,l,"[-0.2, 0.2]",,,,,,,,,,,,,,,,0,21,21,21,,,,,,,,,,,,,,,,,,,,,l,1,0.5554276000184473,,,,,,,,,,,,db,m,22,2024-04-19_17h36.17.087,mian,2022.2.4,60.03413541422578,
g9,2,1,9.0,a,"[-0.2, -0.2]",,,,,,,,,,,,,,,,0,22,22,22,,,,,,,,,,,,,,,,,,,,,l,0,0.7605442000058247,,,,,,,,,,,,db,m,22,2024-04-19_17h36.17.087,mian,2022.2.4,60.03413541422578,
3h,2,2,3.0,a,"[0.2, -0.2]",,,,,,,,,,,,,,,,0,23,23,23,,,,,,,,,,,,,,,,,,,,,a,1,1.9664982000103919,,,,,,,,,,,,db,m,22,2024-04-19_17h36.17.087,mian,2022.2.4,60.03413541422578,
E6,1,1,E,a,"[0.2, 0.2]",,,,,,,,,,,,,,,,0,24,24,24,,,,,,,,,,,,,,,,,,,,,a,1,1.1835832000069786,,,,,,,,,,,,db,m,22,2024-04-19_17h36.17.087,mian,2022.2.4,60.03413541422578,
F6,1,2,F,a,"[-0.2, 0.2]",,,,,,,,,,,,,,,,0,25,25,25,,,,,,,,,,,,,,,,,,,,,a,1,0.5756842000118922,,,,,,,,,,,,db,m,22,2024-04-19_17h36.17.087,mian,2022.2.4,60.03413541422578,
3A,2,1,3.0,a,"[-0.2, -0.2]",,,,,,,,,,,,,,,,0,26,26,26,,,,,,,,,,,,,,,,,,,,,a,1,2.435830400005216,,,,,,,,,,,,db,m,22,2024-04-19_17h36.17.087,mian,2022.2.4,60.03413541422578,
8H,2,2,8.0,l,"[0.2, -0.2]",,,,,,,,,,,,,,,,0,27,27,27,,,,,,,,,,,,,,,,,,,,,l,1,0.9990558999998029,,,,,,,,,,,,db,m,22,2024-04-19_17h36.17.087,mian,2022.2.4,60.03413541422578,
5a,1,1,a,l,"[0.2, 0.2]",,,,,,,,,,,,,,,,0,28,28,28,,,,,,,,,,,,,,,,,,,,,l,1,0.7911681000114186,,,,,,,,,,,,db,m,22,2024-04-19_17h36.17.087,mian,2022.2.4,60.03413541422578,
2h,1,2,h,l,"[-0.2, 0.2]",,,,,,,,,,,,,,,,0,29,29,29,,,,,,,,,,,,,,,,,,,,,l,1,0.8035959000117145,,,,,,,,,,,,db,m,22,2024-04-19_17h36.17.087,mian,2022.2.4,60.03413541422578,
e5,2,1,5.0,a,"[-0.2, -0.2]",,,,,,,,,,,,,,,,0,30,30,30,,,,,,,,,,,,,,,,,,,,,a,1,0.7582974000106333,,,,,,,,,,,,db,m,22,2024-04-19_17h36.17.087,mian,2022.2.4,60.03413541422578,
a3,2,2,3.0,a,"[0.2, -0.2]",,,,,,,,,,,,,,,,0,31,31,31,,,,,,,,,,,,,,,,,,,,,a,1,1.8117769000091357,,,,,,,,,,,,db,m,22,2024-04-19_17h36.17.087,mian,2022.2.4,60.03413541422578,
f3,1,1,f,l,"[0.2, 0.2]",,,,,,,,,,,,,,,,0,32,32,32,,,,,,,,,,,,,,,,,,,,,l,1,0.988102000017534,,,,,,,,,,,,db,m,22,2024-04-19_17h36.17.087,mian,2022.2.4,60.03413541422578,
2E,1,2,E,a,"[-0.2, 0.2]",,,,,,,,,,,,,,,,0,33,33,33,,,,,,,,,,,,,,,,,,,,,a,1,1.3792282000067644,,,,,,,,,,,,db,m,22,2024-04-19_17h36.17.087,mian,2022.2.4,60.03413541422578,
2H,2,1,2.0,l,"[-0.2, -0.2]",,,,,,,,,,,,,,,,0,34,34,34,,,,,,,,,,,,,,,,,,,,,l,1,3.388489800025127,,,,,,,,,,,,db,m,22,2024-04-19_17h36.17.087,mian,2022.2.4,60.03413541422578,
H8,2,2,8.0,l,"[0.2, -0.2]",,,,,,,,,,,,,,,,0,35,35,35,,,,,,,,,,,,,,,,,,,,,l,1,0.5783801000070525,,,,,,,,,,,,db,m,22,2024-04-19_17h36.17.087,mian,2022.2.4,60.03413541422578,
9g,1,1,g,l,"[0.2, 0.2]",,,,,,,,,,,,,,,,0,36,36,36,,,,,,,,,,,,,,,,,,,,,l,1,1.0987445000064326,,,,,,,,,,,,db,m,22,2024-04-19_17h36.17.087,mian,2022.2.4,60.03413541422578,
5h,1,2,h,l,"[-0.2, 0.2]",,,,,,,,,,,,,,,,0,37,37,37,,,,,,,,,,,,,,,,,,,,,l,1,0.5668115000007674,,,,,,,,,,,,db,m,22,2024-04-19_17h36.17.087,mian,2022.2.4,60.03413541422578,
e4,2,1,4.0,l,"[-0.2, -0.2]",,,,,,,,,,,,,,,,0,38,38,38,,,,,,,,,,,,,,,,,,,,,a,0,0.7673415000172099,,,,,,,,,,,,db,m,22,2024-04-19_17h36.17.087,mian,2022.2.4,60.03413541422578,
9h,2,2,9.0,a,"[0.2, -0.2]",,,,,,,,,,,,,,,,0,39,39,39,,,,,,,,,,,,,,,,,,,,,a,1,0.9243607000098564,,,,,,,,,,,,db,m,22,2024-04-19_17h36.17.087,mian,2022.2.4,60.03413541422578,
G3,1,1,G,a,"[0.2, 0.2]",,,,,,,,,,,,,,,,0,40,40,40,,,,,,,,,,,,,,,,,,,,,a,1,1.0266357000218704,,,,,,,,,,,,db,m,22,2024-04-19_17h36.17.087,mian,2022.2.4,60.03413541422578,
9A,1,2,A,a,"[-0.2, 0.2]",,,,,,,,,,,,,,,,0,41,41,41,,,,,,,,,,,,,,,,,,,,,a,1,0.6008915000129491,,,,,,,,,,,,db,m,22,2024-04-19_17h36.17.087,mian,2022.2.4,60.03413541422578,
H5,2,1,5.0,a,"[-0.2, -0.2]",,,,,,,,,,,,,,,,0,42,42,42,,,,,,,,,,,,,,,,,,,,,a,1,2.4369968000100926,,,,,,,,,,,,db,m,22,2024-04-19_17h36.17.087,mian,2022.2.4,60.03413541422578,
4e,2,2,4.0,l,"[0.2, -0.2]",,,,,,,,,,,,,,,,0,43,43,43,,,,,,,,,,,,,,,,,,,,,l,1,0.5032416000176454,,,,,,,,,,,,db,m,22,2024-04-19_17h36.17.087,mian,2022.2.4,60.03413541422578,
E2,1,1,E,a,"[0.2, 0.2]",,,,,,,,,,,,,,,,0,44,44,44,,,,,,,,,,,,,,,,,,,,,a,1,0.9023041000036756,,,,,,,,,,,,db,m,22,2024-04-19_17h36.17.087,mian,2022.2.4,60.03413541422578,
A5,1,2,A,a,"[-0.2, 0.2]",,,,,,,,,,,,,,,,0,45,45,45,,,,,,,,,,,,,,,,,,,,,a,1,0.766528100008145,,,,,,,,,,,,db,m,22,2024-04-19_17h36.17.087,mian,2022.2.4,60.03413541422578,
2A,2,1,2.0,l,"[-0.2, -0.2]",,,,,,,,,,,,,,,,0,46,46,46,,,,,,,,,,,,,,,,,,,,,l,1,2.4148998000164283,,,,,,,,,,,,db,m,22,2024-04-19_17h36.17.087,mian,2022.2.4,60.03413541422578,
6G,2,2,6.0,l,"[0.2, -0.2]",,,,,,,,,,,,,,,,0,47,47,47,,,,,,,,,,,,,,,,,,,,,l,1,0.45943660000921227,,,,,,,,,,,,db,m,22,2024-04-19_17h36.17.087,mian,2022.2.4,60.03413541422578,
H3,1,1,H,a,"[0.2, 0.2]",,,,,,,,,,,,,,,,0,48,48,48,,,,,,,,,,,,,,,,,,,,,a,1,0.6495151000126498,,,,,,,,,,,,db,m,22,2024-04-19_17h36.17.087,mian,2022.2.4,60.03413541422578,
H2,1,2,H,a,"[-0.2, 0.2]",,,,,,,,,,,,,,,,0,49,49,49,,,,,,,,,,,,,,,,,,,,,a,1,0.5821628000121564,,,,,,,,,,,,db,m,22,2024-04-19_17h36.17.087,mian,2022.2.4,60.03413541422578,
e9,2,1,9.0,a,"[-0.2, -0.2]",,,,,,,,,,,,,,,,0,50,50,50,,,,,,,,,,,,,,,,,,,,,a,1,3.6588237000105437,,,,,,,,,,,,db,m,22,2024-04-19_17h36.17.087,mian,2022.2.4,60.03413541422578,
2G,2,2,2.0,l,"[0.2, -0.2]",,,,,,,,,,,,,,,,0,51,51,51,,,,,,,,,,,,,,,,,,,,,l,1,0.5495929000026081,,,,,,,,,,,,db,m,22,2024-04-19_17h36.17.087,mian,2022.2.4,60.03413541422578,
4f,1,1,f,l,"[0.2, 0.2]",,,,,,,,,,,,,,,,0,52,52,52,,,,,,,,,,,,,,,,,,,,,l,1,0.588013000000501,,,,,,,,,,,,db,m,22,2024-04-19_17h36.17.087,mian,2022.2.4,60.03413541422578,
H6,1,2,H,a,"[-0.2, 0.2]",,,,,,,,,,,,,,,,0,53,53,53,,,,,,,,,,,,,,,,,,,,,a,1,0.6553945000050589,,,,,,,,,,,,db,m,22,2024-04-19_17h36.17.087,mian,2022.2.4,60.03413541422578,
A4,2,1,4.0,l,"[-0.2, -0.2]",,,,,,,,,,,,,,,,0,54,54,54,,,,,,,,,,,,,,,,,,,,,l,1,1.1728959000029135,,,,,,,,,,,,db,m,22,2024-04-19_17h36.17.087,mian,2022.2.4,60.03413541422578,
3F,2,2,3.0,a,"[0.2, -0.2]",,,,,,,,,,,,,,,,0,55,55,55,,,,,,,,,,,,,,,,,,,,,a,1,0.5978125000110595,,,,,,,,,,,,db,m,22,2024-04-19_17h36.17.087,mian,2022.2.4,60.03413541422578,
7e,1,1,e,l,"[0.2, 0.2]",,,,,,,,,,,,,,,,0,56,56,56,,,,,,,,,,,,,,,,,,,,,l,1,0.45312010000634473,,,,,,,,,,,,db,m,22,2024-04-19_17h36.17.087,mian,2022.2.4,60.03413541422578,
F9,1,2,F,a,"[-0.2, 0.2]",,,,,,,,,,,,,,,,0,57,57,57,,,,,,,,,,,,,,,,,,,,,a,1,1.4868025000032503,,,,,,,,,,,,db,m,22,2024-04-19_17h36.17.087,mian,2022.2.4,60.03413541422578,
e2,2,1,2.0,l,"[-0.2, -0.2]",,,,,,,,,,,,,,,,0,58,58,58,,,,,,,,,,,,,,,,,,,,,l,1,3.1792010000062874,,,,,,,,,,,,db,m,22,2024-04-19_17h36.17.087,mian,2022.2.4,60.03413541422578,
5F,2,2,5.0,a,"[0.2, -0.2]",,,,,,,,,,,,,,,,0,59,59,59,,,,,,,,,,,,,,,,,,,,,a,1,0.8725718000059715,,,,,,,,,,,,db,m,22,2024-04-19_17h36.17.087,mian,2022.2.4,60.03413541422578,
f6,1,1,f,l,"[0.2, 0.2]",,,,,,,,,,,,,,,,0,60,60,60,,,,,,,,,,,,,,,,,,,,,l,1,0.5451740000135032,,,,,,,,,,,,db,m,22,2024-04-19_17h36.17.087,mian,2022.2.4,60.03413541422578,
7G,1,2,G,a,"[-0.2, 0.2]",,,,,,,,,,,,,,,,0,61,61,61,,,,,,,,,,,,,,,,,,,,,a,1,0.5790925000037532,,,,,,,,,,,,db,m,22,2024-04-19_17h36.17.087,mian,2022.2.4,60.03413541422578,
e6,2,1,6.0,l,"[-0.2, -0.2]",,,,,,,,,,,,,,,,0,62,62,62,,,,,,,,,,,,,,,,,,,,,l,1,0.6921125000080792,,,,,,,,,,,,db,m,22,2024-04-19_17h36.17.087,mian,2022.2.4,60.03413541422578,
3G,2,2,3.0,a,"[0.2, -0.2]",,,,,,,,,,,,,,,,0,63,63,63,,,,,,,,,,,,,,,,,,,,,a,1,0.6602276000048732,,,,,,,,,,,,db,m,22,2024-04-19_17h36.17.087,mian,2022.2.4,60.03413541422578,
5E,1,1,E,a,"[0.2, 0.2]",,,,,,,,,,,,,,,,0,64,64,64,,,,,,,,,,,,,,,,,,,,,a,1,0.9568393000081414,,,,,,,,,,,,db,m,22,2024-04-19_17h36.17.087,mian,2022.2.4,60.03413541422578,
A6,1,2,A,a,"[-0.2, 0.2]",,,,,,,,,,,,,,,,0,65,65,65,,,,,,,,,,,,,,,,,,,,,a,1,0.6111887000006391,,,,,,,,,,,,db,m,22,2024-04-19_17h36.17.087,mian,2022.2.4,60.03413541422578,
E3,2,1,3.0,a,"[-0.2, -0.2]",,,,,,,,,,,,,,,,0,66,66,66,,,,,,,,,,,,,,,,,,,,,l,0,2.3899695000000065,,,,,,,,,,,,db,m,22,2024-04-19_17h36.17.087,mian,2022.2.4,60.03413541422578,
2f,2,2,2.0,l,"[0.2, -0.2]",,,,,,,,,,,,,,,,0,67,67,67,,,,,,,,,,,,,,,,,,,,,l,1,0.639039200003026,,,,,,,,,,,,db,m,22,2024-04-19_17h36.17.087,mian,2022.2.4,60.03413541422578,
g3,1,1,g,l,"[0.2, 0.2]",,,,,,,,,,,,,,,,0,68,68,68,,,,,,,,,,,,,,,,,,,,,l,1,2.4850860000005923,,,,,,,,,,,,db,m,22,2024-04-19_17h36.17.087,mian,2022.2.4,60.03413541422578,
E8,1,2,E,a,"[-0.2, 0.2]",,,,,,,,,,,,,,,,0,69,69,69,,,,,,,,,,,,,,,,,,,,,a,1,0.6293883000034839,,,,,,,,,,,,db,m,22,2024-04-19_17h36.17.087,mian,2022.2.4,60.03413541422578,
6g,2,1,6.0,l,"[-0.2, -0.2]",,,,,,,,,,,,,,,,0,70,70,70,,,,,,,,,,,,,,,,,,,,,l,1,0.9078098000172758,,,,,,,,,,,,db,m,22,2024-04-19_17h36.17.087,mian,2022.2.4,60.03413541422578,
5H,2,2,5.0,a,"[0.2, -0.2]",,,,,,,,,,,,,,,,0,71,71,71,,,,,,,,,,,,,,,,,,,,,a,1,0.7675708000169834,,,,,,,,,,,,db,m,22,2024-04-19_17h36.17.087,mian,2022.2.4,60.03413541422578,
4A,1,1,A,a,"[0.2, 0.2]",,,,,,,,,,,,,,,,0,72,72,72,,,,,,,,,,,,,,,,,,,,,a,1,0.9759725000039907,,,,,,,,,,,,db,m,22,2024-04-19_17h36.17.087,mian,2022.2.4,60.03413541422578,
7F,1,2,F,a,"[-0.2, 0.2]",,,,,,,,,,,,,,,,0,73,73,73,,,,,,,,,,,,,,,,,,,,,a,1,0.8732519000186585,,,,,,,,,,,,db,m,22,2024-04-19_17h36.17.087,mian,2022.2.4,60.03413541422578,
6H,2,1,6.0,l,"[-0.2, -0.2]",,,,,,,,,,,,,,,,0,74,74,74,,,,,,,,,,,,,,,,,,,,,l,1,1.525163700018311,,,,,,,,,,,,db,m,22,2024-04-19_17h36.17.087,mian,2022.2.4,60.03413541422578,
3a,2,2,3.0,a,"[0.2, -0.2]",,,,,,,,,,,,,,,,0,75,75,75,,,,,,,,,,,,,,,,,,,,,a,1,0.6126107000018237,,,,,,,,,,,,db,m,22,2024-04-19_17h36.17.087,mian,2022.2.4,60.03413541422578,
9F,1,1,F,a,"[0.2, 0.2]",,,,,,,,,,,,,,,,0,76,76,76,,,,,,,,,,,,,,,,,,,,,a,1,1.5636158000124851,,,,,,,,,,,,db,m,22,2024-04-19_17h36.17.087,mian,2022.2.4,60.03413541422578,
G7,1,2,G,a,"[-0.2, 0.2]",,,,,,,,,,,,,,,,0,77,77,77,,,,,,,,,,,,,,,,,,,,,a,1,0.741540500006522,,,,,,,,,,,,db,m,22,2024-04-19_17h36.17.087,mian,2022.2.4,60.03413541422578,
a6,2,1,6.0,l,"[-0.2, -0.2]",,,,,,,,,,,,,,,,0,78,78,78,,,,,,,,,,,,,,,,,,,,,l,1,2.292047700015246,,,,,,,,,,,,db,m,22,2024-04-19_17h36.17.087,mian,2022.2.4,60.03413541422578,
4h,2,2,4.0,l,"[0.2, -0.2]",,,,,,,,,,,,,,,,0,79,79,79,,,,,,,,,,,,,,,,,,,,,l,1,1.1205001000053016,,,,,,,,,,,,db,m,22,2024-04-19_17h36.17.087,mian,2022.2.4,60.03413541422578,
6A,1,1,A,a,"[0.2, 0.2]",,,,,,,,,,,,,,,,,,,,0,0,0,0,,,,,,,,,,,,,,,,,a,1,0.9134327000065241,,,,,,,,,,,,db,m,22,2024-04-19_17h36.17.087,mian,2022.2.4,60.03413541422578,
4H,1,2,H,a,"[-0.2, 0.2]",,,,,,,,,,,,,,,,,,,,0,1,1,1,,,,,,,,,,,,,,,,,a,1,0.4883904000162147,,,,,,,,,,,,db,m,22,2024-04-19_17h36.17.087,mian,2022.2.4,60.03413541422578,
3H,2,1,3.0,a,"[-0.2, -0.2]",,,,,,,,,,,,,,,,,,,,0,2,2,2,,,,,,,,,,,,,,,,,a,1,1.3008500000141794,,,,,,,,,,,,db,m,22,2024-04-19_17h36.17.087,mian,2022.2.4,60.03413541422578,
a9,2,2,9.0,a,"[0.2, -0.2]",,,,,,,,,,,,,,,,,,,,0,3,3,3,,,,,,,,,,,,,,,,,a,1,0.7488374000095064,,,,,,,,,,,,db,m,22,2024-04-19_17h36.17.087,mian,2022.2.4,60.03413541422578,
E7,1,1,E,a,"[0.2, 0.2]",,,,,,,,,,,,,,,,,,,,0,4,4,4,,,,,,,,,,,,,,,,,a,1,0.8907571000017924,,,,,,,,,,,,db,m,22,2024-04-19_17h36.17.087,mian,2022.2.4,60.03413541422578,
6h,1,2,h,l,"[-0.2, 0.2]",,,,,,,,,,,,,,,,,,,,0,5,5,5,,,,,,,,,,,,,,,,,l,1,0.6420929000159958,,,,,,,,,,,,db,m,22,2024-04-19_17h36.17.087,mian,2022.2.4,60.03413541422578,
8A,2,1,8.0,l,"[-0.2, -0.2]",,,,,,,,,,,,,,,,,,,,0,6,6,6,,,,,,,,,,,,,,,,,l,1,0.8801399000076344,,,,,,,,,,,,db,m,22,2024-04-19_17h36.17.087,mian,2022.2.4,60.03413541422578,
f5,2,2,5.0,a,"[0.2, -0.2]",,,,,,,,,,,,,,,,,,,,0,7,7,7,,,,,,,,,,,,,,,,,a,1,1.172934100002749,,,,,,,,,,,,db,m,22,2024-04-19_17h36.17.087,mian,2022.2.4,60.03413541422578,
2a,1,1,a,l,"[0.2, 0.2]",,,,,,,,,,,,,,,,,,,,0,8,8,8,,,,,,,,,,,,,,,,,l,1,1.4978080000146292,,,,,,,,,,,,db,m,22,2024-04-19_17h36.17.087,mian,2022.2.4,60.03413541422578,
F7,1,2,F,a,"[-0.2, 0.2]",,,,,,,,,,,,,,,,,,,,0,9,9,9,,,,,,,,,,,,,,,,,a,1,0.6337559000094188,,,,,,,,,,,,db,m,22,2024-04-19_17h36.17.087,mian,2022.2.4,60.03413541422578,
h2,2,1,2.0,l,"[-0.2, -0.2]",,,,,,,,,,,,,,,,,,,,0,10,10,10,,,,,,,,,,,,,,,,,l,1,1.6080761000193888,,,,,,,,,,,,db,m,22,2024-04-19_17h36.17.087,mian,2022.2.4,60.03413541422578,
F5,2,2,5.0,a,"[0.2, -0.2]",,,,,,,,,,,,,,,,,,,,0,11,11,11,,,,,,,,,,,,,,,,,a,1,0.9117351000022609,,,,,,,,,,,,db,m,22,2024-04-19_17h36.17.087,mian,2022.2.4,60.03413541422578,
A9,1,1,A,a,"[0.2, 0.2]",,,,,,,,,,,,,,,,,,,,0,12,12,12,,,,,,,,,,,,,,,,,a,1,1.1827737000130583,,,,,,,,,,,,db,m,22,2024-04-19_17h36.17.087,mian,2022.2.4,60.03413541422578,
3e,1,2,e,l,"[-0.2, 0.2]",,,,,,,,,,,,,,,,,,,,0,13,13,13,,,,,,,,,,,,,,,,,l,1,2.760385800007498,,,,,,,,,,,,db,m,22,2024-04-19_17h36.17.087,mian,2022.2.4,60.03413541422578,
f8,2,1,8.0,l,"[-0.2, -0.2]",,,,,,,,,,,,,,,,,,,,0,14,14,14,,,,,,,,,,,,,,,,,l,1,1.102706500023487,,,,,,,,,,,,db,m,22,2024-04-19_17h36.17.087,mian,2022.2.4,60.03413541422578,
G2,2,2,2.0,l,"[0.2, -0.2]",,,,,,,,,,,,,,,,,,,,0,15,15,15,,,,,,,,,,,,,,,,,l,1,0.6978637000138406,,,,,,,,,,,,db,m,22,2024-04-19_17h36.17.087,mian,2022.2.4,60.03413541422578,
F2,1,1,F,a,"[0.2, 0.2]",,,,,,,,,,,,,,,,,,,,0,16,16,16,,,,,,,,,,,,,,,,,a,1,0.7334304000105476,,,,,,,,,,,,db,m,22,2024-04-19_17h36.17.087,mian,2022.2.4,60.03413541422578,
5e,1,2,e,l,"[-0.2, 0.2]",,,,,,,,,,,,,,,,,,,,0,17,17,17,,,,,,,,,,,,,,,,,l,1,0.9557430000131717,,,,,,,,,,,,db,m,22,2024-04-19_17h36.17.087,mian,2022.2.4,60.03413541422578,
A3,2,1,3.0,a,"[-0.2, -0.2]",,,,,,,,,,,,,,,,,,,,0,18,18,18,,,,,,,,,,,,,,,,,a,1,3.077009500004351,,,,,,,,,,,,db,m,22,2024-04-19_17h36.17.087,mian,2022.2.4,60.03413541422578,
4g,2,2,4.0,l,"[0.2, -0.2]",,,,,,,,,,,,,,,,,,,,0,19,19,19,,,,,,,,,,,,,,,,,l,1,0.6789145000075223,,,,,,,,,,,,db,m,22,2024-04-19_17h36.17.087,mian,2022.2.4,60.03413541422578,
h7,1,1,h,l,"[0.2, 0.2]",,,,,,,,,,,,,,,,,,,,0,20,20,20,,,,,,,,,,,,,,,,,l,1,1.5475847000052454,,,,,,,,,,,,db,m,22,2024-04-19_17h36.17.087,mian,2022.2.4,60.03413541422578,
3g,1,2,g,l,"[-0.2, 0.2]",,,,,,,,,,,,,,,,,,,,0,21,21,21,,,,,,,,,,,,,,,,,l,1,0.5023508000012953,,,,,,,,,,,,db,m,22,2024-04-19_17h36.17.087,mian,2022.2.4,60.03413541422578,
8a,2,1,8.0,l,"[-0.2, -0.2]",,,,,,,,,,,,,,,,,,,,0,22,22,22,,,,,,,,,,,,,,,,,l,1,0.5126422000030288,,,,,,,,,,,,db,m,22,2024-04-19_17h36.17.087,mian,2022.2.4,60.03413541422578,
4E,2,2,4.0,l,"[0.2, -0.2]",,,,,,,,,,,,,,,,,,,,0,23,23,23,,,,,,,,,,,,,,,,,l,1,0.6561962000123458,,,,,,,,,,,,db,m,22,2024-04-19_17h36.17.087,mian,2022.2.4,60.03413541422578,
E5,1,1,E,a,"[0.2, 0.2]",,,,,,,,,,,,,,,,,,,,0,24,24,24,,,,,,,,,,,,,,,,,a,1,1.5094084000011208,,,,,,,,,,,,db,m,22,2024-04-19_17h36.17.087,mian,2022.2.4,60.03413541422578,
g6,1,2,g,l,"[-0.2, 0.2]",,,,,,,,,,,,,,,,,,,,0,25,25,25,,,,,,,,,,,,,,,,,l,1,0.7528491000120994,,,,,,,,,,,,db,m,22,2024-04-19_17h36.17.087,mian,2022.2.4,60.03413541422578,
2e,2,1,2.0,l,"[-0.2, -0.2]",,,,,,,,,,,,,,,,,,,,0,26,26,26,,,,,,,,,,,,,,,,,l,1,0.7302204000006896,,,,,,,,,,,,db,m,22,2024-04-19_17h36.17.087,mian,2022.2.4,60.03413541422578,
h8,2,2,8.0,l,"[0.2, -0.2]",,,,,,,,,,,,,,,,,,,,0,27,27,27,,,,,,,,,,,,,,,,,l,1,2.2690033000108087,,,,,,,,,,,,db,m,22,2024-04-19_17h36.17.087,mian,2022.2.4,60.03413541422578,
G6,1,1,G,a,"[0.2, 0.2]",,,,,,,,,,,,,,,,,,,,0,28,28,28,,,,,,,,,,,,,,,,,a,1,0.5982287000078941,,,,,,,,,,,,db,m,22,2024-04-19_17h36.17.087,mian,2022.2.4,60.03413541422578,
a4,1,2,a,l,"[-0.2, 0.2]",,,,,,,,,,,,,,,,,,,,0,29,29,29,,,,,,,,,,,,,,,,,l,1,0.6584860000148183,,,,,,,,,,,,db,m,22,2024-04-19_17h36.17.087,mian,2022.2.4,60.03413541422578,
9H,2,1,9.0,a,"[-0.2, -0.2]",,,,,,,,,,,,,,,,,,,,0,30,30,30,,,,,,,,,,,,,,,,,a,1,0.7643990000069607,,,,,,,,,,,,db,m,22,2024-04-19_17h36.17.087,mian,2022.2.4,60.03413541422578,
7H,2,2,7.0,a,"[0.2, -0.2]",,,,,,,,,,,,,,,,,,,,0,31,31,31,,,,,,,,,,,,,,,,,a,1,0.7208556000114186,,,,,,,,,,,,db,m,22,2024-04-19_17h36.17.087,mian,2022.2.4,60.03413541422578,
9f,1,1,f,l,"[0.2, 0.2]",,,,,,,,,,,,,,,,,,,,0,32,32,32,,,,,,,,,,,,,,,,,l,1,0.7874815000104718,,,,,,,,,,,,db,m,22,2024-04-19_17h36.17.087,mian,2022.2.4,60.03413541422578,
8E,1,2,E,a,"[-0.2, 0.2]",,,,,,,,,,,,,,,,,,,,0,33,33,33,,,,,,,,,,,,,,,,,a,1,1.4236778000195045,,,,,,,,,,,,db,m,22,2024-04-19_17h36.17.087,mian,2022.2.4,60.03413541422578,
A2,2,1,2.0,l,"[-0.2, -0.2]",,,,,,,,,,,,,,,,,,,,0,34,34,34,,,,,,,,,,,,,,,,,l,1,0.6863074000139022,,,,,,,,,,,,db,m,22,2024-04-19_17h36.17.087,mian,2022.2.4,60.03413541422578,
H7,2,2,7.0,a,"[0.2, -0.2]",,,,,,,,,,,,,,,,,,,,0,35,35,35,,,,,,,,,,,,,,,,,a,1,0.7350738000095589,,,,,,,,,,,,db,m,22,2024-04-19_17h36.17.087,mian,2022.2.4,60.03413541422578,
h9,1,1,h,l,"[0.2, 0.2]",,,,,,,,,,,,,,,,,,,,0,36,36,36,,,,,,,,,,,,,,,,,l,1,1.2530065000173636,,,,,,,,,,,,db,m,22,2024-04-19_17h36.17.087,mian,2022.2.4,60.03413541422578,
8G,1,2,G,a,"[-0.2, 0.2]",,,,,,,,,,,,,,,,,,,,0,37,37,37,,,,,,,,,,,,,,,,,a,1,0.7465656000131276,,,,,,,,,,,,db,m,22,2024-04-19_17h36.17.087,mian,2022.2.4,60.03413541422578,
H4,2,1,4.0,l,"[-0.2, -0.2]",,,,,,,,,,,,,,,,,,,,0,38,38,38,,,,,,,,,,,,,,,,,l,1,0.6477883000043221,,,,,,,,,,,,db,m,22,2024-04-19_17h36.17.087,mian,2022.2.4,60.03413541422578,
A8,2,2,8.0,l,"[0.2, -0.2]",,,,,,,,,,,,,,,,,,,,0,39,39,39,,,,,,,,,,,,,,,,,l,1,0.7304917000001296,,,,,,,,,,,,db,m,22,2024-04-19_17h36.17.087,mian,2022.2.4,60.03413541422578,
g7,1,1,g,l,"[0.2, 0.2]",,,,,,,,,,,,,,,,,,,,0,40,40,40,,,,,,,,,,,,,,,,,l,1,2.2370082000124967,,,,,,,,,,,,db,m,22,2024-04-19_17h36.17.087,mian,2022.2.4,60.03413541422578,
H9,1,2,H,a,"[-0.2, 0.2]",,,,,,,,,,,,,,,,,,,,0,41,41,41,,,,,,,,,,,,,,,,,a,1,1.1350281000050018,,,,,,,,,,,,db,m,22,2024-04-19_17h36.17.087,mian,2022.2.4,60.03413541422578,
9E,2,1,9.0,a,"[-0.2, -0.2]",,,,,,,,,,,,,,,,,,,,0,42,42,42,,,,,,,,,,,,,,,,,a,1,2.641862200005562,,,,,,,,,,,,db,m,22,2024-04-19_17h36.17.087,mian,2022.2.4,60.03413541422578,
a5,2,2,5.0,a,"[0.2, -0.2]",,,,,,,,,,,,,,,,,,,,0,43,43,43,,,,,,,,,,,,,,,,,a,1,0.6920308000117075,,,,,,,,,,,,db,m,22,2024-04-19_17h36.17.087,mian,2022.2.4,60.03413541422578,
3E,1,1,E,a,"[0.2, 0.2]",,,,,,,,,,,,,,,,,,,,0,44,44,44,,,,,,,,,,,,,,,,,a,1,1.684736500013969,,,,,,,,,,,,db,m,22,2024-04-19_17h36.17.087,mian,2022.2.4,60.03413541422578,
6f,1,2,f,l,"[-0.2, 0.2]",,,,,,,,,,,,,,,,,,,,0,45,45,45,,,,,,,,,,,,,,,,,l,1,0.5684579000226222,,,,,,,,,,,,db,m,22,2024-04-19_17h36.17.087,mian,2022.2.4,60.03413541422578,
g8,2,1,8.0,l,"[-0.2, -0.2]",,,,,,,,,,,,,,,,,,,,0,46,46,46,,,,,,,,,,,,,,,,,l,1,0.5336893000057898,,,,,,,,,,,,db,m,22,2024-04-19_17h36.17.087,mian,2022.2.4,60.03413541422578,
4F,2,2,4.0,l,"[0.2, -0.2]",,,,,,,,,,,,,,,,,,,,0,47,47,47,,,,,,,,,,,,,,,,,l,1,0.4956284000072628,,,,,,,,,,,,db,m,22,2024-04-19_17h36.17.087,mian,2022.2.4,60.03413541422578,
4a,1,1,a,l,"[0.2, 0.2]",,,,,,,,,,,,,,,,,,,,0,48,48,48,,,,,,,,,,,,,,,,,l,1,0.582844100004877,,,,,,,,,,,,db,m,22,2024-04-19_17h36.17.087,mian,2022.2.4,60.03413541422578,
e3,1,2,e,l,"[-0.2, 0.2]",,,,,,,,,,,,,,,,,,,,0,49,49,49,,,,,,,,,,,,,,,,,l,1,0.5438180000055581,,,,,,,,,,,,db,m,22,2024-04-19_17h36.17.087,mian,2022.2.4,60.03413541422578,
5g,2,1,5.0,a,"[-0.2, -0.2]",,,,,,,,,,,,,,,,,,,,0,50,50,50,,,,,,,,,,,,,,,,,a,1,2.053525000010268,,,,,,,,,,,,db,m,22,2024-04-19_17h36.17.087,mian,2022.2.4,60.03413541422578,
f4,2,2,4.0,l,"[0.2, -0.2]",,,,,,,,,,,,,,,,,,,,0,51,51,51,,,,,,,,,,,,,,,,,l,1,0.6592267000232823,,,,,,,,,,,,db,m,22,2024-04-19_17h36.17.087,mian,2022.2.4,60.03413541422578,
6E,1,1,E,a,"[0.2, 0.2]",,,,,,,,,,,,,,,,,,,,0,52,52,52,,,,,,,,,,,,,,,,,a,1,1.1648047000053339,,,,,,,,,,,,db,m,22,2024-04-19_17h36.17.087,mian,2022.2.4,60.03413541422578,
7A,1,2,A,a,"[-0.2, 0.2]",,,,,,,,,,,,,,,,,,,,0,53,53,53,,,,,,,,,,,,,,,,,a,1,0.5387275000102818,,,,,,,,,,,,db,m,22,2024-04-19_17h36.17.087,mian,2022.2.4,60.03413541422578,
F4,2,1,4.0,l,"[-0.2, -0.2]",,,,,,,,,,,,,,,,,,,,0,54,54,54,,,,,,,,,,,,,,,,,l,1,1.7686853000050178,,,,,,,,,,,,db,m,22,2024-04-19_17h36.17.087,mian,2022.2.4,60.03413541422578,
2g,2,2,2.0,l,"[0.2, -0.2]",,,,,,,,,,,,,,,,,,,,0,55,55,55,,,,,,,,,,,,,,,,,l,1,0.5212817000137875,,,,,,,,,,,,db,m,22,2024-04-19_17h36.17.087,mian,2022.2.4,60.03413541422578,
7E,1,1,E,a,"[0.2, 0.2]",,,,,,,,,,,,,,,,,,,,0,56,56,56,,,,,,,,,,,,,,,,,a,1,1.6879704000166385,,,,,,,,,,,,db,m,22,2024-04-19_17h36.17.087,mian,2022.2.4,60.03413541422578,
G4,1,2,G,a,"[-0.2, 0.2]",,,,,,,,,,,,,,,,,,,,0,57,57,57,,,,,,,,,,,,,,,,,a,1,0.6807028000039281,,,,,,,,,,,,db,m,22,2024-04-19_17h36.17.087,mian,2022.2.4,60.03413541422578,
2F,2,1,2.0,l,"[-0.2, -0.2]",,,,,,,,,,,,,,,,,,,,0,58,58,58,,,,,,,,,,,,,,,,,l,1,0.5214031000068644,,,,,,,,,,,,db,m,22,2024-04-19_17h36.17.087,mian,2022.2.4,60.03413541422578,
E9,2,2,9.0,a,"[0.2, -0.2]",,,,,,,,,,,,,,,,,,,,0,59,59,59,,,,,,,,,,,,,,,,,a,1,0.7317817000148352,,,,,,,,,,,,db,m,22,2024-04-19_17h36.17.087,mian,2022.2.4,60.03413541422578,
5f,1,1,f,l,"[0.2, 0.2]",,,,,,,,,,,,,,,,,,,,0,60,60,60,,,,,,,,,,,,,,,,,l,1,0.8705181999976048,,,,,,,,,,,,db,m,22,2024-04-19_17h36.17.087,mian,2022.2.4,60.03413541422578,
e7,1,2,e,l,"[-0.2, 0.2]",,,,,,,,,,,,,,,,,,,,0,61,61,61,,,,,,,,,,,,,,,,,l,1,0.8184633000200847,,,,,,,,,,,,db,m,22,2024-04-19_17h36.17.087,mian,2022.2.4,60.03413541422578,
f2,2,1,2.0,l,"[-0.2, -0.2]",,,,,,,,,,,,,,,,,,,,0,62,62,62,,,,,,,,,,,,,,,,,l,1,0.8454675000102725,,,,,,,,,,,,db,m,22,2024-04-19_17h36.17.087,mian,2022.2.4,60.03413541422578,
G9,2,2,9.0,a,"[0.2, -0.2]",,,,,,,,,,,,,,,,,,,,0,63,63,63,,,,,,,,,,,,,,,,,a,1,0.7273751000175253,,,,,,,,,,,,db,m,22,2024-04-19_17h36.17.087,mian,2022.2.4,60.03413541422578,
7g,1,1,g,l,"[0.2, 0.2]",,,,,,,,,,,,,,,,,,,,0,64,64,64,,,,,,,,,,,,,,,,,l,1,0.5705577000189805,,,,,,,,,,,,db,m,22,2024-04-19_17h36.17.087,mian,2022.2.4,60.03413541422578,
F8,1,2,F,a,"[-0.2, 0.2]",,,,,,,,,,,,,,,,,,,,0,65,65,65,,,,,,,,,,,,,,,,,a,1,0.6025403000094229,,,,,,,,,,,,db,m,22,2024-04-19_17h36.17.087,mian,2022.2.4,60.03413541422578,
A7,2,1,7.0,a,"[-0.2, -0.2]",,,,,,,,,,,,,,,,,,,,0,66,66,66,,,,,,,,,,,,,,,,,a,1,1.3900607000105083,,,,,,,,,,,,db,m,22,2024-04-19_17h36.17.087,mian,2022.2.4,60.03413541422578,
4G,2,2,4.0,l,"[0.2, -0.2]",,,,,,,,,,,,,,,,,,,,0,67,67,67,,,,,,,,,,,,,,,,,l,1,0.5861363000003621,,,,,,,,,,,,db,m,22,2024-04-19_17h36.17.087,mian,2022.2.4,60.03413541422578,
g2,1,1,g,l,"[0.2, 0.2]",,,,,,,,,,,,,,,,,,,,0,68,68,68,,,,,,,,,,,,,,,,,l,1,1.410003200013307,,,,,,,,,,,,db,m,22,2024-04-19_17h36.17.087,mian,2022.2.4,60.03413541422578,
g4,1,2,g,l,"[-0.2, 0.2]",,,,,,,,,,,,,,,,,,,,0,69,69,69,,,,,,,,,,,,,,,,,l,1,0.4497847000020556,,,,,,,,,,,,db,m,22,2024-04-19_17h36.17.087,mian,2022.2.4,60.03413541422578,
7a,2,1,7.0,a,"[-0.2, -0.2]",,,,,,,,,,,,,,,,,,,,0,70,70,70,,,,,,,,,,,,,,,,,a,1,0.6434697000076994,,,,,,,,,,,,db,m,22,2024-04-19_17h36.17.087,mian,2022.2.4,60.03413541422578,
8e,2,2,8.0,l,"[0.2, -0.2]",,,,,,,,,,,,,,,,,,,,0,71,71,71,,,,,,,,,,,,,,,,,l,1,1.0133792999986326,,,,,,,,,,,,db,m,22,2024-04-19_17h36.17.087,mian,2022.2.4,60.03413541422578,
h4,1,1,h,l,"[0.2, 0.2]",,,,,,,,,,,,,,,,,,,,0,72,72,72,,,,,,,,,,,,,,,,,l,1,1.6132137000240618,,,,,,,,,,,,db,m,22,2024-04-19_17h36.17.087,mian,2022.2.4,60.03413541422578,
G8,1,2,G,a,"[-0.2, 0.2]",,,,,,,,,,,,,,,,,,,,0,73,73,73,,,,,,,,,,,,,,,,,a,1,0.5887252000102308,,,,,,,,,,,,db,m,22,2024-04-19_17h36.17.087,mian,2022.2.4,60.03413541422578,
6F,2,1,6.0,l,"[-0.2, -0.2]",,,,,,,,,,,,,,,,,,,,0,74,74,74,,,,,,,,,,,,,,,,,l,1,0.6576222000148846,,,,,,,,,,,,db,m,22,2024-04-19_17h36.17.087,mian,2022.2.4,60.03413541422578,
g5,2,2,5.0,a,"[0.2, -0.2]",,,,,,,,,,,,,,,,,,,,0,75,75,75,,,,,,,,,,,,,,,,,a,1,0.754356600009487,,,,,,,,,,,,db,m,22,2024-04-19_17h36.17.087,mian,2022.2.4,60.03413541422578,
G5,1,1,G,a,"[0.2, 0.2]",,,,,,,,,,,,,,,,,,,,0,76,76,76,,,,,,,,,,,,,,,,,a,1,0.6712295000179438,,,,,,,,,,,,db,m,22,2024-04-19_17h36.17.087,mian,2022.2.4,60.03413541422578,
h5,1,2,h,l,"[-0.2, 0.2]",,,,,,,,,,,,,,,,,,,,0,77,77,77,,,,,,,,,,,,,,,,,l,1,0.600347800005693,,,,,,,,,,,,db,m,22,2024-04-19_17h36.17.087,mian,2022.2.4,60.03413541422578,
9G,2,1,9.0,a,"[-0.2, -0.2]",,,,,,,,,,,,,,,,,,,,0,78,78,78,,,,,,,,,,,,,,,,,a,1,0.9834850000188453,,,,,,,,,,,,db,m,22,2024-04-19_17h36.17.087,mian,2022.2.4,60.03413541422578,
F3,2,2,3.0,a,"[0.2, -0.2]",,,,,,,,,,,,,,,,,,,,0,79,79,79,,,,,,,,,,,,,,,,,a,1,0.8039989000099013,,,,,,,,,,,,db,m,22,2024-04-19_17h36.17.087,mian,2022.2.4,60.03413541422578,
,,,,,,1,1,pic/flanker5.png,pic/flanker3.png,a,k,,,,,,,,,,,,,,,,,,0,0,0,0,0,0,0,4,,,,,,,,,,,,580.2070984999882,581.4052863999968,581.4219203999965,581.8507781999942,a,1,0.8648430000030203,瑰丽,k,1,1.2824305000103777,db,m,22,2024-04-19_17h36.17.087,mian,2022.2.4,60.03413541422578,
,,,,,,0,1,pic/flanker6.png,pic/flanker2.png,a,k,,,,,,,,,,,,,,,,,,0,0,0,0,0,1,1,2,,,,,,,,,,,,584.0872275000002,585.2866226999904,585.2866226999904,585.7124441999913,a,1,1.1535243000107585,典雅,k,1,1.001343400013866,db,m,22,2024-04-19_17h36.17.087,mian,2022.2.4,60.03413541422578,
,,,,,,0,0,pic/flanker5.png,pic/flanker1.png,s,l,,,,,,,,,,,,,,,,,,0,0,0,0,0,2,2,3,,,,,,,,,,,,587.9852413999906,589.1846635999973,589.1846635999973,589.6162896999886,s,1,0.759584100014763,缺乏,l,1,1.139378800013219,db,m,22,2024-04-19_17h36.17.087,mian,2022.2.4,60.03413541422578,
,,,,,,1,1,pic/flanker6.png,pic/flanker4.png,s,k,,,,,,,,,,,,,,,,,,0,0,0,0,0,3,3,6,,,,,,,,,,,,591.6167678999918,592.8161694999872,592.8161694999872,593.4411443999998,s,1,0.7884573000046657,享受,k,1,0.8584724000102142,db,m,22,2024-04-19_17h36.17.087,mian,2022.2.4,60.03413541422578,
,,,,,,0,0,pic/flanker6.png,pic/flanker2.png,a,l,,,,,,,,,,,,,,,,,,0,0,0,0,0,4,4,1,,,,,,,,,,,,595.1983294999955,596.3977177999914,596.3977177999914,596.9790256999986,a,1,0.6244976000016322,懒惰,l,1,0.6734360000118613,db,m,22,2024-04-19_17h36.17.087,mian,2022.2.4,60.03413541422578,
,,,,,,1,0,pic/flanker5.png,pic/flanker3.png,a,l,,,,,,,,,,,,,,,,,,0,0,0,0,0,5,5,7,,,,,,,,,,,,598.380035299997,599.5794343999878,599.5794343999878,600.2140258,a,1,0.5091139000141993,丢失,l,1,1.2023320000007516,db,m,22,2024-04-19_17h36.17.087,mian,2022.2.4,60.03413541422578,
,,,,,,1,0,pic/flanker6.png,pic/flanker4.png,s,l,,,,,,,,,,,,,,,,,,0,0,0,0,0,6,6,5,,,,,,,,,,,,602.0282195999898,603.2276109999948,603.2276109999948,603.7170973999891,s,1,0.5904890000092564,冷笑,l,1,0.8005309000145644,db,m,22,2024-04-19_17h36.17.087,mian,2022.2.4,60.03413541422578,
,,,,,,0,1,pic/flanker5.png,pic/flanker1.png,s,k,,,,,,,,,,,,,,,,,,0,0,0,0,0,7,7,0,,,,,,,,,,,,605.2099483999918,606.4093430999928,606.4093430999928,606.8540641,s,1,0.9518339000060223,鲜艳,k,1,0.7860881000087829,db,m,22,2024-04-19_17h36.17.087,mian,2022.2.4,60.03413541422578,
,,,,,,,,,,,,,,,,,,,,,,,,,,,,,0,0,0,0,,,,,,,,,,,,,,,,,,,,,,,,,,,db,m,22,2024-04-19_17h36.17.087,mian,2022.2.4,60.03413541422578,
,,,,,,0,1,pic/flanker6.png,pic/flanker2.png,a,k,pic/AffRest1.png,,,,,,,,,,,,,,,,,,,,,,,,,0,0,0,0,0,0,0,10,,,,625.3908981999994,626.4492796999984,626.5991872999875,627.0490667999984,a,1,0.43690920001245104,瑰丽,k,1,0.6697468000202207,db,m,22,2024-04-19_17h36.17.087,mian,2022.2.4,60.03413541422578,
,,,,,,0,0,pic/flanker5.png,pic/flanker1.png,s,l,pic/AffRest1.png,,,,,,,,,,,,,,,,,,,,,,,,,0,0,0,0,0,1,1,43,,,,628.2483562999987,629.4477503999951,629.4477503999951,629.9180855999875,s,1,0.381948200010811,处罚,l,1,0.6732119000225794,db,m,22,2024-04-19_17h36.17.087,mian,2022.2.4,60.03413541422578,
,,,,,,0,0,pic/flanker5.png,pic/flanker1.png,s,l,pic/AffRest1.png,,,,,,,,,,,,,,,,,,,,,,,,,0,0,0,0,0,2,2,67,,,,631.0969333999965,632.2963469999959,632.2963469999959,632.7375440999895,s,1,0.5955825000128243,逃避,l,1,0.6666813000192633,db,m,22,2024-04-19_17h36.17.087,mian,2022.2.4,60.03413541422578,
,,,,,,1,1,pic/flanker5.png,pic/flanker3.png,a,k,pic/AffRest1.png,,,,,,,,,,,,,,,,,,,,,,,,,0,0,0,0,0,3,3,52,,,,634.0954007999972,635.2948266999883,635.2948266999883,635.9427766000008,a,1,0.5448999000072945,永恒,k,1,0.5658159000013256,db,m,22,2024-04-19_17h36.17.087,mian,2022.2.4,60.03413541422578,
,,,,,,1,0,pic/flanker5.png,pic/flanker3.png,a,l,pic/AffRest1.png,,,,,,,,,,,,,,,,,,,,,,,,,0,0,0,0,0,4,4,39,,,,637.127250199992,638.3266516999865,638.3266516999865,638.9218212999986,a,1,0.6801920000143582,心慌,l,1,0.6584846000187099,db,m,22,2024-04-19_17h36.17.087,mian,2022.2.4,60.03413541422578,
,,,,,,1,1,pic/flanker5.png,pic/flanker3.png,a,k,pic/AffRest1.png,,,,,,,,,,,,,,,,,,,,,,,,,0,0,0,0,0,5,5,36,,,,640.3422751999897,641.5416727999982,641.5416727999982,642.0359618999937,a,1,0.4488456000108272,享受,l,0,1.1085170000151265,db,m,22,2024-04-19_17h36.17.087,mian,2022.2.4,60.03413541422578,
,,,,,,1,1,pic/flanker5.png,pic/flanker3.png,a,k,pic/AffRest1.png,,,,,,,,,,,,,,,,,,,,,,,,,0,0,0,0,0,6,6,28,,,,643.6906026999932,644.8899849999871,644.8899849999871,645.3763842999906,a,1,0.4952314000111073,丰满,k,1,0.9989459000062197,db,m,22,2024-04-19_17h36.17.087,mian,2022.2.4,60.03413541422578,
,,,,,,1,1,pic/flanker5.png,pic/flanker3.png,a,k,pic/AffRest1.png,,,,,,,,,,,,,,,,,,,,,,,,,0,0,0,0,0,7,7,44,,,,646.9556324000005,648.1550143999921,648.1550143999921,648.7917283999996,a,1,0.4771171000174945,顽强,k,1,0.643923800002085,db,m,22,2024-04-19_17h36.17.087,mian,2022.2.4,60.03413541422578,
,,,,,,0,0,pic/flanker6.png,pic/flanker2.png,a,l,pic/AffRest1.png,,,,,,,,,,,,,,,,,,,,,,,,,0,0,0,0,0,8,8,65,,,,650.0041344999918,651.2035356999986,651.2035356999986,651.8200792999996,a,1,0.38477410000632517,闷热,l,1,0.7588407000148436,db,m,22,2024-04-19_17h36.17.087,mian,2022.2.4,60.03413541422578,
,,,,,,1,0,pic/flanker6.png,pic/flanker4.png,s,l,pic/AffRest1.png,,,,,,,,,,,,,,,,,,,,,,,,,0,0,0,0,0,9,9,13,,,,653.0859220999992,654.2852827999886,654.2852827999886,654.9315930999874,s,1,0.6309343000175431,黑暗,l,1,0.9639306000026409,db,m,22,2024-04-19_17h36.17.087,mian,2022.2.4,60.03413541422578,
,,,,,,1,0,pic/flanker6.png,pic/flanker4.png,s,l,pic/AffRest1.png,,,,,,,,,,,,,,,,,,,,,,,,,0,0,0,0,0,10,10,77,,,,656.6008012999955,657.8001719999884,657.8001719999884,658.3783248999971,s,1,0.5498884000116959,孤单,l,1,0.6659231000085128,db,m,22,2024-04-19_17h36.17.087,mian,2022.2.4,60.03413541422578,
,,,,,,0,0,pic/flanker6.png,pic/flanker2.png,a,l,pic/AffRest1.png,,,,,,,,,,,,,,,,,,,,,,,,,0,0,0,0,0,11,11,17,,,,659.6992054000002,660.8986224999971,660.8986224999971,661.3355889999948,a,1,0.40133849999983795,争吵,l,1,0.6817779000120936,db,m,22,2024-04-19_17h36.17.087,mian,2022.2.4,60.03413541422578,
,,,,,,0,1,pic/flanker6.png,pic/flanker2.png,a,k,pic/AffRest1.png,,,,,,,,,,,,,,,,,,,,,,,,,0,0,0,0,0,12,12,74,,,,662.5311218999996,663.7305238999979,663.7305238999979,664.3681625999889,a,1,0.5942339000175707,羡慕,k,1,1.6239156000083312,db,m,22,2024-04-19_17h36.17.087,mian,2022.2.4,60.03413541422578,
,,,,,,1,1,pic/flanker6.png,pic/flanker4.png,s,k,pic/AffRest1.png,,,,,,,,,,,,,,,,,,,,,,,,,0,0,0,0,0,13,13,22,,,,666.6790421999904,667.8784424999903,667.8784424999903,668.5289720000001,s,1,0.5378016000177013,鲜艳,k,1,0.5861737000232097,db,m,22,2024-04-19_17h36.17.087,mian,2022.2.4,60.03413541422578,
,,,,,,1,0,pic/flanker6.png,pic/flanker4.png,s,l,pic/AffRest1.png,,,,,,,,,,,,,,,,,,,,,,,,,0,0,0,0,0,14,14,5,,,,669.7441990999941,670.9435661999887,670.9435661999887,671.4398112999916,s,1,0.5149831000162521,厌恶,l,1,0.5556101000111084,db,m,22,2024-04-19_17h36.17.087,mian,2022.2.4,60.03413541422578,
,,,,,,1,1,pic/flanker5.png,pic/flanker3.png,a,k,pic/AffRest1.png,,,,,,,,,,,,,,,,,,,,,,,,,0,0,0,0,0,15,15,68,,,,672.6093808000005,673.8088414999947,673.8088414999947,674.4296266999881,a,1,0.5313828000071226,圣洁,k,1,0.5966780000017025,db,m,22,2024-04-19_17h36.17.087,mian,2022.2.4,60.03413541422578,
,,,,,,0,1,pic/flanker6.png,pic/flanker2.png,a,k,pic/AffRest1.png,,,,,,,,,,,,,,,,,,,,,,,,,0,0,0,0,0,16,16,66,,,,675.65787309999,676.8572696999909,676.8572696999909,677.4806117999979,a,1,0.3828899000072852,精致,k,1,0.7737701000150992,db,m,22,2024-04-19_17h36.17.087,mian,2022.2.4,60.03413541422578,
,,,,,,1,0,pic/flanker6.png,pic/flanker4.png,s,l,pic/AffRest1.png,,,,,,,,,,,,,,,,,,,,,,,,,0,0,0,0,0,17,17,61,,,,678.7563031999889,679.9557028999989,679.9557028999989,680.3965680999972,s,1,0.4364159000106156,悲观,l,1,0.5499961000168696,db,m,22,2024-04-19_17h36.17.087,mian,2022.2.4,60.03413541422578,
,,,,,,0,0,pic/flanker5.png,pic/flanker1.png,s,l,pic/AffRest1.png,,,,,,,,,,,,,,,,,,,,,,,,,0,0,0,0,0,18,18,11,,,,681.5049198999914,682.7043177999876,682.7043177999876,683.2281076999934,s,1,0.4484402000089176,沮丧,l,1,0.5394898000085959,db,m,22,2024-04-19_17h36.17.087,mian,2022.2.4,60.03413541422578,
,,,,,,1,1,pic/flanker5.png,pic/flanker3.png,a,k,pic/AffRest1.png,,,,,,,,,,,,,,,,,,,,,,,,,0,0,0,0,0,19,19,20,,,,684.3368258999981,685.5362426999927,685.5362426999927,686.1629938999977,a,1,0.4552714000164997,秀丽,k,1,0.6838112000114052,db,m,22,2024-04-19_17h36.17.087,mian,2022.2.4,60.03413541422578,
,,,,,,1,1,pic/flanker6.png,pic/flanker4.png,s,k,pic/AffRest1.png,,,,,,,,,,,,,,,,,,,,,,,,,0,0,0,0,0,20,20,38,,,,687.4186137999932,688.6180184999976,688.6180184999976,689.2145561999932,s,1,0.5325563000078546,富足,k,1,0.8487170000007609,db,m,22,2024-04-19_17h36.17.087,mian,2022.2.4,60.03413541422578,
,,,,,,0,0,pic/flanker5.png,pic/flanker1.png,s,l,pic/AffRest1.png,,,,,,,,,,,,,,,,,,,,,,,,,0,0,0,0,0,21,21,51,,,,690.6836476999888,691.8830495000002,691.8830495000002,692.5292591999896,s,1,0.41313100000843406,别扭,l,1,0.9712815000093542,db,m,22,2024-04-19_17h36.17.087,mian,2022.2.4,60.03413541422578,
,,,,,,1,1,pic/flanker6.png,pic/flanker4.png,s,k,pic/AffRest1.png,,,,,,,,,,,,,,,,,,,,,,,,,0,0,0,0,0,22,22,70,,,,693.9986349999963,695.1980509999994,695.1980509999994,695.6686716999975,s,1,0.4398539000103483,公平,k,1,0.6754589000192937,db,m,22,2024-04-19_17h36.17.087,mian,2022.2.4,60.03413541422578,
,,,,,,1,1,pic/flanker5.png,pic/flanker3.png,a,k,pic/AffRest1.png,,,,,,,,,,,,,,,,,,,,,,,,,0,0,0,0,0,23,23,60,,,,696.9138374999893,698.1132555999939,698.1132555999939,698.640771099992,a,1,0.4948554000002332,赞成,k,1,0.6097494000132428,db,m,22,2024-04-19_17h36.17.087,mian,2022.2.4,60.03413541422578,
,,,,,,1,0,pic/flanker6.png,pic/flanker4.png,s,l,pic/AffRest1.png,,,,,,,,,,,,,,,,,,,,,,,,,0,0,0,0,0,24,24,45,,,,699.8457007999968,701.04511739999,701.04511739999,701.4836491999886,s,1,0.5111133000027621,冷笑,l,1,0.6368754000141053,db,m,22,2024-04-19_17h36.17.087,mian,2022.2.4,60.03413541422578,
,,,,,,0,0,pic/flanker6.png,pic/flanker2.png,a,l,pic/AffRest1.png,,,,,,,,,,,,,,,,,,,,,,,,,0,0,0,0,0,25,25,9,,,,702.7275851999875,703.926996899987,703.926996899987,704.5213241999882,a,1,0.40764480001234915,禁止,k,0,1.3566521000175271,db,m,22,2024-04-19_17h36.17.087,mian,2022.2.4,60.03413541422578,
,,,,,,1,1,pic/flanker6.png,pic/flanker4.png,s,k,pic/AffRest1.png,,,,,,,,,,,,,,,,,,,,,,,,,0,0,0,0,0,26,26,54,,,,706.3757747999916,707.5754493999993,707.5754493999993,708.1956664999889,s,1,0.45331730000907555,诚恳,k,1,0.7249741999985417,db,m,22,2024-04-19_17h36.17.087,mian,2022.2.4,60.03413541422578,
,,,,,,0,1,pic/flanker5.png,pic/flanker1.png,s,k,pic/AffRest1.png,,,,,,,,,,,,,,,,,,,,,,,,,0,0,0,0,0,27,27,64,,,,709.4908593,710.6902521999873,710.6902521999873,711.2353440999868,s,1,0.38630020001437515,雄厚,k,1,0.5415190000203438,db,m,22,2024-04-19_17h36.17.087,mian,2022.2.4,60.03413541422578,
,,,,,,1,0,pic/flanker6.png,pic/flanker4.png,s,l,pic/AffRest1.png,,,,,,,,,,,,,,,,,,,,,,,,,0,0,0,0,0,28,28,53,,,,712.2728044999967,713.4721889999928,713.4721889999928,713.9120316999906,s,1,0.5078340000181925,鲁莽,l,1,0.6815918000211241,db,m,22,2024-04-19_17h36.17.087,mian,2022.2.4,60.03413541422578,
,,,,,,1,0,pic/flanker6.png,pic/flanker4.png,s,l,pic/AffRest1.png,,,,,,,,,,,,,,,,,,,,,,,,,0,0,0,0,0,29,29,21,,,,715.1879910999996,716.3874089999881,716.3874089999881,716.8325195999932,s,1,0.5451013000129024,消沉,l,1,0.6690885999996681,db,m,22,2024-04-19_17h36.17.087,mian,2022.2.4,60.03413541422578,
,,,,,,0,1,pic/flanker5.png,pic/flanker1.png,s,k,pic/AffRest1.png,,,,,,,,,,,,,,,,,,,,,,,,,0,0,0,0,0,30,30,40,,,,718.1364990999864,719.3359200999985,719.3359200999985,719.9601792999892,s,1,0.3961076000123285,如愿,k,1,0.743093900004169,db,m,22,2024-04-19_17h36.17.087,mian,2022.2.4,60.03413541422578,
,,,,,,1,0,pic/flanker5.png,pic/flanker3.png,a,l,pic/AffRest1.png,,,,,,,,,,,,,,,,,,,,,,,,,0,0,0,0,0,31,31,15,,,,721.2016378999979,722.4010476999974,722.4010476999974,722.9194289999868,a,1,0.46309580000524875,损害,l,1,0.6703297000058228,db,m,22,2024-04-19_17h36.17.087,mian,2022.2.4,60.03413541422578,
,,,,,,1,1,pic/flanker6.png,pic/flanker4.png,s,k,pic/AffRest1.png,,,,,,,,,,,,,,,,,,,,,,,,,0,0,0,0,0,32,32,46,,,,724.1667995999887,725.3662639999966,725.3662639999966,725.9596152999875,s,1,0.5038138000090839,卓越,k,1,0.6466629000060493,db,m,22,2024-04-19_17h36.17.087,mian,2022.2.4,60.03413541422578,
,,,,,,0,1,pic/flanker5.png,pic/flanker1.png,s,k,pic/AffRest1.png,,,,,,,,,,,,,,,,,,,,,,,,,0,0,0,0,0,33,33,72,,,,727.2152746999927,728.4146948999987,728.4146948999987,728.8610846999945,s,1,0.4659251000121003,充裕,k,1,0.5485399000172038,db,m,22,2024-04-19_17h36.17.087,mian,2022.2.4,60.03413541422578,
,,,,,,0,1,pic/flanker6.png,pic/flanker2.png,a,k,pic/AffRest1.png,,,,,,,,,,,,,,,,,,,,,,,,,0,0,0,0,0,34,34,58,,,,729.9639056999877,731.163314999998,731.163314999998,731.6472937999933,a,1,0.42678010000963695,前进,k,1,0.6518958000087878,db,m,22,2024-04-19_17h36.17.087,mian,2022.2.4,60.03413541422578,
,,,,,,0,1,pic/flanker6.png,pic/flanker2.png,a,k,pic/AffRest1.png,,,,,,,,,,,,,,,,,,,,,,,,,0,0,0,0,0,35,35,34,,,,732.8291396999994,734.0285412999947,734.0285412999947,734.5598923999933,a,1,0.3956598000077065,典雅,k,1,0.5095344000146724,db,m,22,2024-04-19_17h36.17.087,mian,2022.2.4,60.03413541422578,
,,,,,,1,1,pic/flanker6.png,pic/flanker4.png,s,k,pic/AffRest1.png,,,,,,,,,,,,,,,,,,,,,,,,,0,0,0,0,0,36,36,6,,,,735.5611279000004,736.7604919999867,736.7604919999867,737.2498988999869,s,1,0.4331825999979628,振作,k,1,0.6338234000140801,db,m,22,2024-04-19_17h36.17.087,mian,2022.2.4,60.03413541422578,
,,,,,,0,0,pic/flanker5.png,pic/flanker1.png,s,l,pic/AffRest1.png,,,,,,,,,,,,,,,,,,,,,,,,,0,0,0,0,0,37,37,27,,,,738.4263162999996,739.6257658999966,739.6257658999966,740.112108699992,s,1,0.36092140001710504,烦恼,l,1,0.891562700009672,db,m,22,2024-04-19_17h36.17.087,mian,2022.2.4,60.03413541422578,
,,,,,,1,0,pic/flanker5.png,pic/flanker3.png,a,l,pic/AffRest1.png,,,,,,,,,,,,,,,,,,,,,,,,,0,0,0,0,0,38,38,23,,,,741.4581161999959,742.6575375999964,742.6575375999964,743.2467583999969,a,1,0.4651278000237653,郁闷,l,1,0.6312977000052342,db,m,22,2024-04-19_17h36.17.087,mian,2022.2.4,60.03413541422578,
,,,,,,1,0,pic/flanker5.png,pic/flanker3.png,a,l,pic/AffRest1.png,,,,,,,,,,,,,,,,,,,,,,,,,0,0,0,0,0,39,39,31,,,,744.4399578999873,745.6394101999904,745.6394101999904,746.1772583999991,a,1,0.46448680001776665,慌忙,l,1,0.6720045000110986,db,m,22,2024-04-19_17h36.17.087,mian,2022.2.4,60.03413541422578,
,,,,,,0,0,pic/flanker5.png,pic/flanker1.png,s,l,pic/AffRest1.png,,,,,,,,,,,,,,,,,,,,,,,,,0,0,0,0,0,40,40,75,,,,747.4051322999876,748.6045398999995,748.6045398999995,749.0402803999896,s,1,0.3631450000102632,失意,l,1,0.555181600007927,db,m,22,2024-04-19_17h36.17.087,mian,2022.2.4,60.03413541422578,
,,,,,,1,0,pic/flanker6.png,pic/flanker4.png,s,l,pic/AffRest1.png,,,,,,,,,,,,,,,,,,,,,,,,,0,0,0,0,0,41,41,69,,,,750.0538061999978,751.2532082999969,751.2532082999969,751.8465455999976,s,1,0.5364092000236269,伤心,l,1,0.6574935000098776,db,m,22,2024-04-19_17h36.17.087,mian,2022.2.4,60.03413541422578,
,,,,,,0,0,pic/flanker5.png,pic/flanker1.png,s,l,pic/AffRest1.png,,,,,,,,,,,,,,,,,,,,,,,,,0,0,0,0,0,42,42,59,,,,753.135583299998,754.3349878000008,754.3349878000008,754.8738104999939,s,1,0.3250276000035228,浪费,l,1,0.6540883000125177,db,m,22,2024-04-19_17h36.17.087,mian,2022.2.4,60.03413541422578,
,,,,,,0,1,pic/flanker5.png,pic/flanker1.png,s,k,pic/AffRest1.png,,,,,,,,,,,,,,,,,,,,,,,,,0,0,0,0,0,43,43,56,,,,755.9508455999894,757.1502476999885,757.1502476999885,757.596261499988,s,1,0.3623133000219241,清秀,l,0,0.5871922000078484,db,m,22,2024-04-19_17h36.17.087,mian,2022.2.4,60.03413541422578,
,,,,,,0,0,pic/flanker6.png,pic/flanker2.png,a,l,pic/AffRest1.png,,,,,,,,,,,,,,,,,,,,,,,,,0,0,0,0,0,44,44,73,,,,758.6495186999964,759.848900699988,759.848900699988,760.3213630999962,a,1,0.4017456000146922,怀疑,k,0,1.5713647000084165,db,m,22,2024-04-19_17h36.17.087,mian,2022.2.4,60.03413541422578,
,,,,,,1,0,pic/flanker5.png,pic/flanker3.png,a,l,pic/AffRest1.png,,,,,,,,,,,,,,,,,,,,,,,,,0,0,0,0,0,45,45,7,,,,762.4142548999953,763.6136669999978,763.6136669999978,764.2004897999868,a,1,0.4881162000092445,排斥,l,1,0.9993677000020398,db,m,22,2024-04-19_17h36.17.087,mian,2022.2.4,60.03413541422578,
,,,,,,0,0,pic/flanker5.png,pic/flanker1.png,s,l,pic/AffRest1.png,,,,,,,,,,,,,,,,,,,,,,,,,0,0,0,0,0,46,46,3,,,,765.7792646999878,766.9786596999911,766.9786596999911,767.574549699988,s,1,0.33556470001349226,杂乱,l,1,0.8517580000043381,db,m,22,2024-04-19_17h36.17.087,mian,2022.2.4,60.03413541422578,
,,,,,,0,0,pic/flanker6.png,pic/flanker2.png,a,l,pic/AffRest1.png,,,,,,,,,,,,,,,,,,,,,,,,,0,0,0,0,0,47,47,41,,,,768.8610549999867,770.0604235999926,770.0604235999926,770.639969099997,a,1,0.47825909999664873,落后,l,1,0.836368999996921,db,m,22,2024-04-19_17h36.17.087,mian,2022.2.4,60.03413541422578,
,,,,,,1,1,pic/flanker6.png,pic/flanker4.png,s,k,pic/AffRest1.png,,,,,,,,,,,,,,,,,,,,,,,,,0,0,0,0,0,48,48,14,,,,772.0593995999952,773.2588216000004,773.2588216000004,773.6857392999955,s,1,0.4851619000110077,俊秀,k,1,0.7316746000142302,db,m,22,2024-04-19_17h36.17.087,mian,2022.2.4,60.03413541422578,
,,,,,,0,1,pic/flanker6.png,pic/flanker2.png,a,k,pic/AffRest1.png,,,,,,,,,,,,,,,,,,,,,,,,,0,0,0,0,0,49,49,2,,,,775.0079240999912,776.2073422999965,776.2073422999965,776.7421710999915,a,1,0.39262570001301356,爽朗,k,1,0.8078103000152623,db,m,22,2024-04-19_17h36.17.087,mian,2022.2.4,60.03413541422578,
,,,,,,0,1,pic/flanker6.png,pic/flanker2.png,a,k,pic/AffRest1.png,,,,,,,,,,,,,,,,,,,,,,,,,0,0,0,0,0,50,50,26,,,,778.0563981999876,779.2558100999886,779.2558100999886,779.9018049000006,a,1,0.41987240001617465,正直,k,1,0.5258389000082389,db,m,22,2024-04-19_17h36.17.087,mian,2022.2.4,60.03413541422578,
,,,,,,0,0,pic/flanker6.png,pic/flanker2.png,a,l,pic/AffRest1.png,,,,,,,,,,,,,,,,,,,,,,,,,0,0,0,0,0,51,51,57,,,,780.9382795999991,782.1376812999952,782.1376812999952,782.7259327999927,a,1,0.4000116000097478,丢失,l,1,0.6140729000180727,db,m,22,2024-04-19_17h36.17.087,mian,2022.2.4,60.03413541422578,
,,,,,,0,1,pic/flanker5.png,pic/flanker1.png,s,k,pic/AffRest1.png,,,,,,,,,,,,,,,,,,,,,,,,,0,0,0,0,0,52,52,48,,,,783.8368381999899,785.0362390999944,785.0362390999944,785.5653985999961,s,1,0.3598813000135124,奉献,k,1,0.5234936000051675,db,m,22,2024-04-19_17h36.17.087,mian,2022.2.4,60.03413541422578,
,,,,,,1,1,pic/flanker5.png,pic/flanker3.png,a,k,pic/AffRest1.png,,,,,,,,,,,,,,,,,,,,,,,,,0,0,0,0,0,53,53,76,,,,786.5521267999866,787.7515361999976,787.7515361999976,788.246759799993,a,1,0.47502120000717696,热切,k,1,0.7659063000028254,db,m,22,2024-04-19_17h36.17.087,mian,2022.2.4,60.03413541422578,
,,,,,,1,0,pic/flanker6.png,pic/flanker4.png,s,l,pic/AffRest1.png,,,,,,,,,,,,,,,,,,,,,,,,,0,0,0,0,0,54,54,37,,,,789.5672708999919,790.7666858999874,790.7666858999874,791.4059626999951,s,1,0.5655722000083188,自卑,l,1,0.6930006000038702,db,m,22,2024-04-19_17h36.17.087,mian,2022.2.4,60.03413541422578,
,,,,,,1,1,pic/flanker6.png,pic/flanker4.png,s,k,pic/AffRest1.png,,,,,,,,,,,,,,,,,,,,,,,,,0,0,0,0,0,55,55,62,,,,792.7656663999951,793.9650891999918,793.9650891999918,794.4537758999941,s,1,0.5055291000026045,珍藏,k,1,0.7101672000135295,db,m,22,2024-04-19_17h36.17.087,mian,2022.2.4,60.03413541422578,
,,,,,,1,1,pic/flanker5.png,pic/flanker3.png,a,k,pic/AffRest1.png,,,,,,,,,,,,,,,,,,,,,,,,,0,0,0,0,0,56,56,4,,,,795.7808310999972,796.9802273999958,796.9802273999958,797.6221708999947,a,1,0.5637119000020903,优雅,k,1,0.7601367000170285,db,m,22,2024-04-19_17h36.17.087,mian,2022.2.4,60.03413541422578,
,,,,,,0,0,pic/flanker6.png,pic/flanker2.png,a,l,pic/AffRest1.png,,,,,,,,,,,,,,,,,,,,,,,,,0,0,0,0,0,57,57,49,,,,799.0291844999883,800.2285816999938,800.2285816999938,800.8210222999915,a,1,0.4096801000123378,嘲笑,l,1,0.6147419000044465,db,m,22,2024-04-19_17h36.17.087,mian,2022.2.4,60.03413541422578,
,,,,,,0,1,pic/flanker5.png,pic/flanker1.png,s,k,pic/AffRest1.png,,,,,,,,,,,,,,,,,,,,,,,,,0,0,0,0,0,58,58,8,,,,801.9277288999874,803.1271422999998,803.1271422999998,803.7224276999914,s,1,0.3547537000122247,敬佩,k,1,0.6503017000068212,db,m,22,2024-04-19_17h36.17.087,mian,2022.2.4,60.03413541422578,
,,,,,,1,1,pic/flanker6.png,pic/flanker4.png,s,k,pic/AffRest1.png,,,,,,,,,,,,,,,,,,,,,,,,,0,0,0,0,0,59,59,30,,,,804.8262770000001,806.0256854999898,806.0256854999898,806.509167199998,s,1,0.5363462000095751,生动,k,1,0.692515300004743,db,m,22,2024-04-19_17h36.17.087,mian,2022.2.4,60.03413541422578,
,,,,,,0,0,pic/flanker5.png,pic/flanker1.png,s,l,pic/AffRest1.png,,,,,,,,,,,,,,,,,,,,,,,,,0,0,0,0,0,60,60,35,,,,807.8414223,809.0408266999875,809.0408266999875,809.4892101000005,s,1,0.3716873000084888,轻率,l,1,0.7208332000154769,db,m,22,2024-04-19_17h36.17.087,mian,2022.2.4,60.03413541422578,
,,,,,,1,0,pic/flanker5.png,pic/flanker3.png,a,l,pic/AffRest1.png,,,,,,,,,,,,,,,,,,,,,,,,,0,0,0,0,0,61,61,79,,,,810.6899925999896,811.8894079999882,811.8894079999882,812.303540199995,a,1,0.5145926000113832,胡涂,l,1,1.004672399998526,db,m,22,2024-04-19_17h36.17.087,mian,2022.2.4,60.03413541422578,
,,,,,,1,0,pic/flanker5.png,pic/flanker3.png,a,l,pic/AffRest1.png,,,,,,,,,,,,,,,,,,,,,,,,,0,0,0,0,0,62,62,71,,,,813.9383596999978,815.1377936999925,815.1377936999925,815.7089192999993,a,1,0.4804562000063015,懒惰,l,1,1.1678421000106027,db,m,22,2024-04-19_17h36.17.087,mian,2022.2.4,60.03413541422578,
,,,,,,0,1,pic/flanker5.png,pic/flanker1.png,s,k,pic/AffRest1.png,,,,,,,,,,,,,,,,,,,,,,,,,0,0,0,0,0,63,63,24,,,,817.469935199988,818.6693274999998,818.6693274999998,819.2115358999872,s,1,0.3786938000121154,留恋,k,1,0.7335877000150504,db,m,22,2024-04-19_17h36.17.087,mian,2022.2.4,60.03413541422578,
,,,,,,1,0,pic/flanker5.png,pic/flanker3.png,a,l,pic/AffRest1.png,,,,,,,,,,,,,,,,,,,,,,,,,0,0,0,0,0,64,64,55,,,,820.4184466999868,821.6178568999894,821.6178568999894,822.1565288999991,a,1,0.5021737000060966,撒谎,l,1,0.6040601000131574,db,m,22,2024-04-19_17h36.17.087,mian,2022.2.4,60.03413541422578,
,,,,,,0,1,pic/flanker5.png,pic/flanker1.png,s,k,pic/AffRest1.png,,,,,,,,,,,,,,,,,,,,,,,,,0,0,0,0,0,65,65,0,,,,823.3669488999876,824.5663662000006,824.5663662000006,825.1525049999909,s,1,0.36830440000630915,豪放,k,1,0.8944481000071391,db,m,22,2024-04-19_17h36.17.087,mian,2022.2.4,60.03413541422578,
,,,,,,0,0,pic/flanker5.png,pic/flanker1.png,s,l,pic/AffRest1.png,,,,,,,,,,,,,,,,,,,,,,,,,0,0,0,0,0,66,66,19,,,,826.5153707999998,827.7148211999884,827.7148211999884,828.1614307999989,s,1,0.6367636000213679,忧虑,l,1,0.6427009000180988,db,m,22,2024-04-19_17h36.17.087,mian,2022.2.4,60.03413541422578,
,,,,,,1,1,pic/flanker5.png,pic/flanker3.png,a,k,pic/AffRest1.png,,,,,,,,,,,,,,,,,,,,,,,,,0,0,0,0,0,67,67,12,,,,829.54718519999,830.7465953999927,830.7465953999927,831.332090699987,a,1,0.49194880000140984,旺盛,k,1,1.3975602999998955,db,m,22,2024-04-19_17h36.17.087,mian,2022.2.4,60.03413541422578,
,,,,,,1,1,pic/flanker6.png,pic/flanker4.png,s,k,pic/AffRest1.png,,,,,,,,,,,,,,,,,,,,,,,,,0,0,0,0,0,68,68,78,,,,833.3119545999944,834.5113923999888,834.5113923999888,834.9456522999972,s,1,0.4764714000193635,舒畅,k,1,0.5362141000077827,db,m,22,2024-04-19_17h36.17.087,mian,2022.2.4,60.03413541422578,
,,,,,,0,1,pic/flanker6.png,pic/flanker2.png,a,k,pic/AffRest1.png,,,,,,,,,,,,,,,,,,,,,,,,,0,0,0,0,0,69,69,50,,,,836.0605811999994,837.2599934999889,837.2599934999889,837.6980108999996,a,1,0.41611740000371356,吉祥,k,1,0.6930443000019295,db,m,22,2024-04-19_17h36.17.087,mian,2022.2.4,60.03413541422578,
,,,,,,0,1,pic/flanker5.png,pic/flanker1.png,s,k,pic/AffRest1.png,,,,,,,,,,,,,,,,,,,,,,,,,0,0,0,0,0,70,70,32,,,,838.9091597999941,840.1085736999958,840.1085736999958,840.6867747999931,s,1,0.33365000000048894,富丽,k,1,0.6221242000174243,db,m,22,2024-04-19_17h36.17.087,mian,2022.2.4,60.03413541422578,
,,,,,,0,0,pic/flanker6.png,pic/flanker2.png,a,l,pic/AffRest1.png,,,,,,,,,,,,,,,,,,,,,,,,,0,0,0,0,0,71,71,33,,,,841.7577310999914,842.9571098999877,842.9571098999877,843.5021619999898,a,1,0.4948346000164747,焦躁,l,1,0.625818500018795,db,m,22,2024-04-19_17h36.17.087,mian,2022.2.4,60.03413541422578,
,,,,,,0,0,pic/flanker6.png,pic/flanker2.png,a,l,pic/AffRest1.png,,,,,,,,,,,,,,,,,,,,,,,,,0,0,0,0,0,72,72,25,,,,844.7062653999892,845.9056595999864,845.9056595999864,846.350592399991,a,1,0.4546676000172738,缺乏,l,1,0.6480649000150152,db,m,22,2024-04-19_17h36.17.087,mian,2022.2.4,60.03413541422578,
,,,,,,0,0,pic/flanker6.png,pic/flanker2.png,a,l,pic/AffRest1.png,,,,,,,,,,,,,,,,,,,,,,,,,0,0,0,0,0,73,73,1,,,,847.5548472999944,848.7542217999871,848.7542217999871,849.3881617999868,a,1,0.4141173000098206,穷苦,l,1,0.4960742000112077,db,m,22,2024-04-19_17h36.17.087,mian,2022.2.4,60.03413541422578,
,,,,,,1,0,pic/flanker6.png,pic/flanker4.png,s,l,pic/AffRest1.png,,,,,,,,,,,,,,,,,,,,,,,,,0,0,0,0,0,74,74,29,,,,850.3867166999989,851.5861204999965,851.5861204999965,852.0589091999864,s,1,0.48447110001870897,堵塞,l,1,0.6028093000204535,db,m,22,2024-04-19_17h36.17.087,mian,2022.2.4,60.03413541422578,
,,,,,,0,1,pic/flanker6.png,pic/flanker2.png,a,k,pic/AffRest1.png,,,,,,,,,,,,,,,,,,,,,,,,,0,0,0,0,0,75,75,18,,,,853.2686019999965,854.4680004999973,854.4680004999973,854.9932193999994,a,1,0.4043196000129683,有利,k,1,0.8262345000111964,db,m,22,2024-04-19_17h36.17.087,mian,2022.2.4,60.03413541422578,
,,,,,,0,1,pic/flanker5.png,pic/flanker1.png,s,k,pic/AffRest1.png,,,,,,,,,,,,,,,,,,,,,,,,,0,0,0,0,0,76,76,16,,,,856.333719199989,857.5331263999979,857.5331263999979,857.9757841999963,s,1,0.36742040001263376,廉洁,k,1,0.6454099000111455,db,m,22,2024-04-19_17h36.17.087,mian,2022.2.4,60.03413541422578,
,,,,,,1,0,pic/flanker5.png,pic/flanker3.png,a,l,pic/AffRest1.png,,,,,,,,,,,,,,,,,,,,,,,,,0,0,0,0,0,77,77,63,,,,859.0823392999882,860.2817966999864,860.2817966999864,860.6991347000003,a,1,0.514797300013015,假冒,l,1,0.5296407000132604,db,m,22,2024-04-19_17h36.17.087,mian,2022.2.4,60.03413541422578,
,,,,,,1,0,pic/flanker5.png,pic/flanker3.png,a,l,pic/AffRest1.png,,,,,,,,,,,,,,,,,,,,,,,,,0,0,0,0,0,78,78,47,,,,861.8642772999883,863.0636869999871,863.0636869999871,863.6032722999953,a,1,0.5043635000183713,罚款,l,1,0.5783451000170317,db,m,22,2024-04-19_17h36.17.087,mian,2022.2.4,60.03413541422578,
,,,,,,0,1,pic/flanker6.png,pic/flanker2.png,a,k,pic/AffRest1.png,,,,,,,,,,,,,,,,,,,,,,,,,0,0,0,0,0,79,79,42,,,,864.7794944999914,865.9789296999952,865.9789296999952,866.5607187999994,a,1,0.5478582000214374,畅销,k,1,0.6715676000021631,db,m,22,2024-04-19_17h36.17.087,mian,2022.2.4,60.03413541422578,
,,,,,,,,,,,,pic/AffRest1.png,,,,,,,,,,,,,,,,,,,,,,,,,0,0,0,0,,,,,,,,,,,,,,,,,,,db,m,22,2024-04-19_17h36.17.087,mian,2022.2.4,60.03413541422578,
,,,,,,0,0,pic/flanker6.png,pic/flanker2.png,a,l,pic/AffRest2.png,,,,,,,,,,,,,,,,,,,,,,,,,0,1,1,1,0,0,0,25,,,,880.9517580999964,882.137425199995,882.1541136999876,882.6352405999933,a,1,0.4333498000196414,黑暗,l,1,0.9214083000115352,db,m,22,2024-04-19_17h36.17.087,mian,2022.2.4,60.03413541422578,
,,,,,,1,0,pic/flanker5.png,pic/flanker3.png,a,l,pic/AffRest2.png,,,,,,,,,,,,,,,,,,,,,,,,,0,1,1,1,0,1,1,39,,,,884.0864378999977,885.2858514999971,885.2858514999971,885.7740937999915,a,1,0.5722424000123283,别扭,l,1,0.5674659000069369,db,m,22,2024-04-19_17h36.17.087,mian,2022.2.4,60.03413541422578,
,,,,,,0,0,pic/flanker5.png,pic/flanker1.png,s,l,pic/AffRest2.png,,,,,,,,,,,,,,,,,,,,,,,,,0,1,1,1,0,2,2,59,,,,887.0183006999869,888.2177184999891,888.2177184999891,888.7393678999942,s,1,0.4620332000195049,穷苦,l,1,0.6297699000133434,db,m,22,2024-04-19_17h36.17.087,mian,2022.2.4,60.03413541422578,
,,,,,,0,1,pic/flanker5.png,pic/flanker1.png,s,k,pic/AffRest2.png,,,,,,,,,,,,,,,,,,,,,,,,,0,1,1,1,0,3,3,40,,,,889.933506699992,891.1329126999917,891.1329126999917,891.7076507999882,s,1,0.4176018000143813,留恋,l,0,0.8306400000146823,db,m,22,2024-04-19_17h36.17.087,mian,2022.2.4,60.03413541422578,
,,,,,,0,0,pic/flanker6.png,pic/flanker2.png,a,l,pic/AffRest2.png,,,,,,,,,,,,,,,,,,,,,,,,,0,1,1,1,0,4,4,65,,,,893.0652607999946,894.2646590999939,894.2646590999939,894.804449599993,a,1,0.4351205000129994,假冒,l,1,0.5432841000147164,db,m,22,2024-04-19_17h36.17.087,mian,2022.2.4,60.03413541422578,
,,,,,,0,1,pic/flanker6.png,pic/flanker2.png,a,k,pic/AffRest2.png,,,,,,,,,,,,,,,,,,,,,,,,,0,1,1,1,0,5,5,58,,,,895.8805338999955,897.0799079999997,897.0799079999997,897.5718995999923,a,1,0.4220149000029778,赞成,k,1,0.7991471000132151,db,m,22,2024-04-19_17h36.17.087,mian,2022.2.4,60.03413541422578,
,,,,,,1,0,pic/flanker6.png,pic/flanker4.png,s,l,pic/AffRest2.png,,,,,,,,,,,,,,,,,,,,,,,,,0,1,1,1,0,6,6,69,,,,898.8790518999886,900.0784214999876,900.0784214999876,900.5759648999956,s,1,0.6075596000009682,失意,l,1,0.5889678000094136,db,m,22,2024-04-19_17h36.17.087,mian,2022.2.4,60.03413541422578,
,,,,,,0,0,pic/flanker5.png,pic/flanker1.png,s,l,pic/AffRest2.png,,,,,,,,,,,,,,,,,,,,,,,,,0,1,1,1,0,7,7,11,,,,901.8608444999991,903.060243999993,903.060243999993,903.4816571999982,s,1,0.40336530000786297,逃避,l,1,0.62539800000377,db,m,22,2024-04-19_17h36.17.087,mian,2022.2.4,60.03413541422578,
,,,,,,1,1,pic/flanker6.png,pic/flanker4.png,s,k,pic/AffRest2.png,,,,,,,,,,,,,,,,,,,,,,,,,0,1,1,1,0,8,8,6,,,,904.6261121999996,905.8255318999873,905.8255318999873,906.4031351999874,s,1,0.5562392000138061,丰满,k,1,0.6426688000065042,db,m,22,2024-04-19_17h36.17.087,mian,2022.2.4,60.03413541422578,
,,,,,,0,1,pic/flanker5.png,pic/flanker1.png,s,k,pic/AffRest2.png,,,,,,,,,,,,,,,,,,,,,,,,,0,1,1,1,0,9,9,16,,,,907.7079215999984,908.9073053999891,908.9073053999891,909.4879127999884,s,1,0.3823801000107778,如愿,k,1,0.9409289000177523,db,m,22,2024-04-19_17h36.17.087,mian,2022.2.4,60.03413541422578,
,,,,,,1,0,pic/flanker5.png,pic/flanker3.png,a,l,pic/AffRest2.png,,,,,,,,,,,,,,,,,,,,,,,,,0,1,1,1,0,10,10,7,,,,910.9229778000008,912.1223911999987,912.1223911999987,912.6135776999872,a,1,0.5680784000142012,焦躁,l,1,0.6266889000107767,db,m,22,2024-04-19_17h36.17.087,mian,2022.2.4,60.03413541422578,
,,,,,,0,0,pic/flanker6.png,pic/flanker2.png,a,l,pic/AffRest2.png,,,,,,,,,,,,,,,,,,,,,,,,,0,1,1,1,0,11,11,1,,,,913.9047718999936,915.1041986999917,915.1041986999917,915.6447627999878,a,1,0.5343938000150956,厌恶,l,1,0.9483252000063658,db,m,22,2024-04-19_17h36.17.087,mian,2022.2.4,60.03413541422578,
,,,,,,1,0,pic/flanker5.png,pic/flanker3.png,a,l,pic/AffRest2.png,,,,,,,,,,,,,,,,,,,,,,,,,0,1,1,1,0,12,12,23,,,,917.2197764999873,918.4191985999933,918.4191985999933,919.0119235999882,a,1,0.5425141000159783,冷笑,l,1,0.5868584000127157,db,m,22,2024-04-19_17h36.17.087,mian,2022.2.4,60.03413541422578,
,,,,,,1,0,pic/flanker5.png,pic/flanker3.png,a,l,pic/AffRest2.png,,,,,,,,,,,,,,,,,,,,,,,,,0,1,1,1,0,13,13,71,,,,920.2349930999917,921.4343831000006,921.4343831000006,922.0666902999947,a,1,0.5138624000101117,慌忙,l,1,0.5315919999993639,db,m,22,2024-04-19_17h36.17.087,mian,2022.2.4,60.03413541422578,
,,,,,,0,0,pic/flanker6.png,pic/flanker2.png,a,l,pic/AffRest2.png,,,,,,,,,,,,,,,,,,,,,,,,,0,1,1,1,0,14,14,41,,,,923.2001447999937,924.3995155999874,924.3995155999874,925.0382962999865,a,1,0.6484306000056677,杂乱,l,1,0.47725850001734216,db,m,22,2024-04-19_17h36.17.087,mian,2022.2.4,60.03413541422578,
,,,,,,0,1,pic/flanker5.png,pic/flanker1.png,s,k,pic/AffRest2.png,,,,,,,,,,,,,,,,,,,,,,,,,0,1,1,1,0,15,15,56,,,,926.2819068999961,927.4813184999948,927.4813184999948,928.0707321999944,s,1,0.5687989000143716,瑰丽,k,1,0.6918994000152452,db,m,22,2024-04-19_17h36.17.087,mian,2022.2.4,60.03413541422578,
,,,,,,1,1,pic/flanker5.png,pic/flanker3.png,a,k,pic/AffRest2.png,,,,,,,,,,,,,,,,,,,,,,,,,0,1,1,1,0,16,16,68,,,,929.430351499992,930.6297240999993,930.6297240999993,931.1208284999884,a,1,0.5081200000131503,豪放,k,1,0.49822120000317227,db,m,22,2024-04-19_17h36.17.087,mian,2022.2.4,60.03413541422578,
,,,,,,0,1,pic/flanker5.png,pic/flanker1.png,s,k,pic/AffRest2.png,,,,,,,,,,,,,,,,,,,,,,,,,0,1,1,1,0,17,17,24,,,,932.2122623999894,933.4117072999943,933.4117072999943,933.9002915999881,s,1,0.354847399998107,享受,k,1,1.8735252000042237,db,m,22,2024-04-19_17h36.17.087,mian,2022.2.4,60.03413541422578,
,,,,,,1,0,pic/flanker6.png,pic/flanker4.png,s,l,pic/AffRest2.png,,,,,,,,,,,,,,,,,,,,,,,,,0,1,1,1,0,18,18,29,,,,936.2269003999972,937.4263135999936,937.4263135999936,938.0653217999934,s,1,0.5459952000092017,堵塞,l,1,0.6185053000081098,db,m,22,2024-04-19_17h36.17.087,mian,2022.2.4,60.03413541422578,
,,,,,,1,0,pic/flanker5.png,pic/flanker3.png,a,l,pic/AffRest2.png,,,,,,,,,,,,,,,,,,,,,,,,,0,1,1,1,0,19,19,63,,,,939.3253565999912,940.5247716999875,940.5247716999875,941.121303699998,a,1,0.4573464000131935,罚款,l,1,1.532749200006947,db,m,22,2024-04-19_17h36.17.087,mian,2022.2.4,60.03413541422578,
,,,,,,1,1,pic/flanker6.png,pic/flanker4.png,s,k,pic/AffRest2.png,,,,,,,,,,,,,,,,,,,,,,,,,0,1,1,1,0,20,20,78,,,,943.1900701999984,944.3894826999895,944.3894826999895,944.9870461999963,s,1,0.5088310000137426,卓越,k,1,1.1395127000141656,db,m,22,2024-04-19_17h36.17.087,mian,2022.2.4,60.03413541422578,
,,,,,,1,1,pic/flanker6.png,pic/flanker4.png,s,k,pic/AffRest2.png,,,,,,,,,,,,,,,,,,,,,,,,,0,1,1,1,0,21,21,46,,,,946.7382938999945,947.9377104999876,947.9377104999876,948.5898327999894,s,1,0.6228462000144646,珍藏,k,1,0.6114925000147196,db,m,22,2024-04-19_17h36.17.087,mian,2022.2.4,60.03413541422578,
,,,,,,0,0,pic/flanker5.png,pic/flanker1.png,s,l,pic/AffRest2.png,,,,,,,,,,,,,,,,,,,,,,,,,0,1,1,1,0,22,22,75,,,,949.903381199998,951.1027717999968,951.1027717999968,951.6008012999955,s,1,0.42688640000415035,禁止,l,1,1.4761883000173839,db,m,22,2024-04-19_17h36.17.087,mian,2022.2.4,60.03413541422578,
,,,,,,0,0,pic/flanker6.png,pic/flanker2.png,a,l,pic/AffRest2.png,,,,,,,,,,,,,,,,,,,,,,,,,0,1,1,1,0,23,23,57,,,,953.5848472999933,954.7842474999925,954.7842474999925,955.2232551999914,a,1,0.4674572000221815,损害,l,1,0.6429734000121243,db,m,22,2024-04-19_17h36.17.087,mian,2022.2.4,60.03413541422578,
,,,,,,1,1,pic/flanker6.png,pic/flanker4.png,s,k,pic/AffRest2.png,,,,,,,,,,,,,,,,,,,,,,,,,0,1,1,1,0,24,24,70,,,,956.4334105999878,957.6327968999976,957.6327968999976,958.0764240999997,s,1,0.6467809000023408,舒畅,k,1,0.9120694000157528,db,m,22,2024-04-19_17h36.17.087,mian,2022.2.4,60.03413541422578,
,,,,,,0,0,pic/flanker6.png,pic/flanker2.png,a,l,pic/AffRest2.png,,,,,,,,,,,,,,,,,,,,,,,,,0,1,1,1,0,25,25,9,,,,959.7150937999977,960.9145246999979,960.9145246999979,961.4980283999903,a,1,0.4792050000105519,自卑,l,1,0.7186105000146199,db,m,22,2024-04-19_17h36.17.087,mian,2022.2.4,60.03413541422578,
,,,,,,1,0,pic/flanker5.png,pic/flanker3.png,a,l,pic/AffRest2.png,,,,,,,,,,,,,,,,,,,,,,,,,0,1,1,1,0,26,26,15,,,,962.7969183999958,963.9962932999915,963.9962932999915,964.5328008999932,a,1,0.7076866999996128,处罚,l,1,1.4337301000050502,db,m,22,2024-04-19_17h36.17.087,mian,2022.2.4,60.03413541422578,
,,,,,,1,0,pic/flanker6.png,pic/flanker4.png,s,l,pic/AffRest2.png,,,,,,,,,,,,,,,,,,,,,,,,,0,1,1,1,0,27,27,53,,,,966.7782668,967.9776646999962,967.9776646999962,968.5776680999988,s,1,0.5323192000068957,伤心,l,1,0.5789766000089003,db,m,22,2024-04-19_17h36.17.087,mian,2022.2.4,60.03413541422578,
,,,,,,1,0,pic/flanker6.png,pic/flanker4.png,s,l,pic/AffRest2.png,,,,,,,,,,,,,,,,,,,,,,,,,0,1,1,1,0,28,28,5,,,,969.793405199991,970.9927908999962,970.9927908999962,971.4183811999974,s,1,0.48747970000840724,悲观,l,1,0.7010716000077082,db,m,22,2024-04-19_17h36.17.087,mian,2022.2.4,60.03413541422578,
,,,,,,1,0,pic/flanker5.png,pic/flanker3.png,a,l,pic/AffRest2.png,,,,,,,,,,,,,,,,,,,,,,,,,0,1,1,1,0,29,29,31,,,,972.7252215999906,973.9246261999942,973.9246261999942,974.4646336000005,a,1,0.5596815000171773,丢失,l,1,1.299485800002003,db,m,22,2024-04-19_17h36.17.087,mian,2022.2.4,60.03413541422578,
,,,,,,1,1,pic/flanker6.png,pic/flanker4.png,s,k,pic/AffRest2.png,,,,,,,,,,,,,,,,,,,,,,,,,0,1,1,1,0,30,30,30,,,,976.4067259000003,977.6061085999972,977.6061085999972,978.1933420999994,s,1,0.543637500013574,俊秀,k,1,0.7923135000164621,db,m,22,2024-04-19_17h36.17.087,mian,2022.2.4,60.03413541422578,
,,,,,,0,0,pic/flanker6.png,pic/flanker2.png,a,l,pic/AffRest2.png,,,,,,,,,,,,,,,,,,,,,,,,,0,1,1,1,0,31,31,73,,,,979.6217503999942,980.8211835999973,980.8211835999973,981.4121775999956,a,1,0.40859660001297016,忧虑,l,1,0.7550044000090566,db,m,22,2024-04-19_17h36.17.087,mian,2022.2.4,60.03413541422578,
,,,,,,1,1,pic/flanker6.png,pic/flanker4.png,s,k,pic/AffRest2.png,,,,,,,,,,,,,,,,,,,,,,,,,0,1,1,1,0,32,32,38,,,,982.6702842999948,983.8696460999927,983.8696460999927,984.4105374999926,s,1,0.4939924000063911,羡慕,k,1,1.5052454000106081,db,m,22,2024-04-19_17h36.17.087,mian,2022.2.4,60.03413541422578,
,,,,,,0,0,pic/flanker6.png,pic/flanker2.png,a,l,pic/AffRest2.png,,,,,,,,,,,,,,,,,,,,,,,,,0,1,1,1,0,33,33,17,,,,986.5016526999971,987.7010691999894,987.7010691999894,988.1376397999993,a,1,0.6225904000166338,轻率,l,1,0.6577198000159115,db,m,22,2024-04-19_17h36.17.087,mian,2022.2.4,60.03413541422578,
,,,,,,1,0,pic/flanker6.png,pic/flanker4.png,s,l,pic/AffRest2.png,,,,,,,,,,,,,,,,,,,,,,,,,0,1,1,1,0,34,34,13,,,,989.5167965,990.7162109999917,990.7162109999917,991.1969030999899,s,1,0.5533946000068681,鲁莽,l,1,0.9453505999990739,db,m,22,2024-04-19_17h36.17.087,mian,2022.2.4,60.03413541422578,
,,,,,,1,1,pic/flanker5.png,pic/flanker3.png,a,k,pic/AffRest2.png,,,,,,,,,,,,,,,,,,,,,,,,,0,1,1,1,0,35,35,28,,,,992.7984694999905,993.9978961999877,993.9978961999877,994.4402247999969,a,1,0.6385786000173539,诚恳,k,1,0.6584596000175225,db,m,22,2024-04-19_17h36.17.087,mian,2022.2.4,60.03413541422578,
,,,,,,0,1,pic/flanker6.png,pic/flanker2.png,a,k,pic/AffRest2.png,,,,,,,,,,,,,,,,,,,,,,,,,0,1,1,1,0,36,36,26,,,,995.8302968999924,997.0297301999963,997.0297301999963,997.6534790999867,a,1,0.42240890000539366,敬佩,k,1,0.6198264000122435,db,m,22,2024-04-19_17h36.17.087,mian,2022.2.4,60.03413541422578,
,,,,,,1,1,pic/flanker5.png,pic/flanker3.png,a,k,pic/AffRest2.png,,,,,,,,,,,,,,,,,,,,,,,,,0,1,1,1,0,37,37,52,,,,998.8121552999946,1000.0115179999993,1000.0115179999993,1000.5047398999886,a,1,0.6228829000028782,优雅,k,1,0.7840386000025319,db,m,22,2024-04-19_17h36.17.087,mian,2022.2.4,60.03413541422578,
,,,,,,0,0,pic/flanker5.png,pic/flanker1.png,s,l,pic/AffRest2.png,,,,,,,,,,,,,,,,,,,,,,,,,0,1,1,1,0,38,38,19,,,,1002.0105148000002,1003.209915399988,1003.209915399988,1003.8057570999954,s,1,0.39983249999932013,烦恼,l,1,0.7697876000165707,db,m,22,2024-04-19_17h36.17.087,mian,2022.2.4,60.03413541422578,
,,,,,,1,1,pic/flanker5.png,pic/flanker3.png,a,k,pic/AffRest2.png,,,,,,,,,,,,,,,,,,,,,,,,,0,1,1,1,0,39,39,76,,,,1005.0756426000007,1006.2750363999949,1006.2750363999949,1006.8434516999987,a,1,0.45526600000448525,热切,k,1,0.6192712000047322,db,m,22,2024-04-19_17h36.17.087,mian,2022.2.4,60.03413541422578,
,,,,,,1,1,pic/flanker5.png,pic/flanker3.png,a,k,pic/AffRest2.png,,,,,,,,,,,,,,,,,,,,,,,,,0,1,1,1,0,40,40,12,,,,1008.040808699996,1009.2402203999955,1009.2402203999955,1009.8761495999934,a,1,0.4717149000207428,畅销,k,1,0.6673551000130828,db,m,22,2024-04-19_17h36.17.087,mian,2022.2.4,60.03413541422578,
,,,,,,1,1,pic/flanker5.png,pic/flanker3.png,a,k,pic/AffRest2.png,,,,,,,,,,,,,,,,,,,,,,,,,0,1,1,1,0,41,41,20,,,,1011.1226132999873,1012.3220225999976,1012.3220225999976,1012.9143561999954,a,1,0.5196180000057211,爽朗,k,1,0.8648250000114786,db,m,22,2024-04-19_17h36.17.087,mian,2022.2.4,60.03413541422578,
,,,,,,1,1,pic/flanker5.png,pic/flanker3.png,a,k,pic/AffRest2.png,,,,,,,,,,,,,,,,,,,,,,,,,0,1,1,1,0,42,42,4,,,,1014.3876119999913,1015.5870570999978,1015.5870570999978,1016.0325593999878,a,1,0.5406886000127997,振作,k,1,0.6898210000217659,db,m,22,2024-04-19_17h36.17.087,mian,2022.2.4,60.03413541422578,
,,,,,,0,1,pic/flanker6.png,pic/flanker2.png,a,k,pic/AffRest2.png,,,,,,,,,,,,,,,,,,,,,,,,,0,1,1,1,0,43,43,42,,,,1017.3527878999885,1018.5522071999876,1018.5522071999876,1019.1797757999884,a,1,0.45987350000359584,富足,k,1,0.5600189000106184,db,m,22,2024-04-19_17h36.17.087,mian,2022.2.4,60.03413541422578,
,,,,,,1,0,pic/flanker6.png,pic/flanker4.png,s,l,pic/AffRest2.png,,,,,,,,,,,,,,,,,,,,,,,,,0,1,1,1,0,44,44,61,,,,1020.3013228999916,1021.5007272999937,1021.5007272999937,1022.0834724999877,s,1,0.44183880000491627,消沉,l,1,0.7138165000069421,db,m,22,2024-04-19_17h36.17.087,mian,2022.2.4,60.03413541422578,
,,,,,,1,1,pic/flanker6.png,pic/flanker4.png,s,k,pic/AffRest2.png,,,,,,,,,,,,,,,,,,,,,,,,,0,1,1,1,0,45,45,22,,,,1023.3331311999937,1024.5325392999948,1024.5325392999948,1025.1230212999944,s,1,0.46568520001892466,精致,k,1,2.3222726000094553,db,m,22,2024-04-19_17h36.17.087,mian,2022.2.4,60.03413541422578,
,,,,,,0,1,pic/flanker5.png,pic/flanker1.png,s,k,pic/AffRest2.png,,,,,,,,,,,,,,,,,,,,,,,,,0,1,1,1,0,46,46,48,,,,1028.0307719999983,1029.2301726000005,1029.2301726000005,1029.807420199999,s,1,0.43194650001532864,公平,k,1,0.568244300011429,db,m,22,2024-04-19_17h36.17.087,mian,2022.2.4,60.03413541422578,
,,,,,,0,1,pic/flanker6.png,pic/flanker2.png,a,k,pic/AffRest2.png,,,,,,,,,,,,,,,,,,,,,,,,,0,1,1,1,0,47,47,50,,,,1030.9293135999906,1032.128765699992,1032.128765699992,1032.6606589999865,a,1,0.48740860001998954,秀丽,k,1,0.6175162000145065,db,m,22,2024-04-19_17h36.17.087,mian,2022.2.4,60.03413541422578,
,,,,,,1,1,pic/flanker6.png,pic/flanker4.png,s,k,pic/AffRest2.png,,,,,,,,,,,,,,,,,,,,,,,,,0,1,1,1,0,48,48,14,,,,1033.8778473999992,1035.0772294999915,1035.0772294999915,1035.5166829999944,s,1,0.5072548000025563,永恒,k,1,0.5808936000103131,db,m,22,2024-04-19_17h36.17.087,mian,2022.2.4,60.03413541422578,
,,,,,,0,0,pic/flanker5.png,pic/flanker1.png,s,l,pic/AffRest2.png,,,,,,,,,,,,,,,,,,,,,,,,,0,1,1,1,0,49,49,35,,,,1036.693085699997,1037.892485199991,1037.892485199991,1038.383221199998,s,1,0.38498670000990387,郁闷,l,1,0.5916724000126123,db,m,22,2024-04-19_17h36.17.087,mian,2022.2.4,60.03413541422578,
,,,,,,0,1,pic/flanker6.png,pic/flanker2.png,a,k,pic/AffRest2.png,,,,,,,,,,,,,,,,,,,,,,,,,0,1,1,1,0,50,50,74,,,,1039.4583714999899,1040.657847999988,1040.657847999988,1041.1981410000008,a,1,0.4179030000086641,清秀,k,1,0.8232113000121899,db,m,22,2024-04-19_17h36.17.087,mian,2022.2.4,60.03413541422578,
,,,,,,1,0,pic/flanker5.png,pic/flanker3.png,a,l,pic/AffRest2.png,,,,,,,,,,,,,,,,,,,,,,,,,0,1,1,1,0,51,51,55,,,,1042.540130999987,1043.7395617999864,1043.7395617999864,1044.2841129000008,a,1,0.44876600001589395,懒惰,l,1,0.8620251000102144,db,m,22,2024-04-19_17h36.17.087,mian,2022.2.4,60.03413541422578,
,,,,,,0,1,pic/flanker5.png,pic/flanker1.png,s,k,pic/AffRest2.png,,,,,,,,,,,,,,,,,,,,,,,,,0,1,1,1,0,52,52,0,,,,1045.705218499992,1046.9046213999973,1046.9046213999973,1047.3856405999977,s,1,0.6414478000078816,生动,k,1,0.6534162000170909,db,m,22,2024-04-19_17h36.17.087,mian,2022.2.4,60.03413541422578,
,,,,,,1,0,pic/flanker6.png,pic/flanker4.png,s,l,pic/AffRest2.png,,,,,,,,,,,,,,,,,,,,,,,,,0,1,1,1,0,53,53,77,,,,1048.7870545999904,1049.9863985999982,1049.9863985999982,1050.4664604999998,s,1,0.5479229000047781,沮丧,l,1,0.6080198000126984,db,m,22,2024-04-19_17h36.17.087,mian,2022.2.4,60.03413541422578,
,,,,,,0,1,pic/flanker5.png,pic/flanker1.png,s,k,pic/AffRest2.png,,,,,,,,,,,,,,,,,,,,,,,,,0,1,1,1,0,54,54,64,,,,1051.7188663999987,1052.9182732999907,1052.9182732999907,1053.5566961999866,s,1,0.4578085000102874,旺盛,k,1,1.2337684000085574,db,m,22,2024-04-19_17h36.17.087,mian,2022.2.4,60.03413541422578,
,,,,,,0,1,pic/flanker5.png,pic/flanker1.png,s,k,pic/AffRest2.png,,,,,,,,,,,,,,,,,,,,,,,,,0,1,1,1,0,55,55,32,,,,1055.3503655999957,1056.549784799994,1056.549784799994,1056.9963926999917,s,1,0.3181681000132812,圣洁,k,1,0.7035664000140969,db,m,22,2024-04-19_17h36.17.087,mian,2022.2.4,60.03413541422578,
,,,,,,1,1,pic/flanker5.png,pic/flanker3.png,a,k,pic/AffRest2.png,,,,,,,,,,,,,,,,,,,,,,,,,0,1,1,1,0,56,56,36,,,,1058.1156409999967,1059.3150535999885,1059.3150535999885,1059.745336299995,a,1,0.8212981000106083,顽强,k,1,0.7503291000030003,db,m,22,2024-04-19_17h36.17.087,mian,2022.2.4,60.03413541422578,
,,,,,,0,1,pic/flanker5.png,pic/flanker1.png,s,k,pic/AffRest2.png,,,,,,,,,,,,,,,,,,,,,,,,,0,1,1,1,0,57,57,72,,,,1061.4306443999958,1062.6300648999895,1062.6300648999895,1063.1206731999991,s,1,1.0044316999992589,典雅,k,1,0.5454112000152236,db,m,22,2024-04-19_17h36.17.087,mian,2022.2.4,60.03413541422578,
,,,,,,0,0,pic/flanker5.png,pic/flanker1.png,s,l,pic/AffRest2.png,,,,,,,,,,,,,,,,,,,,,,,,,0,1,1,1,0,58,58,67,,,,1064.7623228999873,1065.961709899988,1065.961709899988,1066.560218899991,s,1,0.636825100009446,缺乏,l,1,0.8522758000181057,db,m,22,2024-04-19_17h36.17.087,mian,2022.2.4,60.03413541422578,
,,,,,,0,1,pic/flanker6.png,pic/flanker2.png,a,k,pic/AffRest2.png,,,,,,,,,,,,,,,,,,,,,,,,,0,1,1,1,0,59,59,2,,,,1068.143944299998,1069.343362399988,1069.343362399988,1069.8887681999913,a,1,0.4371205000061309,充裕,k,1,0.5648277000000235,db,m,22,2024-04-19_17h36.17.087,mian,2022.2.4,60.03413541422578,
,,,,,,1,0,pic/flanker6.png,pic/flanker4.png,s,l,pic/AffRest2.png,,,,,,,,,,,,,,,,,,,,,,,,,0,1,1,1,0,60,60,37,,,,1070.975857499987,1072.1752569999953,1072.1752569999953,1072.6505004999926,s,1,0.5348747000098228,嘲笑,l,1,0.6233273000107147,db,m,22,2024-04-19_17h36.17.087,mian,2022.2.4,60.03413541422578,
,,,,,,0,0,pic/flanker5.png,pic/flanker1.png,s,l,pic/AffRest2.png,,,,,,,,,,,,,,,,,,,,,,,,,0,1,1,1,0,61,61,51,,,,1073.9243885999895,1075.1237942000007,1075.1237942000007,1075.618233599991,s,1,0.4022265000094194,落后,l,1,0.79608850000659,db,m,22,2024-04-19_17h36.17.087,mian,2022.2.4,60.03413541422578,
,,,,,,1,1,pic/flanker6.png,pic/flanker4.png,s,k,pic/AffRest2.png,,,,,,,,,,,,,,,,,,,,,,,,,0,1,1,1,0,62,62,54,,,,1076.9061951999902,1078.1056186999922,1078.1056186999922,1078.7468599999993,s,1,0.570142400014447,前进,k,1,0.6417937000078382,db,m,22,2024-04-19_17h36.17.087,mian,2022.2.4,60.03413541422578,
,,,,,,0,1,pic/flanker6.png,pic/flanker2.png,a,k,pic/AffRest2.png,,,,,,,,,,,,,,,,,,,,,,,,,0,1,1,1,0,63,63,66,,,,1080.0546786999912,1081.254080499988,1081.254080499988,1081.7923083999922,a,1,0.454024800012121,有利,k,1,0.6657555000128923,db,m,22,2024-04-19_17h36.17.087,mian,2022.2.4,60.03413541422578,
,,,,,,1,1,pic/flanker5.png,pic/flanker3.png,a,k,pic/AffRest2.png,,,,,,,,,,,,,,,,,,,,,,,,,0,1,1,1,0,64,64,44,,,,1083.0031323999865,1084.2025432999944,1084.2025432999944,1084.6901777999883,a,1,0.6830910000135191,富丽,k,1,0.5994594000076177,db,m,22,2024-04-19_17h36.17.087,mian,2022.2.4,60.03413541422578,
,,,,,,0,0,pic/flanker5.png,pic/flanker1.png,s,l,pic/AffRest2.png,,,,,,,,,,,,,,,,,,,,,,,,,0,1,1,1,0,65,65,43,,,,1086.0849591000006,1087.2843198999908,1087.2843198999908,1087.8275534999993,s,1,0.392076400006772,浪费,l,1,0.6142060000129277,db,m,22,2024-04-19_17h36.17.087,mian,2022.2.4,60.03413541422578,
,,,,,,0,0,pic/flanker5.png,pic/flanker1.png,s,l,pic/AffRest2.png,,,,,,,,,,,,,,,,,,,,,,,,,0,1,1,1,0,66,66,3,,,,1088.916846299995,1090.1162520999933,1090.1162520999933,1090.7591373999894,s,1,0.4513518000167096,胡涂,l,1,0.7152815000008559,db,m,22,2024-04-19_17h36.17.087,mian,2022.2.4,60.03413541422578,
,,,,,,1,0,pic/flanker6.png,pic/flanker4.png,s,l,pic/AffRest2.png,,,,,,,,,,,,,,,,,,,,,,,,,0,1,1,1,0,67,67,21,,,,1092.0152664999914,1093.2146691999951,1093.2146691999951,1093.7926248000003,s,1,0.5318768000142882,怀疑,l,1,0.6722462000179803,db,m,22,2024-04-19_17h36.17.087,mian,2022.2.4,60.03413541422578,
,,,,,,0,1,pic/flanker5.png,pic/flanker1.png,s,k,pic/AffRest2.png,,,,,,,,,,,,,,,,,,,,,,,,,0,1,1,1,0,68,68,8,,,,1095.1137759999983,1096.3131942999898,1096.3131942999898,1096.7564404000004,s,1,0.39067040001100395,鲜艳,k,1,0.5531165000138571,db,m,22,2024-04-19_17h36.17.087,mian,2022.2.4,60.03413541422578,
,,,,,,1,0,pic/flanker6.png,pic/flanker4.png,s,l,pic/AffRest2.png,,,,,,,,,,,,,,,,,,,,,,,,,0,1,1,1,0,69,69,45,,,,1097.7957155999902,1098.995105199996,1098.995105199996,1099.5117919999902,s,1,0.5286284000030719,心慌,l,1,0.5416901000135113,db,m,22,2024-04-19_17h36.17.087,mian,2022.2.4,60.03413541422578,
,,,,,,1,1,pic/flanker6.png,pic/flanker4.png,s,k,pic/AffRest2.png,,,,,,,,,,,,,,,,,,,,,,,,,0,1,1,1,0,70,70,62,,,,1100.694258699994,1101.8936452999915,1101.8936452999915,1102.3821661999973,s,1,0.49234270001761615,吉祥,k,1,0.6703224000084447,db,m,22,2024-04-19_17h36.17.087,mian,2022.2.4,60.03413541422578,
,,,,,,0,1,pic/flanker6.png,pic/flanker2.png,a,k,pic/AffRest2.png,,,,,,,,,,,,,,,,,,,,,,,,,0,1,1,1,0,71,71,10,,,,1103.6427685999952,1104.8421862999967,1104.8421862999967,1105.4341705999977,a,1,0.44438990000344347,正直,k,1,0.5081837000179803,db,m,22,2024-04-19_17h36.17.087,mian,2022.2.4,60.03413541422578,
,,,,,,0,0,pic/flanker5.png,pic/flanker1.png,s,l,pic/AffRest2.png,,,,,,,,,,,,,,,,,,,,,,,,,0,1,1,1,0,72,72,27,,,,1106.491329899989,1107.690777099997,1107.690777099997,1108.1325115999934,s,1,0.35281310000573285,撒谎,l,1,0.6252169000072172,db,m,22,2024-04-19_17h36.17.087,mian,2022.2.4,60.03413541422578,
,,,,,,1,0,pic/flanker5.png,pic/flanker3.png,a,l,pic/AffRest2.png,,,,,,,,,,,,,,,,,,,,,,,,,0,1,1,1,0,73,73,79,,,,1109.2066296999983,1110.4060377999995,1110.4060377999995,1110.8301410999993,a,1,0.5059412000118755,孤单,l,1,0.6476432000199566,db,m,22,2024-04-19_17h36.17.087,mian,2022.2.4,60.03413541422578,
,,,,,,0,1,pic/flanker6.png,pic/flanker2.png,a,k,pic/AffRest2.png,,,,,,,,,,,,,,,,,,,,,,,,,0,1,1,1,0,74,74,34,,,,1112.0885143999913,1113.2879236000008,1113.2879236000008,1113.9151305999985,a,1,0.38855300001159776,雄厚,k,1,0.5907294000207912,db,m,22,2024-04-19_17h36.17.087,mian,2022.2.4,60.03413541422578,
,,,,,,1,0,pic/flanker5.png,pic/flanker3.png,a,l,pic/AffRest2.png,,,,,,,,,,,,,,,,,,,,,,,,,0,1,1,1,0,75,75,47,,,,1115.0037710999895,1116.203128699999,1116.203128699999,1116.7854050999886,a,1,0.5034143000084441,争吵,l,1,0.6881550000107381,db,m,22,2024-04-19_17h36.17.087,mian,2022.2.4,60.03413541422578,
,,,,,,0,0,pic/flanker6.png,pic/flanker2.png,a,l,pic/AffRest2.png,,,,,,,,,,,,,,,,,,,,,,,,,0,1,1,1,0,76,76,33,,,,1118.0854983999889,1119.2849136999866,1119.2849136999866,1119.8072867999872,a,1,0.5788889000104973,排斥,l,1,0.4940939000080107,db,m,22,2024-04-19_17h36.17.087,mian,2022.2.4,60.03413541422578,
,,,,,,0,1,pic/flanker6.png,pic/flanker2.png,a,k,pic/AffRest2.png,,,,,,,,,,,,,,,,,,,,,,,,,0,1,1,1,0,77,77,18,,,,1120.9840420999972,1122.183462999994,1122.183462999994,1122.676795499996,a,1,0.6460937000083504,廉洁,k,1,0.6673790000204463,db,m,22,2024-04-19_17h36.17.087,mian,2022.2.4,60.03413541422578,
,,,,,,0,0,pic/flanker6.png,pic/flanker2.png,a,l,pic/AffRest2.png,,,,,,,,,,,,,,,,,,,,,,,,,0,1,1,1,0,78,78,49,,,,1124.0825030999986,1125.2819072999991,1125.2819072999991,1125.8670944999903,a,1,0.39947730001586024,闷热,l,1,0.6377404000086244,db,m,22,2024-04-19_17h36.17.087,mian,2022.2.4,60.03413541422578,
,,,,,,1,1,pic/flanker5.png,pic/flanker3.png,a,k,pic/AffRest2.png,,,,,,,,,,,,,,,,,,,,,,,,,0,1,1,1,0,79,79,60,,,,1127.0143494999938,1128.2137549999898,1128.2137549999898,1128.8090211999952,a,1,0.5287609000079101,奉献,k,1,0.6289239000034286,db,m,22,2024-04-19_17h36.17.087,mian,2022.2.4,60.03413541422578,
,,,,,,,,,,,,pic/AffRest2.png,,,,,,,,,,,,,,,,,,,,,,,,,0,1,1,1,,,,,,,,,,,,,,,,,,,db,m,22,2024-04-19_17h36.17.087,mian,2022.2.4,60.03413541422578,
,,,,,,1,0,pic/flanker5.png,pic/flanker3.png,a,l,pic/AffRest3.png,,,,,,,,,,,,,,,,,,,,,,,,,0,2,2,2,0,0,0,7,,,,1141.0037823999883,1142.1900581999944,1142.206721999988,1142.7861558999866,a,1,0.5122570000094129,忧虑,l,1,1.281382900022436,db,m,22,2024-04-19_17h36.17.087,mian,2022.2.4,60.03413541422578,
,,,,,,1,1,pic/flanker6.png,pic/flanker4.png,s,k,pic/AffRest3.png,,,,,,,,,,,,,,,,,,,,,,,,,0,2,2,2,0,1,1,46,,,,1144.6555265999923,1145.8548913999985,1145.8548913999985,1146.4704902999947,s,1,0.5651764000067487,圣洁,k,1,0.6326449000043795,db,m,22,2024-04-19_17h36.17.087,mian,2022.2.4,60.03413541422578,
,,,,,,0,0,pic/flanker6.png,pic/flanker2.png,a,l,pic/AffRest3.png,,,,,,,,,,,,,,,,,,,,,,,,,0,2,2,2,0,2,2,41,,,,1147.7872607999889,1148.9866608999873,1148.9866608999873,1149.427329699989,a,1,0.37776519999897573,假冒,l,1,0.5798202000005404,db,m,22,2024-04-19_17h36.17.087,mian,2022.2.4,60.03413541422578,
,,,,,,1,1,pic/flanker5.png,pic/flanker3.png,a,k,pic/AffRest3.png,,,,,,,,,,,,,,,,,,,,,,,,,0,2,2,2,0,3,3,44,,,,1150.4692522999976,1151.6686377999868,1151.6686377999868,1152.1084793999908,a,1,0.4748309000133304,充裕,k,1,0.9328876000072341,db,m,22,2024-04-19_17h36.17.087,mian,2022.2.4,60.03413541422578,
,,,,,,1,1,pic/flanker6.png,pic/flanker4.png,s,k,pic/AffRest3.png,,,,,,,,,,,,,,,,,,,,,,,,,0,2,2,2,0,4,4,22,,,,1153.617642799989,1154.8170924999868,1154.8170924999868,1155.3592426999967,s,1,0.5152861000096891,公平,k,1,0.6396849000011571,db,m,22,2024-04-19_17h36.17.087,mian,2022.2.4,60.03413541422578,
,,,,,,1,0,pic/flanker5.png,pic/flanker3.png,a,l,pic/AffRest3.png,,,,,,,,,,,,,,,,,,,,,,,,,0,2,2,2,0,5,5,71,,,,1156.6161538999877,1157.8155448999896,1157.8155448999896,1158.3542054999998,a,1,0.4283954000129597,厌恶,l,1,0.6415069000067888,db,m,22,2024-04-19_17h36.17.087,mian,2022.2.4,60.03413541422578,
,,,,,,1,1,pic/flanker6.png,pic/flanker4.png,s,k,pic/AffRest3.png,,,,,,,,,,,,,,,,,,,,,,,,,0,2,2,2,0,6,6,54,,,,1159.51467769999,1160.7140956999938,1160.7140956999938,1161.3057413999923,s,1,0.49159880001388956,畅销,k,1,0.590743000007933,db,m,22,2024-04-19_17h36.17.087,mian,2022.2.4,60.03413541422578,
,,,,,,0,0,pic/flanker6.png,pic/flanker2.png,a,l,pic/AffRest3.png,,,,,,,,,,,,,,,,,,,,,,,,,0,2,2,2,0,7,7,1,,,,1162.4798579999915,1163.6792740999954,1163.6792740999954,1164.2684541999915,a,1,0.41523910002433695,懒惰,l,1,0.6161896000121487,db,m,22,2024-04-19_17h36.17.087,mian,2022.2.4,60.03413541422578,
,,,,,,0,0,pic/flanker6.png,pic/flanker2.png,a,l,pic/AffRest3.png,,,,,,,,,,,,,,,,,,,,,,,,,0,2,2,2,0,8,8,33,,,,1165.3950581999961,1166.5945058999932,1166.5945058999932,1167.1907897999918,a,1,0.37974070000927895,浪费,l,1,0.5104552000120748,db,m,22,2024-04-19_17h36.17.087,mian,2022.2.4,60.03413541422578,
,,,,,,0,1,pic/flanker6.png,pic/flanker2.png,a,k,pic/AffRest3.png,,,,,,,,,,,,,,,,,,,,,,,,,0,2,2,2,0,9,9,26,,,,1168.1603342999879,1169.3597598999913,1169.3597598999913,1169.789231799994,a,1,0.31512430001748726,舒畅,k,1,0.6486536000156775,db,m,22,2024-04-19_17h36.17.087,mian,2022.2.4,60.03413541422578,
,,,,,,1,1,pic/flanker5.png,pic/flanker3.png,a,k,pic/AffRest3.png,,,,,,,,,,,,,,,,,,,,,,,,,0,2,2,2,0,10,10,20,,,,1170.8756756999937,1172.075070699997,1172.075070699997,1172.7054831999994,a,1,0.47334240000054706,永恒,k,1,0.6158075000130339,db,m,22,2024-04-19_17h36.17.087,mian,2022.2.4,60.03413541422578,
,,,,,,1,1,pic/flanker5.png,pic/flanker3.png,a,k,pic/AffRest3.png,,,,,,,,,,,,,,,,,,,,,,,,,0,2,2,2,0,11,11,28,,,,1173.8908158999984,1175.0902211999928,1175.0902211999928,1175.74130709999,a,1,0.5462504000170156,豪放,k,1,0.6378402000118513,db,m,22,2024-04-19_17h36.17.087,mian,2022.2.4,60.03413541422578,
,,,,,,1,1,pic/flanker5.png,pic/flanker3.png,a,k,pic/AffRest3.png,,,,,,,,,,,,,,,,,,,,,,,,,0,2,2,2,0,12,12,36,,,,1177.005904199992,1178.2053214999905,1178.2053214999905,1178.723067599989,a,1,0.5190273000189336,热切,k,1,0.6038173000124516,db,m,22,2024-04-19_17h36.17.087,mian,2022.2.4,60.03413541422578,
,,,,,,1,0,pic/flanker5.png,pic/flanker3.png,a,l,pic/AffRest3.png,,,,,,,,,,,,,,,,,,,,,,,,,0,2,2,2,0,13,13,39,,,,1179.9710769999947,1181.1704781000008,1181.1704781000008,1181.6499707999901,a,1,0.49141600001894403,怀疑,k,0,1.2857838000054471,db,m,22,2024-04-19_17h36.17.087,mian,2022.2.4,60.03413541422578,
,,,,,,0,0,pic/flanker5.png,pic/flanker1.png,s,l,pic/AffRest3.png,,,,,,,,,,,,,,,,,,,,,,,,,0,2,2,2,0,14,14,67,,,,1183.5359437999869,1184.7353594999877,1184.7353594999877,1185.3072807999997,s,1,0.4061402000079397,损害,l,1,0.5598125000105938,db,m,22,2024-04-19_17h36.17.087,mian,2022.2.4,60.03413541422578,
,,,,,,0,0,pic/flanker5.png,pic/flanker1.png,s,l,pic/AffRest3.png,,,,,,,,,,,,,,,,,,,,,,,,,0,2,2,2,0,15,15,59,,,,1186.384529499992,1187.5839061999868,1187.5839061999868,1188.2087105999963,s,1,0.4361376000015298,沮丧,l,1,0.5764234000089345,db,m,22,2024-04-19_17h36.17.087,mian,2022.2.4,60.03413541422578,
,,,,,,0,1,pic/flanker5.png,pic/flanker1.png,s,k,pic/AffRest3.png,,,,,,,,,,,,,,,,,,,,,,,,,0,2,2,2,0,16,16,56,,,,1189.3497273999965,1190.549097199997,1190.549097199997,1191.1385771999921,s,1,0.6610016000195174,赞成,k,1,0.7087283000000753,db,m,22,2024-04-19_17h36.17.087,mian,2022.2.4,60.03413541422578,
,,,,,,0,1,pic/flanker5.png,pic/flanker1.png,s,k,pic/AffRest3.png,,,,,,,,,,,,,,,,,,,,,,,,,0,2,2,2,0,17,17,48,,,,1192.598087099992,1193.7974650999968,1193.7974650999968,1194.3117133999913,s,1,0.42653080000309274,鲜艳,k,1,0.4794753000169294,db,m,22,2024-04-19_17h36.17.087,mian,2022.2.4,60.03413541422578,
,,,,,,0,1,pic/flanker5.png,pic/flanker1.png,s,k,pic/AffRest3.png,,,,,,,,,,,,,,,,,,,,,,,,,0,2,2,2,0,18,18,72,,,,1195.3300059999892,1196.5294091999967,1196.5294091999967,1197.1701431999973,s,1,0.334799500007648,生动,k,1,0.514543400000548,db,m,22,2024-04-19_17h36.17.087,mian,2022.2.4,60.03413541422578,
,,,,,,1,0,pic/flanker5.png,pic/flanker3.png,a,l,pic/AffRest3.png,,,,,,,,,,,,,,,,,,,,,,,,,0,2,2,2,0,19,19,79,,,,1198.1119771999947,1199.3113801,1199.3113801,1199.7823272999958,a,1,0.5466713000059826,杂乱,l,1,0.7104032000206644,db,m,22,2024-04-19_17h36.17.087,mian,2022.2.4,60.03413541422578,
,,,,,,1,1,pic/flanker5.png,pic/flanker3.png,a,k,pic/AffRest3.png,,,,,,,,,,,,,,,,,,,,,,,,,0,2,2,2,0,20,20,60,,,,1201.1437790999917,1202.343233599997,1202.343233599997,1202.834111499993,a,1,0.5311212000087835,瑰丽,k,1,0.5998735000175657,db,m,22,2024-04-19_17h36.17.087,mian,2022.2.4,60.03413541422578,
,,,,,,0,1,pic/flanker5.png,pic/flanker1.png,s,k,pic/AffRest3.png,,,,,,,,,,,,,,,,,,,,,,,,,0,2,2,2,0,21,21,16,,,,1204.0423474999989,1205.2417652999866,1205.2417652999866,1205.682083599997,s,1,0.37416060001123697,优雅,k,1,0.4393584000063129,db,m,22,2024-04-19_17h36.17.087,mian,2022.2.4,60.03413541422578,
,,,,,,1,1,pic/flanker5.png,pic/flanker3.png,a,k,pic/AffRest3.png,,,,,,,,,,,,,,,,,,,,,,,,,0,2,2,2,0,22,22,4,,,,1206.607689899989,1207.8070807999902,1207.8070807999902,1208.390171799998,a,1,0.47481810000317637,留恋,k,1,1.0978746000182582,db,m,22,2024-04-19_17h36.17.087,mian,2022.2.4,60.03413541422578,
,,,,,,1,0,pic/flanker5.png,pic/flanker3.png,a,l,pic/AffRest3.png,,,,,,,,,,,,,,,,,,,,,,,,,0,2,2,2,0,23,23,55,,,,1210.0559768999956,1211.255377999987,1211.255377999987,1211.7922044999868,a,1,0.513040900012129,排斥,l,1,0.5460515000158921,db,m,22,2024-04-19_17h36.17.087,mian,2022.2.4,60.03413541422578,
,,,,,,1,1,pic/flanker5.png,pic/flanker3.png,a,k,pic/AffRest3.png,,,,,,,,,,,,,,,,,,,,,,,,,0,2,2,2,0,24,24,76,,,,1212.9378469999938,1214.1372514999966,1214.1372514999966,1214.6799156999914,a,1,0.4830517000082182,清秀,k,1,0.6087865000154125,db,m,22,2024-04-19_17h36.17.087,mian,2022.2.4,60.03413541422578,
,,,,,,1,0,pic/flanker6.png,pic/flanker4.png,s,l,pic/AffRest3.png,,,,,,,,,,,,,,,,,,,,,,,,,0,2,2,2,0,25,25,5,,,,1215.8697145999904,1217.0691269999952,1217.0691269999952,1217.6073101999937,s,1,0.8106137000140734,堵塞,l,1,0.641132300006575,db,m,22,2024-04-19_17h36.17.087,mian,2022.2.4,60.03413541422578,
,,,,,,0,0,pic/flanker6.png,pic/flanker2.png,a,l,pic/AffRest3.png,,,,,,,,,,,,,,,,,,,,,,,,,0,2,2,2,0,26,26,65,,,,1219.1513745999982,1220.3507874999923,1220.3507874999923,1220.825460699998,a,1,0.3437935000110883,丢失,l,1,0.5879365000000689,db,m,22,2024-04-19_17h36.17.087,mian,2022.2.4,60.03413541422578,
,,,,,,0,1,pic/flanker6.png,pic/flanker2.png,a,k,pic/AffRest3.png,,,,,,,,,,,,,,,,,,,,,,,,,0,2,2,2,0,27,27,74,,,,1221.8667144999927,1223.0661353999894,1223.0661353999894,1223.583061199999,a,1,0.39434410000103526,精致,k,1,0.9351944000081858,db,m,22,2024-04-19_17h36.17.087,mian,2022.2.4,60.03413541422578,
,,,,,,1,1,pic/flanker6.png,pic/flanker4.png,s,k,pic/AffRest3.png,,,,,,,,,,,,,,,,,,,,,,,,,0,2,2,2,0,28,28,78,,,,1225.0317795999872,1226.2311617999949,1226.2311617999949,1226.7159347999986,s,1,0.49433140001201537,有利,k,1,0.8215955000050599,db,m,22,2024-04-19_17h36.17.087,mian,2022.2.4,60.03413541422578,
,,,,,,0,1,pic/flanker5.png,pic/flanker1.png,s,k,pic/AffRest3.png,,,,,,,,,,,,,,,,,,,,,,,,,0,2,2,2,0,29,29,24,,,,1228.1301974999951,1229.329596399999,1229.329596399999,1229.7965060999995,s,1,0.46041160001186654,秀丽,k,1,0.5756225000077393,db,m,22,2024-04-19_17h36.17.087,mian,2022.2.4,60.03413541422578,
,,,,,,0,1,pic/flanker6.png,pic/flanker2.png,a,k,pic/AffRest3.png,,,,,,,,,,,,,,,,,,,,,,,,,0,2,2,2,0,30,30,66,,,,1230.9454559999867,1232.1448571999936,1232.1448571999936,1232.7371874999953,a,1,0.4851051000150619,顽强,k,1,0.7199405000137631,db,m,22,2024-04-19_17h36.17.087,mian,2022.2.4,60.03413541422578,
,,,,,,1,0,pic/flanker6.png,pic/flanker4.png,s,l,pic/AffRest3.png,,,,,,,,,,,,,,,,,,,,,,,,,0,2,2,2,0,31,31,53,,,,1234.0438887999917,1235.2433080999908,1235.2433080999908,1235.7867650999979,s,1,0.5608481000090251,失意,l,1,0.6848353000095813,db,m,22,2024-04-19_17h36.17.087,mian,2022.2.4,60.03413541422578,
,,,,,,0,1,pic/flanker6.png,pic/flanker2.png,a,k,pic/AffRest3.png,,,,,,,,,,,,,,,,,,,,,,,,,0,2,2,2,0,32,32,58,,,,1237.1257247999893,1238.3250979000004,1238.3250979000004,1238.8195300999942,a,1,0.38488860000506975,富足,k,1,0.5466103000217117,db,m,22,2024-04-19_17h36.17.087,mian,2022.2.4,60.03413541422578,
,,,,,,1,1,pic/flanker5.png,pic/flanker3.png,a,k,pic/AffRest3.png,,,,,,,,,,,,,,,,,,,,,,,,,0,2,2,2,0,33,33,12,,,,1239.841003499998,1241.0403904999985,1241.0403904999985,1241.6770906999882,a,1,0.43564430001424626,正直,k,1,0.5494301000144333,db,m,22,2024-04-19_17h36.17.087,mian,2022.2.4,60.03413541422578,
,,,,,,1,0,pic/flanker6.png,pic/flanker4.png,s,l,pic/AffRest3.png,,,,,,,,,,,,,,,,,,,,,,,,,0,2,2,2,0,34,34,61,,,,1242.7728332999977,1243.9722451999987,1243.9722451999987,1244.5459225999948,s,1,0.4655258000129834,消沉,l,1,0.6289331000152742,db,m,22,2024-04-19_17h36.17.087,mian,2022.2.4,60.03413541422578,
,,,,,,1,0,pic/flanker6.png,pic/flanker4.png,s,l,pic/AffRest3.png,,,,,,,,,,,,,,,,,,,,,,,,,0,2,2,2,0,35,35,29,,,,1245.754667599991,1246.9540826999873,1246.9540826999873,1247.5004075999896,s,1,0.4378445000038482,逃避,l,1,0.59382320001896,db,m,22,2024-04-19_17h36.17.087,mian,2022.2.4,60.03413541422578,
,,,,,,0,0,pic/flanker6.png,pic/flanker2.png,a,l,pic/AffRest3.png,,,,,,,,,,,,,,,,,,,,,,,,,0,2,2,2,0,36,36,57,,,,1248.6199128000007,1249.8193197999935,1249.8193197999935,1250.3012578999915,a,1,0.3951223000040045,别扭,l,1,0.6406634000159102,db,m,22,2024-04-19_17h36.17.087,mian,2022.2.4,60.03413541422578,
,,,,,,1,0,pic/flanker5.png,pic/flanker3.png,a,l,pic/AffRest3.png,,,,,,,,,,,,,,,,,,,,,,,,,0,2,2,2,0,37,37,63,,,,1251.4351833999972,1252.6345789999905,1252.6345789999905,1253.2241850999999,a,1,0.6433699000044726,争吵,l,1,0.5318341000092914,db,m,22,2024-04-19_17h36.17.087,mian,2022.2.4,60.03413541422578,
,,,,,,1,1,pic/flanker6.png,pic/flanker4.png,s,k,pic/AffRest3.png,,,,,,,,,,,,,,,,,,,,,,,,,0,2,2,2,0,38,38,30,,,,1254.483625199995,1255.6830593999912,1255.6830593999912,1256.1095398999896,s,1,0.48523050000949297,吉祥,k,1,0.6515149000188103,db,m,22,2024-04-19_17h36.17.087,mian,2022.2.4,60.03413541422578,
,,,,,,0,0,pic/flanker5.png,pic/flanker1.png,s,l,pic/AffRest3.png,,,,,,,,,,,,,,,,,,,,,,,,,0,2,2,2,0,39,39,35,,,,1257.3655383999867,1258.5649450999917,1258.5649450999917,1259.1495011999941,s,1,0.637243800010765,禁止,k,0,1.1698947000113549,db,m,22,2024-04-19_17h36.17.087,mian,2022.2.4,60.03413541422578,
,,,,,,0,0,pic/flanker5.png,pic/flanker1.png,s,l,pic/AffRest3.png,,,,,,,,,,,,,,,,,,,,,,,,,0,2,2,2,0,40,40,75,,,,1261.0636522999994,1262.2630575999938,1262.2630575999938,1262.6814842999884,s,1,0.35713780000514816,鲁莽,l,1,1.252060300015728,db,m,22,2024-04-19_17h36.17.087,mian,2022.2.4,60.03413541422578,
,,,,,,1,0,pic/flanker6.png,pic/flanker4.png,s,l,pic/AffRest3.png,,,,,,,,,,,,,,,,,,,,,,,,,0,2,2,2,0,41,41,13,,,,1264.411983699989,1265.6113995999913,1265.6113995999913,1266.2395187999937,s,1,0.512902500006021,穷苦,l,1,1.1347508000035305,db,m,22,2024-04-19_17h36.17.087,mian,2022.2.4,60.03413541422578,
,,,,,,0,1,pic/flanker6.png,pic/flanker2.png,a,k,pic/AffRest3.png,,,,,,,,,,,,,,,,,,,,,,,,,0,2,2,2,0,42,42,50,,,,1267.9935284999956,1269.1929279999895,1269.1929279999895,1269.6281508999964,a,1,0.39873770001577213,廉洁,k,1,0.5642214000108652,db,m,22,2024-04-19_17h36.17.087,mian,2022.2.4,60.03413541422578,
,,,,,,0,1,pic/flanker6.png,pic/flanker2.png,a,k,pic/AffRest3.png,,,,,,,,,,,,,,,,,,,,,,,,,0,2,2,2,0,43,43,42,,,,1270.6921363000001,1271.8915434999944,1271.8915434999944,1272.3870057999884,a,1,0.3981054000178119,富丽,l,0,0.813124100008281,db,m,22,2024-04-19_17h36.17.087,mian,2022.2.4,60.03413541422578,
,,,,,,1,1,pic/flanker6.png,pic/flanker4.png,s,k,pic/AffRest3.png,,,,,,,,,,,,,,,,,,,,,,,,,0,2,2,2,0,44,44,70,,,,1273.673978699997,1274.8733904999972,1274.8733904999972,1275.2908080999914,s,1,0.49038390000350773,典雅,k,1,0.5412823000078788,db,m,22,2024-04-19_17h36.17.087,mian,2022.2.4,60.03413541422578,
,,,,,,1,1,pic/flanker6.png,pic/flanker4.png,s,k,pic/AffRest3.png,,,,,,,,,,,,,,,,,,,,,,,,,0,2,2,2,0,45,45,38,,,,1276.4392566999886,1277.6386675999966,1277.6386675999966,1278.0771535999957,s,1,0.5053735000110464,享受,k,1,1.1374991000047885,db,m,22,2024-04-19_17h36.17.087,mian,2022.2.4,60.03413541422578,
,,,,,,0,1,pic/flanker5.png,pic/flanker1.png,s,k,pic/AffRest3.png,,,,,,,,,,,,,,,,,,,,,,,,,0,2,2,2,0,46,46,8,,,,1279.8209189999907,1281.0203314999962,1281.0203314999962,1281.5076508999919,s,1,0.3811874000093667,羡慕,k,1,0.624303200020222,db,m,22,2024-04-19_17h36.17.087,mian,2022.2.4,60.03413541422578,
,,,,,,0,1,pic/flanker5.png,pic/flanker1.png,s,k,pic/AffRest3.png,,,,,,,,,,,,,,,,,,,,,,,,,0,2,2,2,0,47,47,64,,,,1282.6194652999984,1283.818872799995,1283.818872799995,1284.4066757999972,s,1,0.35112130001652986,振作,k,1,0.5467413000151282,db,m,22,2024-04-19_17h36.17.087,mian,2022.2.4,60.03413541422578,
,,,,,,0,1,pic/flanker5.png,pic/flanker1.png,s,k,pic/AffRest3.png,,,,,,,,,,,,,,,,,,,,,,,,,0,2,2,2,0,48,48,40,,,,1285.4014204999985,1286.600820199994,1286.600820199994,1287.0408341999864,s,1,0.36257920000934973,雄厚,k,1,0.5106491000187816,db,m,22,2024-04-19_17h36.17.087,mian,2022.2.4,60.03413541422578,
,,,,,,1,1,pic/flanker6.png,pic/flanker4.png,s,k,pic/AffRest3.png,,,,,,,,,,,,,,,,,,,,,,,,,0,2,2,2,0,49,49,6,,,,1288.0001440999913,1289.1995484999934,1289.1995484999934,1289.8367963999917,s,1,0.47230220001074485,如愿,k,1,0.6672795000195038,db,m,22,2024-04-19_17h36.17.087,mian,2022.2.4,60.03413541422578,
,,,,,,1,0,pic/flanker6.png,pic/flanker4.png,s,l,pic/AffRest3.png,,,,,,,,,,,,,,,,,,,,,,,,,0,2,2,2,0,50,50,37,,,,1291.0819564999983,1292.2812990999955,1292.2812990999955,1292.8163863999944,s,1,0.47851970001647715,焦躁,l,1,0.8938613000063924,db,m,22,2024-04-19_17h36.17.087,mian,2022.2.4,60.03413541422578,
,,,,,,0,0,pic/flanker5.png,pic/flanker1.png,s,l,pic/AffRest3.png,,,,,,,,,,,,,,,,,,,,,,,,,0,2,2,2,0,51,51,3,,,,1294.2802936999942,1295.4797196,1295.4797196,1296.0532650999958,s,1,0.3417463000077987,缺乏,l,1,0.6103687000140781,db,m,22,2024-04-19_17h36.17.087,mian,2022.2.4,60.03413541422578,
,,,,,,0,0,pic/flanker6.png,pic/flanker2.png,a,l,pic/AffRest3.png,,,,,,,,,,,,,,,,,,,,,,,,,0,2,2,2,0,52,52,17,,,,1297.1288559999957,1298.3282719999988,1298.3282719999988,1298.9174875999888,a,1,0.4133400000137044,落后,l,1,0.6389702000160469,db,m,22,2024-04-19_17h36.17.087,mian,2022.2.4,60.03413541422578,
,,,,,,0,0,pic/flanker5.png,pic/flanker1.png,s,l,pic/AffRest3.png,,,,,,,,,,,,,,,,,,,,,,,,,0,2,2,2,0,53,53,27,,,,1300.0607059999893,1301.2601376999955,1301.2601376999955,1301.7058401999966,s,1,0.543651600019075,黑暗,l,1,0.583553500007838,db,m,22,2024-04-19_17h36.17.087,mian,2022.2.4,60.03413541422578,
,,,,,,1,0,pic/flanker5.png,pic/flanker3.png,a,l,pic/AffRest3.png,,,,,,,,,,,,,,,,,,,,,,,,,0,2,2,2,0,54,54,47,,,,1302.9259729999903,1304.125368699999,1304.125368699999,1304.5515008999937,a,1,0.6864678000129061,慌忙,l,1,0.5411119000200415,db,m,22,2024-04-19_17h36.17.087,mian,2022.2.4,60.03413541422578,
,,,,,,1,0,pic/flanker6.png,pic/flanker4.png,s,l,pic/AffRest3.png,,,,,,,,,,,,,,,,,,,,,,,,,0,2,2,2,0,55,55,77,,,,1305.8911317999882,1307.090531599999,1307.090531599999,1307.732591699998,s,1,0.7499133000092115,处罚,l,1,0.6007748000120046,db,m,22,2024-04-19_17h36.17.087,mian,2022.2.4,60.03413541422578,
,,,,,,1,0,pic/flanker5.png,pic/flanker3.png,a,l,pic/AffRest3.png,,,,,,,,,,,,,,,,,,,,,,,,,0,2,2,2,0,56,56,15,,,,1309.1894976999902,1310.3888749999896,1310.3888749999896,1310.979977199997,a,1,0.43280870000307914,胡涂,l,1,0.4417791000159923,db,m,22,2024-04-19_17h36.17.087,mian,2022.2.4,60.03413541422578,
,,,,,,1,1,pic/flanker6.png,pic/flanker4.png,s,k,pic/AffRest3.png,,,,,,,,,,,,,,,,,,,,,,,,,0,2,2,2,0,57,57,14,,,,1311.9547422999894,1313.1541455999977,1313.1541455999977,1313.7374948999932,s,1,0.48394900001585484,奉献,k,1,0.6503776000026846,db,m,22,2024-04-19_17h36.17.087,mian,2022.2.4,60.03413541422578,
,,,,,,1,0,pic/flanker5.png,pic/flanker3.png,a,l,pic/AffRest3.png,,,,,,,,,,,,,,,,,,,,,,,,,0,2,2,2,0,58,58,23,,,,1314.9865495999984,1316.1859475999954,1316.1859475999954,1316.6345118999889,a,1,0.4659218000015244,心慌,l,1,0.568896400014637,db,m,22,2024-04-19_17h36.17.087,mian,2022.2.4,60.03413541422578,
