target,反应类型,条件,truetarget,CorAns,Position,congruency,AffValue,flankerPic,targetPic,corAnsF,corAnsA,RestPic,returnPractice.thisRepN,returnPractice.thisTrialN,returnPractice.thisN,returnPractice.thisIndex,pracNum.thisRepN,pracNum.thisTrialN,pracNum.thisN,pracNum.thisIndex,NumBlock1.thisRepN,NumBlock1.thisTrialN,NumBlock1.thisN,NumBlock1.thisIndex,NumBlock2.thisRepN,NumBlock2.thisTrialN,NumBlock2.thisN,NumBlock2.thisIndex,returnPrac.thisRepN,returnPrac.thisTrialN,returnPrac.thisN,returnPrac.thisIndex,PracAff.thisRepN,PracAff.thisTrialN,PracAff.thisN,PracAff.thisIndex,AffBlocks.thisRepN,AffBlocks.thisTrialN,AffBlocks.thisN,AffBlocks.thisIndex,AffBlock1.thisRepN,AffBlock1.thisTrialN,AffBlock1.thisN,AffBlock1.thisIndex,respNum2word.keys,respNum2word.corr,respNum2word.rt,text.started,text.stopped,blank.started,blank.stopped,respFlanker.keys,respFlanker.corr,thisWord,respAffWord.keys,respAffWord.corr,respAffWord.rt,respFlanker.rt,姓名,性别,年龄（周岁）,date,expName,psychopyVersion,frameRate,
2A,1,1,A,a,"[0.2, 0.2]",,,,,,,,0,0,0,0,0,0,0,0,,,,,,,,,,,,,,,,,,,,,,,,,a,1,2.0690780999993876,,,,,,,,,,,,dsy,f,21,2024_Apr_17_1023,mian,2021.2.3,59.925129543134815,
A9,1,2,A,a,"[-0.2, 0.2]",,,,,,,,0,0,0,0,0,1,1,1,,,,,,,,,,,,,,,,,,,,,,,,,a,1,0.7148754999998346,,,,,,,,,,,,dsy,f,21,2024_Apr_17_1023,mian,2021.2.3,59.925129543134815,
7e,2,1,7.0,a,"[-0.2, -0.2]",,,,,,,,0,0,0,0,0,2,2,2,,,,,,,,,,,,,,,,,,,,,,,,,l,0,1.255104300000312,,,,,,,,,,,,dsy,f,21,2024_Apr_17_1023,mian,2021.2.3,59.925129543134815,
9H,2,2,9.0,a,"[0.2, -0.2]",,,,,,,,0,0,0,0,0,3,3,3,,,,,,,,,,,,,,,,,,,,,,,,,a,1,1.526590600000418,,,,,,,,,,,,dsy,f,21,2024_Apr_17_1023,mian,2021.2.3,59.925129543134815,
h4,1,1,h,l,"[0.2, 0.2]",,,,,,,,0,0,0,0,0,4,4,4,,,,,,,,,,,,,,,,,,,,,,,,,l,1,1.1564796000002389,,,,,,,,,,,,dsy,f,21,2024_Apr_17_1023,mian,2021.2.3,59.925129543134815,
4H,1,2,H,a,"[-0.2, 0.2]",,,,,,,,0,0,0,0,0,5,5,5,,,,,,,,,,,,,,,,,,,,,,,,,a,1,1.0708191999992778,,,,,,,,,,,,dsy,f,21,2024_Apr_17_1023,mian,2021.2.3,59.925129543134815,
F8,2,1,8.0,l,"[-0.2, -0.2]",,,,,,,,0,0,0,0,0,6,6,6,,,,,,,,,,,,,,,,,,,,,,,,,l,1,1.3288003999996363,,,,,,,,,,,,dsy,f,21,2024_Apr_17_1023,mian,2021.2.3,59.925129543134815,
h7,2,2,7.0,a,"[0.2, -0.2]",,,,,,,,0,0,0,0,0,7,7,7,,,,,,,,,,,,,,,,,,,,,,,,,a,1,0.5985622999996849,,,,,,,,,,,,dsy,f,21,2024_Apr_17_1023,mian,2021.2.3,59.925129543134815,
5e,1,1,e,l,"[0.2, 0.2]",,,,,,,,0,0,0,0,0,8,8,8,,,,,,,,,,,,,,,,,,,,,,,,,l,1,1.9177990999996837,,,,,,,,,,,,dsy,f,21,2024_Apr_17_1023,mian,2021.2.3,59.925129543134815,
e8,1,2,e,l,"[-0.2, 0.2]",,,,,,,,0,0,0,0,0,9,9,9,,,,,,,,,,,,,,,,,,,,,,,,,l,1,0.6905470000001515,,,,,,,,,,,,dsy,f,21,2024_Apr_17_1023,mian,2021.2.3,59.925129543134815,
4E,2,1,4.0,l,"[-0.2, -0.2]",,,,,,,,0,0,0,0,0,10,10,10,,,,,,,,,,,,,,,,,,,,,,,,,l,1,1.2845473999996102,,,,,,,,,,,,dsy,f,21,2024_Apr_17_1023,mian,2021.2.3,59.925129543134815,
5H,2,2,5.0,a,"[0.2, -0.2]",,,,,,,,0,0,0,0,0,11,11,11,,,,,,,,,,,,,,,,,,,,,,,,,a,1,0.8568672999999762,,,,,,,,,,,,dsy,f,21,2024_Apr_17_1023,mian,2021.2.3,59.925129543134815,
9E,1,1,E,a,"[0.2, 0.2]",,,,,,,,0,0,0,0,0,12,12,12,,,,,,,,,,,,,,,,,,,,,,,,,a,1,1.2839848000003258,,,,,,,,,,,,dsy,f,21,2024_Apr_17_1023,mian,2021.2.3,59.925129543134815,
h9,1,2,h,l,"[-0.2, 0.2]",,,,,,,,0,0,0,0,0,13,13,13,,,,,,,,,,,,,,,,,,,,,,,,,l,1,0.6425984000006792,,,,,,,,,,,,dsy,f,21,2024_Apr_17_1023,mian,2021.2.3,59.925129543134815,
2a,2,1,2.0,l,"[-0.2, -0.2]",,,,,,,,0,0,0,0,0,14,14,14,,,,,,,,,,,,,,,,,,,,,,,,,l,1,0.9073336000001291,,,,,,,,,,,,dsy,f,21,2024_Apr_17_1023,mian,2021.2.3,59.925129543134815,
e5,2,2,5.0,a,"[0.2, -0.2]",,,,,,,,0,0,0,0,0,15,15,15,,,,,,,,,,,,,,,,,,,,,,,,,a,1,0.607102599999962,,,,,,,,,,,,dsy,f,21,2024_Apr_17_1023,mian,2021.2.3,59.925129543134815,
A5,1,1,A,a,"[0.2, 0.2]",,,,,,,,0,0,0,0,0,16,16,16,,,,,,,,,,,,,,,,,,,,,,,,,a,1,0.8856763000003411,,,,,,,,,,,,dsy,f,21,2024_Apr_17_1023,mian,2021.2.3,59.925129543134815,
a6,1,2,a,l,"[-0.2, 0.2]",,,,,,,,0,0,0,0,0,17,17,17,,,,,,,,,,,,,,,,,,,,,,,,,l,1,0.5918146000003617,,,,,,,,,,,,dsy,f,21,2024_Apr_17_1023,mian,2021.2.3,59.925129543134815,
2F,2,1,2.0,l,"[-0.2, -0.2]",,,,,,,,0,0,0,0,0,18,18,18,,,,,,,,,,,,,,,,,,,,,,,,,l,1,0.7717867999999726,,,,,,,,,,,,dsy,f,21,2024_Apr_17_1023,mian,2021.2.3,59.925129543134815,
e4,2,2,4.0,l,"[0.2, -0.2]",,,,,,,,0,0,0,0,0,19,19,19,,,,,,,,,,,,,,,,,,,,,,,,,l,1,0.5352942999998049,,,,,,,,,,,,dsy,f,21,2024_Apr_17_1023,mian,2021.2.3,59.925129543134815,
,,,,,,,,,,,,,0,0,0,0,,,,,,,,,,,,,,,,,,,,,,,,,,,,,,,,,,,,,,,,,,,dsy,f,21,2024_Apr_17_1023,mian,2021.2.3,59.925129543134815,
7h,1,1,h,l,"[0.2, 0.2]",,,,,,,,,,,,,,,,0,0,0,0,,,,,,,,,,,,,,,,,,,,,l,1,1.0255919999999605,,,,,,,,,,,,dsy,f,21,2024_Apr_17_1023,mian,2021.2.3,59.925129543134815,
8F,1,2,F,a,"[-0.2, 0.2]",,,,,,,,,,,,,,,,0,1,1,1,,,,,,,,,,,,,,,,,,,,,a,1,1.1937827000001562,,,,,,,,,,,,dsy,f,21,2024_Apr_17_1023,mian,2021.2.3,59.925129543134815,
8h,2,1,8.0,l,"[-0.2, -0.2]",,,,,,,,,,,,,,,,0,2,2,2,,,,,,,,,,,,,,,,,,,,,l,1,1.5022625000001426,,,,,,,,,,,,dsy,f,21,2024_Apr_17_1023,mian,2021.2.3,59.925129543134815,
a2,2,2,2.0,l,"[0.2, -0.2]",,,,,,,,,,,,,,,,0,3,3,3,,,,,,,,,,,,,,,,,,,,,l,1,0.7056042000003799,,,,,,,,,,,,dsy,f,21,2024_Apr_17_1023,mian,2021.2.3,59.925129543134815,
8f,1,1,f,l,"[0.2, 0.2]",,,,,,,,,,,,,,,,0,4,4,4,,,,,,,,,,,,,,,,,,,,,a,0,1.0986946000002717,,,,,,,,,,,,dsy,f,21,2024_Apr_17_1023,mian,2021.2.3,59.925129543134815,
6a,1,2,a,l,"[-0.2, 0.2]",,,,,,,,,,,,,,,,0,5,5,5,,,,,,,,,,,,,,,,,,,,,l,1,0.795201800000541,,,,,,,,,,,,dsy,f,21,2024_Apr_17_1023,mian,2021.2.3,59.925129543134815,
h6,2,1,6.0,l,"[-0.2, -0.2]",,,,,,,,,,,,,,,,0,6,6,6,,,,,,,,,,,,,,,,,,,,,l,1,1.3628034000003026,,,,,,,,,,,,dsy,f,21,2024_Apr_17_1023,mian,2021.2.3,59.925129543134815,
f9,2,2,9.0,a,"[0.2, -0.2]",,,,,,,,,,,,,,,,0,7,7,7,,,,,,,,,,,,,,,,,,,,,a,1,0.9071420999998736,,,,,,,,,,,,dsy,f,21,2024_Apr_17_1023,mian,2021.2.3,59.925129543134815,
E4,1,1,E,a,"[0.2, 0.2]",,,,,,,,,,,,,,,,0,8,8,8,,,,,,,,,,,,,,,,,,,,,a,1,1.127280200000314,,,,,,,,,,,,dsy,f,21,2024_Apr_17_1023,mian,2021.2.3,59.925129543134815,
6e,1,2,e,l,"[-0.2, 0.2]",,,,,,,,,,,,,,,,0,9,9,9,,,,,,,,,,,,,,,,,,,,,l,1,0.6599559999995108,,,,,,,,,,,,dsy,f,21,2024_Apr_17_1023,mian,2021.2.3,59.925129543134815,
5G,2,1,5.0,a,"[-0.2, -0.2]",,,,,,,,,,,,,,,,0,10,10,10,,,,,,,,,,,,,,,,,,,,,l,0,1.0036737000000358,,,,,,,,,,,,dsy,f,21,2024_Apr_17_1023,mian,2021.2.3,59.925129543134815,
h3,2,2,3.0,a,"[0.2, -0.2]",,,,,,,,,,,,,,,,0,11,11,11,,,,,,,,,,,,,,,,,,,,,a,1,2.3403901000001497,,,,,,,,,,,,dsy,f,21,2024_Apr_17_1023,mian,2021.2.3,59.925129543134815,
9e,1,1,e,l,"[0.2, 0.2]",,,,,,,,,,,,,,,,0,12,12,12,,,,,,,,,,,,,,,,,,,,,l,1,1.3304627999996228,,,,,,,,,,,,dsy,f,21,2024_Apr_17_1023,mian,2021.2.3,59.925129543134815,
a8,1,2,a,l,"[-0.2, 0.2]",,,,,,,,,,,,,,,,0,13,13,13,,,,,,,,,,,,,,,,,,,,,l,1,1.5715926000002582,,,,,,,,,,,,dsy,f,21,2024_Apr_17_1023,mian,2021.2.3,59.925129543134815,
e8,2,1,8.0,l,"[-0.2, -0.2]",,,,,,,,,,,,,,,,0,14,14,14,,,,,,,,,,,,,,,,,,,,,l,1,1.1704902000001312,,,,,,,,,,,,dsy,f,21,2024_Apr_17_1023,mian,2021.2.3,59.925129543134815,
3f,2,2,3.0,a,"[0.2, -0.2]",,,,,,,,,,,,,,,,0,15,15,15,,,,,,,,,,,,,,,,,,,,,a,1,0.9273538000006738,,,,,,,,,,,,dsy,f,21,2024_Apr_17_1023,mian,2021.2.3,59.925129543134815,
7f,1,1,f,l,"[0.2, 0.2]",,,,,,,,,,,,,,,,0,16,16,16,,,,,,,,,,,,,,,,,,,,,l,1,1.4941079999998692,,,,,,,,,,,,dsy,f,21,2024_Apr_17_1023,mian,2021.2.3,59.925129543134815,
a7,1,2,a,l,"[-0.2, 0.2]",,,,,,,,,,,,,,,,0,17,17,17,,,,,,,,,,,,,,,,,,,,,l,1,1.2801540999998906,,,,,,,,,,,,dsy,f,21,2024_Apr_17_1023,mian,2021.2.3,59.925129543134815,
5A,2,1,5.0,a,"[-0.2, -0.2]",,,,,,,,,,,,,,,,0,18,18,18,,,,,,,,,,,,,,,,,,,,,l,0,1.5306522000000768,,,,,,,,,,,,dsy,f,21,2024_Apr_17_1023,mian,2021.2.3,59.925129543134815,
8g,2,2,8.0,l,"[0.2, -0.2]",,,,,,,,,,,,,,,,0,19,19,19,,,,,,,,,,,,,,,,,,,,,l,1,1.3826054000001022,,,,,,,,,,,,dsy,f,21,2024_Apr_17_1023,mian,2021.2.3,59.925129543134815,
9a,1,1,a,l,"[0.2, 0.2]",,,,,,,,,,,,,,,,0,20,20,20,,,,,,,,,,,,,,,,,,,,,l,1,1.886418400000366,,,,,,,,,,,,dsy,f,21,2024_Apr_17_1023,mian,2021.2.3,59.925129543134815,
f7,1,2,f,l,"[-0.2, 0.2]",,,,,,,,,,,,,,,,0,21,21,21,,,,,,,,,,,,,,,,,,,,,l,1,1.0375121999995827,,,,,,,,,,,,dsy,f,21,2024_Apr_17_1023,mian,2021.2.3,59.925129543134815,
g9,2,1,9.0,a,"[-0.2, -0.2]",,,,,,,,,,,,,,,,0,22,22,22,,,,,,,,,,,,,,,,,,,,,a,1,1.10561510000025,,,,,,,,,,,,dsy,f,21,2024_Apr_17_1023,mian,2021.2.3,59.925129543134815,
3h,2,2,3.0,a,"[0.2, -0.2]",,,,,,,,,,,,,,,,0,23,23,23,,,,,,,,,,,,,,,,,,,,,a,1,0.7126722000002701,,,,,,,,,,,,dsy,f,21,2024_Apr_17_1023,mian,2021.2.3,59.925129543134815,
E6,1,1,E,a,"[0.2, 0.2]",,,,,,,,,,,,,,,,0,24,24,24,,,,,,,,,,,,,,,,,,,,,a,1,1.5972658999999112,,,,,,,,,,,,dsy,f,21,2024_Apr_17_1023,mian,2021.2.3,59.925129543134815,
F6,1,2,F,a,"[-0.2, 0.2]",,,,,,,,,,,,,,,,0,25,25,25,,,,,,,,,,,,,,,,,,,,,a,1,0.5852586999999403,,,,,,,,,,,,dsy,f,21,2024_Apr_17_1023,mian,2021.2.3,59.925129543134815,
3A,2,1,3.0,a,"[-0.2, -0.2]",,,,,,,,,,,,,,,,0,26,26,26,,,,,,,,,,,,,,,,,,,,,a,1,1.183009299999867,,,,,,,,,,,,dsy,f,21,2024_Apr_17_1023,mian,2021.2.3,59.925129543134815,
8H,2,2,8.0,l,"[0.2, -0.2]",,,,,,,,,,,,,,,,0,27,27,27,,,,,,,,,,,,,,,,,,,,,l,1,0.6942505999995774,,,,,,,,,,,,dsy,f,21,2024_Apr_17_1023,mian,2021.2.3,59.925129543134815,
5a,1,1,a,l,"[0.2, 0.2]",,,,,,,,,,,,,,,,0,28,28,28,,,,,,,,,,,,,,,,,,,,,l,1,1.987483699999757,,,,,,,,,,,,dsy,f,21,2024_Apr_17_1023,mian,2021.2.3,59.925129543134815,
2h,1,2,h,l,"[-0.2, 0.2]",,,,,,,,,,,,,,,,0,29,29,29,,,,,,,,,,,,,,,,,,,,,l,1,0.5470078999996986,,,,,,,,,,,,dsy,f,21,2024_Apr_17_1023,mian,2021.2.3,59.925129543134815,
e5,2,1,5.0,a,"[-0.2, -0.2]",,,,,,,,,,,,,,,,0,30,30,30,,,,,,,,,,,,,,,,,,,,,a,1,0.9900029000000359,,,,,,,,,,,,dsy,f,21,2024_Apr_17_1023,mian,2021.2.3,59.925129543134815,
a3,2,2,3.0,a,"[0.2, -0.2]",,,,,,,,,,,,,,,,0,31,31,31,,,,,,,,,,,,,,,,,,,,,a,1,0.6730049999996481,,,,,,,,,,,,dsy,f,21,2024_Apr_17_1023,mian,2021.2.3,59.925129543134815,
f3,1,1,f,l,"[0.2, 0.2]",,,,,,,,,,,,,,,,0,32,32,32,,,,,,,,,,,,,,,,,,,,,l,1,1.251774800000021,,,,,,,,,,,,dsy,f,21,2024_Apr_17_1023,mian,2021.2.3,59.925129543134815,
2E,1,2,E,a,"[-0.2, 0.2]",,,,,,,,,,,,,,,,0,33,33,33,,,,,,,,,,,,,,,,,,,,,a,1,0.7777538999998796,,,,,,,,,,,,dsy,f,21,2024_Apr_17_1023,mian,2021.2.3,59.925129543134815,
2H,2,1,2.0,l,"[-0.2, -0.2]",,,,,,,,,,,,,,,,0,34,34,34,,,,,,,,,,,,,,,,,,,,,a,0,1.5824650000004112,,,,,,,,,,,,dsy,f,21,2024_Apr_17_1023,mian,2021.2.3,59.925129543134815,
H8,2,2,8.0,l,"[0.2, -0.2]",,,,,,,,,,,,,,,,0,35,35,35,,,,,,,,,,,,,,,,,,,,,l,1,1.4100641999993968,,,,,,,,,,,,dsy,f,21,2024_Apr_17_1023,mian,2021.2.3,59.925129543134815,
9g,1,1,g,l,"[0.2, 0.2]",,,,,,,,,,,,,,,,0,36,36,36,,,,,,,,,,,,,,,,,,,,,l,1,2.524234200000137,,,,,,,,,,,,dsy,f,21,2024_Apr_17_1023,mian,2021.2.3,59.925129543134815,
5h,1,2,h,l,"[-0.2, 0.2]",,,,,,,,,,,,,,,,0,37,37,37,,,,,,,,,,,,,,,,,,,,,l,1,0.8388489999997546,,,,,,,,,,,,dsy,f,21,2024_Apr_17_1023,mian,2021.2.3,59.925129543134815,
e4,2,1,4.0,l,"[-0.2, -0.2]",,,,,,,,,,,,,,,,0,38,38,38,,,,,,,,,,,,,,,,,,,,,a,0,1.3005499999999302,,,,,,,,,,,,dsy,f,21,2024_Apr_17_1023,mian,2021.2.3,59.925129543134815,
9h,2,2,9.0,a,"[0.2, -0.2]",,,,,,,,,,,,,,,,0,39,39,39,,,,,,,,,,,,,,,,,,,,,a,1,1.1859893999999258,,,,,,,,,,,,dsy,f,21,2024_Apr_17_1023,mian,2021.2.3,59.925129543134815,
G3,1,1,G,a,"[0.2, 0.2]",,,,,,,,,,,,,,,,0,40,40,40,,,,,,,,,,,,,,,,,,,,,a,1,1.2629115999998248,,,,,,,,,,,,dsy,f,21,2024_Apr_17_1023,mian,2021.2.3,59.925129543134815,
9A,1,2,A,a,"[-0.2, 0.2]",,,,,,,,,,,,,,,,0,41,41,41,,,,,,,,,,,,,,,,,,,,,a,1,0.8863039999996545,,,,,,,,,,,,dsy,f,21,2024_Apr_17_1023,mian,2021.2.3,59.925129543134815,
H5,2,1,5.0,a,"[-0.2, -0.2]",,,,,,,,,,,,,,,,0,42,42,42,,,,,,,,,,,,,,,,,,,,,a,1,2.2245034000006854,,,,,,,,,,,,dsy,f,21,2024_Apr_17_1023,mian,2021.2.3,59.925129543134815,
4e,2,2,4.0,l,"[0.2, -0.2]",,,,,,,,,,,,,,,,0,43,43,43,,,,,,,,,,,,,,,,,,,,,l,1,0.7970747999997911,,,,,,,,,,,,dsy,f,21,2024_Apr_17_1023,mian,2021.2.3,59.925129543134815,
E2,1,1,E,a,"[0.2, 0.2]",,,,,,,,,,,,,,,,0,44,44,44,,,,,,,,,,,,,,,,,,,,,a,1,0.8343863000000056,,,,,,,,,,,,dsy,f,21,2024_Apr_17_1023,mian,2021.2.3,59.925129543134815,
A5,1,2,A,a,"[-0.2, 0.2]",,,,,,,,,,,,,,,,0,45,45,45,,,,,,,,,,,,,,,,,,,,,a,1,0.5651525000002948,,,,,,,,,,,,dsy,f,21,2024_Apr_17_1023,mian,2021.2.3,59.925129543134815,
2A,2,1,2.0,l,"[-0.2, -0.2]",,,,,,,,,,,,,,,,0,46,46,46,,,,,,,,,,,,,,,,,,,,,l,1,1.094191499999397,,,,,,,,,,,,dsy,f,21,2024_Apr_17_1023,mian,2021.2.3,59.925129543134815,
6G,2,2,6.0,l,"[0.2, -0.2]",,,,,,,,,,,,,,,,0,47,47,47,,,,,,,,,,,,,,,,,,,,,l,1,0.80429710000044,,,,,,,,,,,,dsy,f,21,2024_Apr_17_1023,mian,2021.2.3,59.925129543134815,
H3,1,1,H,a,"[0.2, 0.2]",,,,,,,,,,,,,,,,0,48,48,48,,,,,,,,,,,,,,,,,,,,,a,1,0.7123085999992327,,,,,,,,,,,,dsy,f,21,2024_Apr_17_1023,mian,2021.2.3,59.925129543134815,
H2,1,2,H,a,"[-0.2, 0.2]",,,,,,,,,,,,,,,,0,49,49,49,,,,,,,,,,,,,,,,,,,,,a,1,0.5723417999997764,,,,,,,,,,,,dsy,f,21,2024_Apr_17_1023,mian,2021.2.3,59.925129543134815,
e9,2,1,9.0,a,"[-0.2, -0.2]",,,,,,,,,,,,,,,,0,50,50,50,,,,,,,,,,,,,,,,,,,,,a,1,1.0850251000001663,,,,,,,,,,,,dsy,f,21,2024_Apr_17_1023,mian,2021.2.3,59.925129543134815,
2G,2,2,2.0,l,"[0.2, -0.2]",,,,,,,,,,,,,,,,0,51,51,51,,,,,,,,,,,,,,,,,,,,,l,1,0.8568661999997857,,,,,,,,,,,,dsy,f,21,2024_Apr_17_1023,mian,2021.2.3,59.925129543134815,
4f,1,1,f,l,"[0.2, 0.2]",,,,,,,,,,,,,,,,0,52,52,52,,,,,,,,,,,,,,,,,,,,,l,1,1.156068199999936,,,,,,,,,,,,dsy,f,21,2024_Apr_17_1023,mian,2021.2.3,59.925129543134815,
H6,1,2,H,a,"[-0.2, 0.2]",,,,,,,,,,,,,,,,0,53,53,53,,,,,,,,,,,,,,,,,,,,,a,1,1.0756301999999778,,,,,,,,,,,,dsy,f,21,2024_Apr_17_1023,mian,2021.2.3,59.925129543134815,
A4,2,1,4.0,l,"[-0.2, -0.2]",,,,,,,,,,,,,,,,0,54,54,54,,,,,,,,,,,,,,,,,,,,,l,1,1.1091747000000396,,,,,,,,,,,,dsy,f,21,2024_Apr_17_1023,mian,2021.2.3,59.925129543134815,
3F,2,2,3.0,a,"[0.2, -0.2]",,,,,,,,,,,,,,,,0,55,55,55,,,,,,,,,,,,,,,,,,,,,a,1,1.1346224999997503,,,,,,,,,,,,dsy,f,21,2024_Apr_17_1023,mian,2021.2.3,59.925129543134815,
7e,1,1,e,l,"[0.2, 0.2]",,,,,,,,,,,,,,,,0,56,56,56,,,,,,,,,,,,,,,,,,,,,l,1,1.5745343999997203,,,,,,,,,,,,dsy,f,21,2024_Apr_17_1023,mian,2021.2.3,59.925129543134815,
F9,1,2,F,a,"[-0.2, 0.2]",,,,,,,,,,,,,,,,0,57,57,57,,,,,,,,,,,,,,,,,,,,,a,1,0.6927660000001197,,,,,,,,,,,,dsy,f,21,2024_Apr_17_1023,mian,2021.2.3,59.925129543134815,
e2,2,1,2.0,l,"[-0.2, -0.2]",,,,,,,,,,,,,,,,0,58,58,58,,,,,,,,,,,,,,,,,,,,,l,1,1.2975883999997677,,,,,,,,,,,,dsy,f,21,2024_Apr_17_1023,mian,2021.2.3,59.925129543134815,
5F,2,2,5.0,a,"[0.2, -0.2]",,,,,,,,,,,,,,,,0,59,59,59,,,,,,,,,,,,,,,,,,,,,a,1,0.690715600000658,,,,,,,,,,,,dsy,f,21,2024_Apr_17_1023,mian,2021.2.3,59.925129543134815,
f6,1,1,f,l,"[0.2, 0.2]",,,,,,,,,,,,,,,,0,60,60,60,,,,,,,,,,,,,,,,,,,,,l,1,1.2109692000003633,,,,,,,,,,,,dsy,f,21,2024_Apr_17_1023,mian,2021.2.3,59.925129543134815,
7G,1,2,G,a,"[-0.2, 0.2]",,,,,,,,,,,,,,,,0,61,61,61,,,,,,,,,,,,,,,,,,,,,a,1,0.8992656999998871,,,,,,,,,,,,dsy,f,21,2024_Apr_17_1023,mian,2021.2.3,59.925129543134815,
e6,2,1,6.0,l,"[-0.2, -0.2]",,,,,,,,,,,,,,,,0,62,62,62,,,,,,,,,,,,,,,,,,,,,l,1,1.0382985000005647,,,,,,,,,,,,dsy,f,21,2024_Apr_17_1023,mian,2021.2.3,59.925129543134815,
3G,2,2,3.0,a,"[0.2, -0.2]",,,,,,,,,,,,,,,,0,63,63,63,,,,,,,,,,,,,,,,,,,,,a,1,0.8782674000003681,,,,,,,,,,,,dsy,f,21,2024_Apr_17_1023,mian,2021.2.3,59.925129543134815,
5E,1,1,E,a,"[0.2, 0.2]",,,,,,,,,,,,,,,,0,64,64,64,,,,,,,,,,,,,,,,,,,,,a,1,0.8615623999994568,,,,,,,,,,,,dsy,f,21,2024_Apr_17_1023,mian,2021.2.3,59.925129543134815,
A6,1,2,A,a,"[-0.2, 0.2]",,,,,,,,,,,,,,,,0,65,65,65,,,,,,,,,,,,,,,,,,,,,a,1,0.5664245999996638,,,,,,,,,,,,dsy,f,21,2024_Apr_17_1023,mian,2021.2.3,59.925129543134815,
E3,2,1,3.0,a,"[-0.2, -0.2]",,,,,,,,,,,,,,,,0,66,66,66,,,,,,,,,,,,,,,,,,,,,l,0,1.4565874999998414,,,,,,,,,,,,dsy,f,21,2024_Apr_17_1023,mian,2021.2.3,59.925129543134815,
2f,2,2,2.0,l,"[0.2, -0.2]",,,,,,,,,,,,,,,,0,67,67,67,,,,,,,,,,,,,,,,,,,,,l,1,1.1939340999997512,,,,,,,,,,,,dsy,f,21,2024_Apr_17_1023,mian,2021.2.3,59.925129543134815,
g3,1,1,g,l,"[0.2, 0.2]",,,,,,,,,,,,,,,,0,68,68,68,,,,,,,,,,,,,,,,,,,,,l,1,0.9768909000003987,,,,,,,,,,,,dsy,f,21,2024_Apr_17_1023,mian,2021.2.3,59.925129543134815,
E8,1,2,E,a,"[-0.2, 0.2]",,,,,,,,,,,,,,,,0,69,69,69,,,,,,,,,,,,,,,,,,,,,a,1,1.0575489000002563,,,,,,,,,,,,dsy,f,21,2024_Apr_17_1023,mian,2021.2.3,59.925129543134815,
6g,2,1,6.0,l,"[-0.2, -0.2]",,,,,,,,,,,,,,,,0,70,70,70,,,,,,,,,,,,,,,,,,,,,l,1,1.3312590999994427,,,,,,,,,,,,dsy,f,21,2024_Apr_17_1023,mian,2021.2.3,59.925129543134815,
5H,2,2,5.0,a,"[0.2, -0.2]",,,,,,,,,,,,,,,,0,71,71,71,,,,,,,,,,,,,,,,,,,,,a,1,0.8032323999996152,,,,,,,,,,,,dsy,f,21,2024_Apr_17_1023,mian,2021.2.3,59.925129543134815,
4A,1,1,A,a,"[0.2, 0.2]",,,,,,,,,,,,,,,,0,72,72,72,,,,,,,,,,,,,,,,,,,,,a,1,1.5056035999996311,,,,,,,,,,,,dsy,f,21,2024_Apr_17_1023,mian,2021.2.3,59.925129543134815,
7F,1,2,F,a,"[-0.2, 0.2]",,,,,,,,,,,,,,,,0,73,73,73,,,,,,,,,,,,,,,,,,,,,a,1,0.6753264999997555,,,,,,,,,,,,dsy,f,21,2024_Apr_17_1023,mian,2021.2.3,59.925129543134815,
6H,2,1,6.0,l,"[-0.2, -0.2]",,,,,,,,,,,,,,,,0,74,74,74,,,,,,,,,,,,,,,,,,,,,l,1,1.4845723999997062,,,,,,,,,,,,dsy,f,21,2024_Apr_17_1023,mian,2021.2.3,59.925129543134815,
3a,2,2,3.0,a,"[0.2, -0.2]",,,,,,,,,,,,,,,,0,75,75,75,,,,,,,,,,,,,,,,,,,,,a,1,1.4723653999999442,,,,,,,,,,,,dsy,f,21,2024_Apr_17_1023,mian,2021.2.3,59.925129543134815,
9F,1,1,F,a,"[0.2, 0.2]",,,,,,,,,,,,,,,,0,76,76,76,,,,,,,,,,,,,,,,,,,,,a,1,0.870175900000504,,,,,,,,,,,,dsy,f,21,2024_Apr_17_1023,mian,2021.2.3,59.925129543134815,
G7,1,2,G,a,"[-0.2, 0.2]",,,,,,,,,,,,,,,,0,77,77,77,,,,,,,,,,,,,,,,,,,,,a,1,0.5566556000003402,,,,,,,,,,,,dsy,f,21,2024_Apr_17_1023,mian,2021.2.3,59.925129543134815,
a6,2,1,6.0,l,"[-0.2, -0.2]",,,,,,,,,,,,,,,,0,78,78,78,,,,,,,,,,,,,,,,,,,,,l,1,0.8893938000001071,,,,,,,,,,,,dsy,f,21,2024_Apr_17_1023,mian,2021.2.3,59.925129543134815,
4h,2,2,4.0,l,"[0.2, -0.2]",,,,,,,,,,,,,,,,0,79,79,79,,,,,,,,,,,,,,,,,,,,,l,1,0.6989450999999463,,,,,,,,,,,,dsy,f,21,2024_Apr_17_1023,mian,2021.2.3,59.925129543134815,
6A,1,1,A,a,"[0.2, 0.2]",,,,,,,,,,,,,,,,,,,,0,0,0,0,,,,,,,,,,,,,,,,,a,1,0.6617065000000366,,,,,,,,,,,,dsy,f,21,2024_Apr_17_1023,mian,2021.2.3,59.925129543134815,
4H,1,2,H,a,"[-0.2, 0.2]",,,,,,,,,,,,,,,,,,,,0,1,1,1,,,,,,,,,,,,,,,,,a,1,0.5590522000002238,,,,,,,,,,,,dsy,f,21,2024_Apr_17_1023,mian,2021.2.3,59.925129543134815,
3H,2,1,3.0,a,"[-0.2, -0.2]",,,,,,,,,,,,,,,,,,,,0,2,2,2,,,,,,,,,,,,,,,,,a,1,0.8327536000006148,,,,,,,,,,,,dsy,f,21,2024_Apr_17_1023,mian,2021.2.3,59.925129543134815,
a9,2,2,9.0,a,"[0.2, -0.2]",,,,,,,,,,,,,,,,,,,,0,3,3,3,,,,,,,,,,,,,,,,,a,1,0.952115899999626,,,,,,,,,,,,dsy,f,21,2024_Apr_17_1023,mian,2021.2.3,59.925129543134815,
E7,1,1,E,a,"[0.2, 0.2]",,,,,,,,,,,,,,,,,,,,0,4,4,4,,,,,,,,,,,,,,,,,a,1,1.2985492999996495,,,,,,,,,,,,dsy,f,21,2024_Apr_17_1023,mian,2021.2.3,59.925129543134815,
6h,1,2,h,l,"[-0.2, 0.2]",,,,,,,,,,,,,,,,,,,,0,5,5,5,,,,,,,,,,,,,,,,,l,1,0.6194249000000127,,,,,,,,,,,,dsy,f,21,2024_Apr_17_1023,mian,2021.2.3,59.925129543134815,
8A,2,1,8.0,l,"[-0.2, -0.2]",,,,,,,,,,,,,,,,,,,,0,6,6,6,,,,,,,,,,,,,,,,,l,1,1.111025599999266,,,,,,,,,,,,dsy,f,21,2024_Apr_17_1023,mian,2021.2.3,59.925129543134815,
f5,2,2,5.0,a,"[0.2, -0.2]",,,,,,,,,,,,,,,,,,,,0,7,7,7,,,,,,,,,,,,,,,,,a,1,0.7199411000001419,,,,,,,,,,,,dsy,f,21,2024_Apr_17_1023,mian,2021.2.3,59.925129543134815,
2a,1,1,a,l,"[0.2, 0.2]",,,,,,,,,,,,,,,,,,,,0,8,8,8,,,,,,,,,,,,,,,,,l,1,1.3920356999997239,,,,,,,,,,,,dsy,f,21,2024_Apr_17_1023,mian,2021.2.3,59.925129543134815,
F7,1,2,F,a,"[-0.2, 0.2]",,,,,,,,,,,,,,,,,,,,0,9,9,9,,,,,,,,,,,,,,,,,a,1,0.6962675999993735,,,,,,,,,,,,dsy,f,21,2024_Apr_17_1023,mian,2021.2.3,59.925129543134815,
h2,2,1,2.0,l,"[-0.2, -0.2]",,,,,,,,,,,,,,,,,,,,0,10,10,10,,,,,,,,,,,,,,,,,l,1,1.5929770000002463,,,,,,,,,,,,dsy,f,21,2024_Apr_17_1023,mian,2021.2.3,59.925129543134815,
F5,2,2,5.0,a,"[0.2, -0.2]",,,,,,,,,,,,,,,,,,,,0,11,11,11,,,,,,,,,,,,,,,,,a,1,1.8800036000002365,,,,,,,,,,,,dsy,f,21,2024_Apr_17_1023,mian,2021.2.3,59.925129543134815,
A9,1,1,A,a,"[0.2, 0.2]",,,,,,,,,,,,,,,,,,,,0,12,12,12,,,,,,,,,,,,,,,,,a,1,0.674098800000138,,,,,,,,,,,,dsy,f,21,2024_Apr_17_1023,mian,2021.2.3,59.925129543134815,
3e,1,2,e,l,"[-0.2, 0.2]",,,,,,,,,,,,,,,,,,,,0,13,13,13,,,,,,,,,,,,,,,,,l,1,0.739766900000177,,,,,,,,,,,,dsy,f,21,2024_Apr_17_1023,mian,2021.2.3,59.925129543134815,
f8,2,1,8.0,l,"[-0.2, -0.2]",,,,,,,,,,,,,,,,,,,,0,14,14,14,,,,,,,,,,,,,,,,,l,1,1.5782516999997824,,,,,,,,,,,,dsy,f,21,2024_Apr_17_1023,mian,2021.2.3,59.925129543134815,
G2,2,2,2.0,l,"[0.2, -0.2]",,,,,,,,,,,,,,,,,,,,0,15,15,15,,,,,,,,,,,,,,,,,l,1,0.7460143999996944,,,,,,,,,,,,dsy,f,21,2024_Apr_17_1023,mian,2021.2.3,59.925129543134815,
F2,1,1,F,a,"[0.2, 0.2]",,,,,,,,,,,,,,,,,,,,0,16,16,16,,,,,,,,,,,,,,,,,a,1,0.63225760000023,,,,,,,,,,,,dsy,f,21,2024_Apr_17_1023,mian,2021.2.3,59.925129543134815,
5e,1,2,e,l,"[-0.2, 0.2]",,,,,,,,,,,,,,,,,,,,0,17,17,17,,,,,,,,,,,,,,,,,l,1,0.7341025999994599,,,,,,,,,,,,dsy,f,21,2024_Apr_17_1023,mian,2021.2.3,59.925129543134815,
A3,2,1,3.0,a,"[-0.2, -0.2]",,,,,,,,,,,,,,,,,,,,0,18,18,18,,,,,,,,,,,,,,,,,a,1,1.2888351000001421,,,,,,,,,,,,dsy,f,21,2024_Apr_17_1023,mian,2021.2.3,59.925129543134815,
4g,2,2,4.0,l,"[0.2, -0.2]",,,,,,,,,,,,,,,,,,,,0,19,19,19,,,,,,,,,,,,,,,,,l,1,1.115136899999925,,,,,,,,,,,,dsy,f,21,2024_Apr_17_1023,mian,2021.2.3,59.925129543134815,
h7,1,1,h,l,"[0.2, 0.2]",,,,,,,,,,,,,,,,,,,,0,20,20,20,,,,,,,,,,,,,,,,,l,1,0.999553300000116,,,,,,,,,,,,dsy,f,21,2024_Apr_17_1023,mian,2021.2.3,59.925129543134815,
3g,1,2,g,l,"[-0.2, 0.2]",,,,,,,,,,,,,,,,,,,,0,21,21,21,,,,,,,,,,,,,,,,,l,1,0.6153692999996565,,,,,,,,,,,,dsy,f,21,2024_Apr_17_1023,mian,2021.2.3,59.925129543134815,
8a,2,1,8.0,l,"[-0.2, -0.2]",,,,,,,,,,,,,,,,,,,,0,22,22,22,,,,,,,,,,,,,,,,,l,1,2.2792992000004233,,,,,,,,,,,,dsy,f,21,2024_Apr_17_1023,mian,2021.2.3,59.925129543134815,
4E,2,2,4.0,l,"[0.2, -0.2]",,,,,,,,,,,,,,,,,,,,0,23,23,23,,,,,,,,,,,,,,,,,a,0,1.0605372999998508,,,,,,,,,,,,dsy,f,21,2024_Apr_17_1023,mian,2021.2.3,59.925129543134815,
E5,1,1,E,a,"[0.2, 0.2]",,,,,,,,,,,,,,,,,,,,0,24,24,24,,,,,,,,,,,,,,,,,a,1,1.5702155999997558,,,,,,,,,,,,dsy,f,21,2024_Apr_17_1023,mian,2021.2.3,59.925129543134815,
g6,1,2,g,l,"[-0.2, 0.2]",,,,,,,,,,,,,,,,,,,,0,25,25,25,,,,,,,,,,,,,,,,,l,1,0.6843227999997907,,,,,,,,,,,,dsy,f,21,2024_Apr_17_1023,mian,2021.2.3,59.925129543134815,
2e,2,1,2.0,l,"[-0.2, -0.2]",,,,,,,,,,,,,,,,,,,,0,26,26,26,,,,,,,,,,,,,,,,,l,1,1.3823551000004954,,,,,,,,,,,,dsy,f,21,2024_Apr_17_1023,mian,2021.2.3,59.925129543134815,
h8,2,2,8.0,l,"[0.2, -0.2]",,,,,,,,,,,,,,,,,,,,0,27,27,27,,,,,,,,,,,,,,,,,l,1,0.8250189000000319,,,,,,,,,,,,dsy,f,21,2024_Apr_17_1023,mian,2021.2.3,59.925129543134815,
G6,1,1,G,a,"[0.2, 0.2]",,,,,,,,,,,,,,,,,,,,0,28,28,28,,,,,,,,,,,,,,,,,a,1,1.0947877999997218,,,,,,,,,,,,dsy,f,21,2024_Apr_17_1023,mian,2021.2.3,59.925129543134815,
a4,1,2,a,l,"[-0.2, 0.2]",,,,,,,,,,,,,,,,,,,,0,29,29,29,,,,,,,,,,,,,,,,,l,1,0.6973342999999659,,,,,,,,,,,,dsy,f,21,2024_Apr_17_1023,mian,2021.2.3,59.925129543134815,
9H,2,1,9.0,a,"[-0.2, -0.2]",,,,,,,,,,,,,,,,,,,,0,30,30,30,,,,,,,,,,,,,,,,,a,1,2.0160246999994342,,,,,,,,,,,,dsy,f,21,2024_Apr_17_1023,mian,2021.2.3,59.925129543134815,
7H,2,2,7.0,a,"[0.2, -0.2]",,,,,,,,,,,,,,,,,,,,0,31,31,31,,,,,,,,,,,,,,,,,a,1,0.7303169999995589,,,,,,,,,,,,dsy,f,21,2024_Apr_17_1023,mian,2021.2.3,59.925129543134815,
9f,1,1,f,l,"[0.2, 0.2]",,,,,,,,,,,,,,,,,,,,0,32,32,32,,,,,,,,,,,,,,,,,l,1,0.7200797000004968,,,,,,,,,,,,dsy,f,21,2024_Apr_17_1023,mian,2021.2.3,59.925129543134815,
8E,1,2,E,a,"[-0.2, 0.2]",,,,,,,,,,,,,,,,,,,,0,33,33,33,,,,,,,,,,,,,,,,,a,1,0.745449699999881,,,,,,,,,,,,dsy,f,21,2024_Apr_17_1023,mian,2021.2.3,59.925129543134815,
A2,2,1,2.0,l,"[-0.2, -0.2]",,,,,,,,,,,,,,,,,,,,0,34,34,34,,,,,,,,,,,,,,,,,l,1,0.8374592000000121,,,,,,,,,,,,dsy,f,21,2024_Apr_17_1023,mian,2021.2.3,59.925129543134815,
H7,2,2,7.0,a,"[0.2, -0.2]",,,,,,,,,,,,,,,,,,,,0,35,35,35,,,,,,,,,,,,,,,,,a,1,0.8070569999999861,,,,,,,,,,,,dsy,f,21,2024_Apr_17_1023,mian,2021.2.3,59.925129543134815,
h9,1,1,h,l,"[0.2, 0.2]",,,,,,,,,,,,,,,,,,,,0,36,36,36,,,,,,,,,,,,,,,,,l,1,0.6767246999997951,,,,,,,,,,,,dsy,f,21,2024_Apr_17_1023,mian,2021.2.3,59.925129543134815,
8G,1,2,G,a,"[-0.2, 0.2]",,,,,,,,,,,,,,,,,,,,0,37,37,37,,,,,,,,,,,,,,,,,a,1,1.7530377000002773,,,,,,,,,,,,dsy,f,21,2024_Apr_17_1023,mian,2021.2.3,59.925129543134815,
H4,2,1,4.0,l,"[-0.2, -0.2]",,,,,,,,,,,,,,,,,,,,0,38,38,38,,,,,,,,,,,,,,,,,l,1,1.2183360000008179,,,,,,,,,,,,dsy,f,21,2024_Apr_17_1023,mian,2021.2.3,59.925129543134815,
A8,2,2,8.0,l,"[0.2, -0.2]",,,,,,,,,,,,,,,,,,,,0,39,39,39,,,,,,,,,,,,,,,,,l,1,0.7966451000002053,,,,,,,,,,,,dsy,f,21,2024_Apr_17_1023,mian,2021.2.3,59.925129543134815,
g7,1,1,g,l,"[0.2, 0.2]",,,,,,,,,,,,,,,,,,,,0,40,40,40,,,,,,,,,,,,,,,,,l,1,0.7459713999996893,,,,,,,,,,,,dsy,f,21,2024_Apr_17_1023,mian,2021.2.3,59.925129543134815,
H9,1,2,H,a,"[-0.2, 0.2]",,,,,,,,,,,,,,,,,,,,0,41,41,41,,,,,,,,,,,,,,,,,a,1,0.7828060000001642,,,,,,,,,,,,dsy,f,21,2024_Apr_17_1023,mian,2021.2.3,59.925129543134815,
9E,2,1,9.0,a,"[-0.2, -0.2]",,,,,,,,,,,,,,,,,,,,0,42,42,42,,,,,,,,,,,,,,,,,a,1,1.1227011999999377,,,,,,,,,,,,dsy,f,21,2024_Apr_17_1023,mian,2021.2.3,59.925129543134815,
a5,2,2,5.0,a,"[0.2, -0.2]",,,,,,,,,,,,,,,,,,,,0,43,43,43,,,,,,,,,,,,,,,,,a,1,0.6945636000000377,,,,,,,,,,,,dsy,f,21,2024_Apr_17_1023,mian,2021.2.3,59.925129543134815,
3E,1,1,E,a,"[0.2, 0.2]",,,,,,,,,,,,,,,,,,,,0,44,44,44,,,,,,,,,,,,,,,,,a,1,1.0698262000005343,,,,,,,,,,,,dsy,f,21,2024_Apr_17_1023,mian,2021.2.3,59.925129543134815,
6f,1,2,f,l,"[-0.2, 0.2]",,,,,,,,,,,,,,,,,,,,0,45,45,45,,,,,,,,,,,,,,,,,l,1,1.2904917999994723,,,,,,,,,,,,dsy,f,21,2024_Apr_17_1023,mian,2021.2.3,59.925129543134815,
g8,2,1,8.0,l,"[-0.2, -0.2]",,,,,,,,,,,,,,,,,,,,0,46,46,46,,,,,,,,,,,,,,,,,l,1,1.1733130000002348,,,,,,,,,,,,dsy,f,21,2024_Apr_17_1023,mian,2021.2.3,59.925129543134815,
4F,2,2,4.0,l,"[0.2, -0.2]",,,,,,,,,,,,,,,,,,,,0,47,47,47,,,,,,,,,,,,,,,,,l,1,0.6951938000001974,,,,,,,,,,,,dsy,f,21,2024_Apr_17_1023,mian,2021.2.3,59.925129543134815,
4a,1,1,a,l,"[0.2, 0.2]",,,,,,,,,,,,,,,,,,,,0,48,48,48,,,,,,,,,,,,,,,,,l,1,1.6146699999999328,,,,,,,,,,,,dsy,f,21,2024_Apr_17_1023,mian,2021.2.3,59.925129543134815,
e3,1,2,e,l,"[-0.2, 0.2]",,,,,,,,,,,,,,,,,,,,0,49,49,49,,,,,,,,,,,,,,,,,l,1,0.636692199999743,,,,,,,,,,,,dsy,f,21,2024_Apr_17_1023,mian,2021.2.3,59.925129543134815,
5g,2,1,5.0,a,"[-0.2, -0.2]",,,,,,,,,,,,,,,,,,,,0,50,50,50,,,,,,,,,,,,,,,,,a,1,1.111695200000213,,,,,,,,,,,,dsy,f,21,2024_Apr_17_1023,mian,2021.2.3,59.925129543134815,
f4,2,2,4.0,l,"[0.2, -0.2]",,,,,,,,,,,,,,,,,,,,0,51,51,51,,,,,,,,,,,,,,,,,l,1,0.7923919000004389,,,,,,,,,,,,dsy,f,21,2024_Apr_17_1023,mian,2021.2.3,59.925129543134815,
6E,1,1,E,a,"[0.2, 0.2]",,,,,,,,,,,,,,,,,,,,0,52,52,52,,,,,,,,,,,,,,,,,a,1,0.7317446999995809,,,,,,,,,,,,dsy,f,21,2024_Apr_17_1023,mian,2021.2.3,59.925129543134815,
7A,1,2,A,a,"[-0.2, 0.2]",,,,,,,,,,,,,,,,,,,,0,53,53,53,,,,,,,,,,,,,,,,,a,1,0.5475753000000623,,,,,,,,,,,,dsy,f,21,2024_Apr_17_1023,mian,2021.2.3,59.925129543134815,
F4,2,1,4.0,l,"[-0.2, -0.2]",,,,,,,,,,,,,,,,,,,,0,54,54,54,,,,,,,,,,,,,,,,,l,1,1.19219079999948,,,,,,,,,,,,dsy,f,21,2024_Apr_17_1023,mian,2021.2.3,59.925129543134815,
2g,2,2,2.0,l,"[0.2, -0.2]",,,,,,,,,,,,,,,,,,,,0,55,55,55,,,,,,,,,,,,,,,,,l,1,0.7083742000004349,,,,,,,,,,,,dsy,f,21,2024_Apr_17_1023,mian,2021.2.3,59.925129543134815,
7E,1,1,E,a,"[0.2, 0.2]",,,,,,,,,,,,,,,,,,,,0,56,56,56,,,,,,,,,,,,,,,,,a,1,0.7482302999997046,,,,,,,,,,,,dsy,f,21,2024_Apr_17_1023,mian,2021.2.3,59.925129543134815,
G4,1,2,G,a,"[-0.2, 0.2]",,,,,,,,,,,,,,,,,,,,0,57,57,57,,,,,,,,,,,,,,,,,a,1,0.5679814999994051,,,,,,,,,,,,dsy,f,21,2024_Apr_17_1023,mian,2021.2.3,59.925129543134815,
2F,2,1,2.0,l,"[-0.2, -0.2]",,,,,,,,,,,,,,,,,,,,0,58,58,58,,,,,,,,,,,,,,,,,l,1,0.9906049999999595,,,,,,,,,,,,dsy,f,21,2024_Apr_17_1023,mian,2021.2.3,59.925129543134815,
E9,2,2,9.0,a,"[0.2, -0.2]",,,,,,,,,,,,,,,,,,,,0,59,59,59,,,,,,,,,,,,,,,,,a,1,0.9677474000000075,,,,,,,,,,,,dsy,f,21,2024_Apr_17_1023,mian,2021.2.3,59.925129543134815,
5f,1,1,f,l,"[0.2, 0.2]",,,,,,,,,,,,,,,,,,,,0,60,60,60,,,,,,,,,,,,,,,,,l,1,1.8144182000005458,,,,,,,,,,,,dsy,f,21,2024_Apr_17_1023,mian,2021.2.3,59.925129543134815,
e7,1,2,e,l,"[-0.2, 0.2]",,,,,,,,,,,,,,,,,,,,0,61,61,61,,,,,,,,,,,,,,,,,l,1,0.5794166000005134,,,,,,,,,,,,dsy,f,21,2024_Apr_17_1023,mian,2021.2.3,59.925129543134815,
f2,2,1,2.0,l,"[-0.2, -0.2]",,,,,,,,,,,,,,,,,,,,0,62,62,62,,,,,,,,,,,,,,,,,l,1,1.1410200999998779,,,,,,,,,,,,dsy,f,21,2024_Apr_17_1023,mian,2021.2.3,59.925129543134815,
G9,2,2,9.0,a,"[0.2, -0.2]",,,,,,,,,,,,,,,,,,,,0,63,63,63,,,,,,,,,,,,,,,,,a,1,0.6123601999997845,,,,,,,,,,,,dsy,f,21,2024_Apr_17_1023,mian,2021.2.3,59.925129543134815,
7g,1,1,g,l,"[0.2, 0.2]",,,,,,,,,,,,,,,,,,,,0,64,64,64,,,,,,,,,,,,,,,,,l,1,1.134370900000249,,,,,,,,,,,,dsy,f,21,2024_Apr_17_1023,mian,2021.2.3,59.925129543134815,
F8,1,2,F,a,"[-0.2, 0.2]",,,,,,,,,,,,,,,,,,,,0,65,65,65,,,,,,,,,,,,,,,,,a,1,1.3253960000001825,,,,,,,,,,,,dsy,f,21,2024_Apr_17_1023,mian,2021.2.3,59.925129543134815,
A7,2,1,7.0,a,"[-0.2, -0.2]",,,,,,,,,,,,,,,,,,,,0,66,66,66,,,,,,,,,,,,,,,,,a,1,1.02016999999978,,,,,,,,,,,,dsy,f,21,2024_Apr_17_1023,mian,2021.2.3,59.925129543134815,
4G,2,2,4.0,l,"[0.2, -0.2]",,,,,,,,,,,,,,,,,,,,0,67,67,67,,,,,,,,,,,,,,,,,l,1,0.6173588000001473,,,,,,,,,,,,dsy,f,21,2024_Apr_17_1023,mian,2021.2.3,59.925129543134815,
g2,1,1,g,l,"[0.2, 0.2]",,,,,,,,,,,,,,,,,,,,0,68,68,68,,,,,,,,,,,,,,,,,l,1,0.837450600000011,,,,,,,,,,,,dsy,f,21,2024_Apr_17_1023,mian,2021.2.3,59.925129543134815,
g4,1,2,g,l,"[-0.2, 0.2]",,,,,,,,,,,,,,,,,,,,0,69,69,69,,,,,,,,,,,,,,,,,l,1,0.6843011999999362,,,,,,,,,,,,dsy,f,21,2024_Apr_17_1023,mian,2021.2.3,59.925129543134815,
7a,2,1,7.0,a,"[-0.2, -0.2]",,,,,,,,,,,,,,,,,,,,0,70,70,70,,,,,,,,,,,,,,,,,a,1,1.2056508000005124,,,,,,,,,,,,dsy,f,21,2024_Apr_17_1023,mian,2021.2.3,59.925129543134815,
8e,2,2,8.0,l,"[0.2, -0.2]",,,,,,,,,,,,,,,,,,,,0,71,71,71,,,,,,,,,,,,,,,,,l,1,0.7072736999998597,,,,,,,,,,,,dsy,f,21,2024_Apr_17_1023,mian,2021.2.3,59.925129543134815,
h4,1,1,h,l,"[0.2, 0.2]",,,,,,,,,,,,,,,,,,,,0,72,72,72,,,,,,,,,,,,,,,,,l,1,0.5589292000004207,,,,,,,,,,,,dsy,f,21,2024_Apr_17_1023,mian,2021.2.3,59.925129543134815,
G8,1,2,G,a,"[-0.2, 0.2]",,,,,,,,,,,,,,,,,,,,0,73,73,73,,,,,,,,,,,,,,,,,a,1,0.51528000000053,,,,,,,,,,,,dsy,f,21,2024_Apr_17_1023,mian,2021.2.3,59.925129543134815,
6F,2,1,6.0,l,"[-0.2, -0.2]",,,,,,,,,,,,,,,,,,,,0,74,74,74,,,,,,,,,,,,,,,,,l,1,1.0327516999996078,,,,,,,,,,,,dsy,f,21,2024_Apr_17_1023,mian,2021.2.3,59.925129543134815,
g5,2,2,5.0,a,"[0.2, -0.2]",,,,,,,,,,,,,,,,,,,,0,75,75,75,,,,,,,,,,,,,,,,,a,1,0.8420554999993328,,,,,,,,,,,,dsy,f,21,2024_Apr_17_1023,mian,2021.2.3,59.925129543134815,
G5,1,1,G,a,"[0.2, 0.2]",,,,,,,,,,,,,,,,,,,,0,76,76,76,,,,,,,,,,,,,,,,,a,1,0.6607504000003246,,,,,,,,,,,,dsy,f,21,2024_Apr_17_1023,mian,2021.2.3,59.925129543134815,
h5,1,2,h,l,"[-0.2, 0.2]",,,,,,,,,,,,,,,,,,,,0,77,77,77,,,,,,,,,,,,,,,,,l,1,0.6507430999999997,,,,,,,,,,,,dsy,f,21,2024_Apr_17_1023,mian,2021.2.3,59.925129543134815,
9G,2,1,9.0,a,"[-0.2, -0.2]",,,,,,,,,,,,,,,,,,,,0,78,78,78,,,,,,,,,,,,,,,,,a,1,0.9415076000004774,,,,,,,,,,,,dsy,f,21,2024_Apr_17_1023,mian,2021.2.3,59.925129543134815,
F3,2,2,3.0,a,"[0.2, -0.2]",,,,,,,,,,,,,,,,,,,,0,79,79,79,,,,,,,,,,,,,,,,,a,1,0.6529300999991392,,,,,,,,,,,,dsy,f,21,2024_Apr_17_1023,mian,2021.2.3,59.925129543134815,
,,,,,,1,1,pic/flanker5.png,pic/flanker3.png,a,k,,,,,,,,,,,,,,,,,,0,0,0,0,0,0,0,4,,,,,,,,,,,,534.4716183999999,None,533.2874443000001,534.4881464999999,None,0,精致,k,1,2.0960214999995515,,dsy,f,21,2024_Apr_17_1023,mian,2021.2.3,59.925129543134815,
,,,,,,0,1,pic/flanker5.png,pic/flanker1.png,s,k,,,,,,,,,,,,,,,,,,0,0,0,0,0,1,1,0,,,,,,,,,,,,539.9548364000002,None,538.7714325999996,539.9715381999995,None,0,秀丽,k,1,2.0552299999999377,,dsy,f,21,2024_Apr_17_1023,mian,2021.2.3,59.925129543134815,
,,,,,,1,1,pic/flanker6.png,pic/flanker4.png,s,k,,,,,,,,,,,,,,,,,,0,0,0,0,0,2,2,6,,,,,,,,,,,,545.2381734,None,544.0545735999995,545.254825,None,0,清秀,k,1,1.6091520999998465,,dsy,f,21,2024_Apr_17_1023,mian,2021.2.3,59.925129543134815,
,,,,,,0,1,pic/flanker6.png,pic/flanker2.png,a,k,,,,,,,,,,,,,,,,,,0,0,0,0,0,3,3,2,,,,,,,,,,,,550.2714006999995,None,549.0879588999996,550.2882758999995,a,1,诚恳,k,1,0.9848222000000533,0.7663839000006192,dsy,f,21,2024_Apr_17_1023,mian,2021.2.3,59.925129543134815,
,,,,,,0,0,pic/flanker5.png,pic/flanker1.png,s,l,,,,,,,,,,,,,,,,,,0,0,0,0,0,4,4,3,,,,,,,,,,,,554.1211769000001,None,552.9374943000003,554.1377766999994,s,1,假冒,l,1,1.1020275000000765,1.264055599999665,dsy,f,21,2024_Apr_17_1023,mian,2021.2.3,59.925129543134815,
,,,,,,0,0,pic/flanker6.png,pic/flanker2.png,a,l,,,,,,,,,,,,,,,,,,0,0,0,0,0,5,5,1,,,,,,,,,,,,558.3714252999998,None,557.1881101999998,558.3880565,a,1,闷热,k,0,1.1117659000001368,1.0960562999998729,dsy,f,21,2024_Apr_17_1023,mian,2021.2.3,59.925129543134815,
,,,,,,1,0,pic/flanker5.png,pic/flanker3.png,a,l,,,,,,,,,,,,,,,,,,0,0,0,0,0,6,6,7,,,,,,,,,,,,562.4875546000003,None,561.3047314999994,562.5040343999999,a,1,穷苦,l,1,1.1117855000002237,0.817875599999752,dsy,f,21,2024_Apr_17_1023,mian,2021.2.3,59.925129543134815,
,,,,,,1,0,pic/flanker6.png,pic/flanker4.png,s,l,,,,,,,,,,,,,,,,,,0,0,0,0,0,7,7,5,,,,,,,,,,,,566.3545641999999,None,565.1714056000001,566.3714461,s,1,郁闷,l,1,0.8079770000003919,1.024335100000826,dsy,f,21,2024_Apr_17_1023,mian,2021.2.3,59.925129543134815,
,,,,,,,,,,,,,,,,,,,,,,,,,,,,,0,0,0,0,,,,,,,,,,,,,,,,,,,,,,,,,,,dsy,f,21,2024_Apr_17_1023,mian,2021.2.3,59.925129543134815,
,,,,,,0,1,pic/flanker6.png,pic/flanker2.png,a,k,,,,,,,,,,,,,,,,,,1,0,1,0,0,0,0,2,,,,,,,,,,,,582.4547031000002,None,581.2658107999996,582.4714605999998,a,1,生动,k,1,0.9278795000000173,1.1866681999999855,dsy,f,21,2024_Apr_17_1023,mian,2021.2.3,59.925129543134815,
,,,,,,0,0,pic/flanker6.png,pic/flanker2.png,a,l,,,,,,,,,,,,,,,,,,1,0,1,0,0,1,1,1,,,,,,,,,,,,586.6713675999999,None,585.4879672999996,586.6879808000003,a,1,闷热,l,1,0.8425729999999021,0.537657500000023,dsy,f,21,2024_Apr_17_1023,mian,2021.2.3,59.925129543134815,
,,,,,,1,1,pic/flanker5.png,pic/flanker3.png,a,k,,,,,,,,,,,,,,,,,,1,0,1,0,0,2,2,4,,,,,,,,,,,,590.1044719000001,None,588.9213332999998,590.1211094,a,1,顽强,k,1,0.7751220000000103,0.6837061000005633,dsy,f,21,2024_Apr_17_1023,mian,2021.2.3,59.925129543134815,
,,,,,,0,0,pic/flanker5.png,pic/flanker1.png,s,l,,,,,,,,,,,,,,,,,,1,0,1,0,0,3,3,3,,,,,,,,,,,,593.5212417000002,None,592.3383579000001,593.5378282000001,a,0,禁止,l,1,1.1515522999998211,0.726283500000136,dsy,f,21,2024_Apr_17_1023,mian,2021.2.3,59.925129543134815,
,,,,,,1,0,pic/flanker5.png,pic/flanker3.png,a,l,,,,,,,,,,,,,,,,,,1,0,1,0,0,4,4,7,,,,,,,,,,,,597.4212067999997,None,596.2380869999997,597.4379196,a,1,缺乏,k,0,0.668809699999656,0.7248736000001372,dsy,f,21,2024_Apr_17_1023,mian,2021.2.3,59.925129543134815,
,,,,,,1,0,pic/flanker6.png,pic/flanker4.png,s,l,,,,,,,,,,,,,,,,,,1,0,1,0,0,5,5,5,,,,,,,,,,,,600.6713763999996,None,599.4878674000001,600.6880817000001,s,1,胡涂,l,1,1.155512500000441,0.6392715000001772,dsy,f,21,2024_Apr_17_1023,mian,2021.2.3,59.925129543134815,
,,,,,,0,1,pic/flanker5.png,pic/flanker1.png,s,k,,,,,,,,,,,,,,,,,,1,0,1,0,0,6,6,0,,,,,,,,,,,,604.4213803000002,None,603.2380978000001,604.4380258000001,s,1,赞成,k,1,0.7665858999998818,0.7876480000004449,dsy,f,21,2024_Apr_17_1023,mian,2021.2.3,59.925129543134815,
,,,,,,1,1,pic/flanker6.png,pic/flanker4.png,s,k,,,,,,,,,,,,,,,,,,1,0,1,0,0,7,7,6,,,,,,,,,,,,607.8880463999994,None,606.7046518999996,607.9047572,s,1,瑰丽,k,1,0.5645384999997987,0.8982015000001411,dsy,f,21,2024_Apr_17_1023,mian,2021.2.3,59.925129543134815,
,,,,,,,,,,,,,,,,,,,,,,,,,,,,,1,0,1,0,,,,,,,,,,,,,,,,,,,,,,,,,,,dsy,f,21,2024_Apr_17_1023,mian,2021.2.3,59.925129543134815,
,,,,,,1,1,pic/flanker6.png,pic/flanker4.png,s,k,pic/AffRest1.png,,,,,,,,,,,,,,,,,,,,,,,,,0,0,0,0,0,0,0,22,,,,614.5378927000002,None,613.3434175000002,614.5545967999997,s,1,顽强,k,1,0.6325256000000081,0.6704093999996985,dsy,f,21,2024_Apr_17_1023,mian,2021.2.3,59.925129543134815,
,,,,,,1,0,pic/flanker6.png,pic/flanker4.png,s,l,pic/AffRest1.png,,,,,,,,,,,,,,,,,,,,,,,,,0,0,0,0,0,1,1,45,,,,617.7879321,None,616.6044090999994,617.8045368000003,s,1,穷苦,l,1,0.7467853000007381,0.6620310999996946,dsy,f,21,2024_Apr_17_1023,mian,2021.2.3,59.925129543134815,
,,,,,,1,0,pic/flanker5.png,pic/flanker3.png,a,l,pic/AffRest1.png,,,,,,,,,,,,,,,,,,,,,,,,,0,0,0,0,0,2,2,47,,,,621.1216193,None,619.9378478999997,621.1382131,a,1,落后,l,1,0.7986938999993072,0.5873499999997875,dsy,f,21,2024_Apr_17_1023,mian,2021.2.3,59.925129543134815,
,,,,,,0,1,pic/flanker5.png,pic/flanker1.png,s,k,pic/AffRest1.png,,,,,,,,,,,,,,,,,,,,,,,,,0,0,0,0,0,3,3,48,,,,624.4879013999998,None,623.3046641999999,624.5046199999997,s,1,留恋,k,1,0.7876021000001856,0.5793753999996625,dsy,f,21,2024_Apr_17_1023,mian,2021.2.3,59.925129543134815,
,,,,,,0,0,pic/flanker5.png,pic/flanker1.png,s,l,pic/AffRest1.png,,,,,,,,,,,,,,,,,,,,,,,,,0,0,0,0,0,4,4,35,,,,627.8880539000002,None,626.7045013999996,627.904638,s,1,假冒,l,1,0.7560010000006514,0.7831642000001011,dsy,f,21,2024_Apr_17_1023,mian,2021.2.3,59.925129543134815,
,,,,,,1,1,pic/flanker5.png,pic/flanker3.png,a,k,pic/AffRest1.png,,,,,,,,,,,,,,,,,,,,,,,,,0,0,0,0,0,5,5,12,,,,631.3882250999995,None,630.2043899,631.4048582999994,a,1,富丽,k,1,0.6383392999996431,0.6169677999996566,dsy,f,21,2024_Apr_17_1023,mian,2021.2.3,59.925129543134815,
,,,,,,1,1,pic/flanker6.png,pic/flanker4.png,s,k,pic/AffRest1.png,,,,,,,,,,,,,,,,,,,,,,,,,0,0,0,0,0,6,6,62,,,,634.7046634999997,None,633.5213261999997,634.7212006,s,1,豪放,k,1,0.6112425999999687,0.6068370000002687,dsy,f,21,2024_Apr_17_1023,mian,2021.2.3,59.925129543134815,
,,,,,,0,0,pic/flanker6.png,pic/flanker2.png,a,l,pic/AffRest1.png,,,,,,,,,,,,,,,,,,,,,,,,,0,0,0,0,0,7,7,17,,,,637.8546157000001,None,636.6712097999998,637.8710639999999,a,1,自卑,k,0,0.9060871000001498,0.6085224999997081,dsy,f,21,2024_Apr_17_1023,mian,2021.2.3,59.925129543134815,
,,,,,,1,1,pic/flanker5.png,pic/flanker3.png,a,k,pic/AffRest1.png,,,,,,,,,,,,,,,,,,,,,,,,,0,0,0,0,0,8,8,60,,,,641.2711385000002,None,640.0879020000002,641.2878383999996,a,1,正直,k,1,0.6217756000005465,0.6787403999996968,dsy,f,21,2024_Apr_17_1023,mian,2021.2.3,59.925129543134815,
,,,,,,0,0,pic/flanker6.png,pic/flanker2.png,a,l,pic/AffRest1.png,,,,,,,,,,,,,,,,,,,,,,,,,0,0,0,0,0,9,9,49,,,,644.4712214000001,None,643.2878400999998,644.4880022999996,a,1,厌恶,l,1,0.7768420000002152,0.6404770999997709,dsy,f,21,2024_Apr_17_1023,mian,2021.2.3,59.925129543134815,
,,,,,,1,0,pic/flanker6.png,pic/flanker4.png,s,l,pic/AffRest1.png,,,,,,,,,,,,,,,,,,,,,,,,,0,0,0,0,0,10,10,53,,,,647.7881578999995,None,646.6046146999997,647.8048282,s,1,损害,l,1,0.9237583000003724,0.6290396999993391,dsy,f,21,2024_Apr_17_1023,mian,2021.2.3,59.925129543134815,
,,,,,,1,1,pic/flanker5.png,pic/flanker3.png,a,k,pic/AffRest1.png,,,,,,,,,,,,,,,,,,,,,,,,,0,0,0,0,0,11,11,44,,,,651.3544749000002,None,650.1712836999995,651.3712264999995,a,1,卓越,k,1,0.6843565000008311,0.6644401999992624,dsy,f,21,2024_Apr_17_1023,mian,2021.2.3,59.925129543134815,
,,,,,,0,1,pic/flanker6.png,pic/flanker2.png,a,k,pic/AffRest1.png,,,,,,,,,,,,,,,,,,,,,,,,,0,0,0,0,0,12,12,34,,,,654.6712792999997,None,653.4877937000001,654.6878134999997,a,1,热切,k,1,0.6064765999999508,0.521816200000103,dsy,f,21,2024_Apr_17_1023,mian,2021.2.3,59.925129543134815,
,,,,,,0,0,pic/flanker6.png,pic/flanker2.png,a,l,pic/AffRest1.png,,,,,,,,,,,,,,,,,,,,,,,,,0,0,0,0,0,13,13,9,,,,657.7545467999998,None,656.5705802000002,657.7713137999999,a,1,郁闷,l,1,0.8249907000008534,0.6019642000001113,dsy,f,21,2024_Apr_17_1023,mian,2021.2.3,59.925129543134815,
,,,,,,0,1,pic/flanker5.png,pic/flanker1.png,s,k,pic/AffRest1.png,,,,,,,,,,,,,,,,,,,,,,,,,0,0,0,0,0,14,14,16,,,,661.1212361999997,None,659.9376682000002,661.1379256999999,a,0,享受,l,0,0.9809617000000799,0.5991318999995201,dsy,f,21,2024_Apr_17_1023,mian,2021.2.3,59.925129543134815,
,,,,,,1,0,pic/flanker6.png,pic/flanker4.png,s,l,pic/AffRest1.png,,,,,,,,,,,,,,,,,,,,,,,,,0,0,0,0,0,15,15,77,,,,664.6713072000002,None,663.4877654000002,664.6879710000003,None,0,缺乏,l,1,1.2092333000000508,,dsy,f,21,2024_Apr_17_1023,mian,2021.2.3,59.925129543134815,
,,,,,,1,0,pic/flanker5.png,pic/flanker3.png,a,l,pic/AffRest1.png,,,,,,,,,,,,,,,,,,,,,,,,,0,0,0,0,0,16,16,55,,,,669.3042175,None,668.1206915000002,669.3209009000002,a,1,焦躁,l,1,0.8999796999996761,0.8772870000002513,dsy,f,21,2024_Apr_17_1023,mian,2021.2.3,59.925129543134815,
,,,,,,0,1,pic/flanker6.png,pic/flanker2.png,a,k,pic/AffRest1.png,,,,,,,,,,,,,,,,,,,,,,,,,0,0,0,0,0,17,17,66,,,,673.0207123,None,671.8377192999997,673.0380088000002,a,1,舒畅,k,1,0.6917148000002271,0.5618295999993279,dsy,f,21,2024_Apr_17_1023,mian,2021.2.3,59.925129543134815,
,,,,,,1,0,pic/flanker5.png,pic/flanker3.png,a,l,pic/AffRest1.png,,,,,,,,,,,,,,,,,,,,,,,,,0,0,0,0,0,18,18,63,,,,676.3045081,None,675.1205773000001,676.3206306000002,a,1,伤心,l,1,0.8411125000002357,1.15500400000019,dsy,f,21,2024_Apr_17_1023,mian,2021.2.3,59.925129543134815,
,,,,,,1,0,pic/flanker6.png,pic/flanker4.png,s,l,pic/AffRest1.png,,,,,,,,,,,,,,,,,,,,,,,,,0,0,0,0,0,19,19,29,,,,680.3547613999999,None,679.1711783999999,680.3713473999996,s,1,胡涂,l,1,0.7813857999999527,0.736071099999208,dsy,f,21,2024_Apr_17_1023,mian,2021.2.3,59.925129543134815,
,,,,,,1,1,pic/flanker6.png,pic/flanker4.png,s,k,pic/AffRest1.png,,,,,,,,,,,,,,,,,,,,,,,,,0,0,0,0,0,20,20,70,,,,683.7206514,None,682.5378074,683.737306,s,1,畅销,k,1,0.705565100000058,0.794784300000174,dsy,f,21,2024_Apr_17_1023,mian,2021.2.3,59.925129543134815,
,,,,,,0,0,pic/flanker5.png,pic/flanker1.png,s,l,pic/AffRest1.png,,,,,,,,,,,,,,,,,,,,,,,,,0,0,0,0,0,21,21,75,,,,687.2045550000003,None,686.0210440999999,687.2211157000002,s,1,黑暗,l,1,0.7994138999993083,0.768625499999871,dsy,f,21,2024_Apr_17_1023,mian,2021.2.3,59.925129543134815,
,,,,,,1,0,pic/flanker5.png,pic/flanker3.png,a,l,pic/AffRest1.png,,,,,,,,,,,,,,,,,,,,,,,,,0,0,0,0,0,22,22,79,,,,690.8544488999996,None,689.6711780999995,690.8705984999997,a,1,嘲笑,l,1,0.7918139000003066,0.8655703000003996,dsy,f,21,2024_Apr_17_1023,mian,2021.2.3,59.925129543134815,
,,,,,,0,1,pic/flanker6.png,pic/flanker2.png,a,k,pic/AffRest1.png,,,,,,,,,,,,,,,,,,,,,,,,,0,0,0,0,0,23,23,18,,,,694.4044548000002,None,693.2204941,694.4212243000002,a,1,富足,k,1,0.7181018999999651,0.5179875000003449,dsy,f,21,2024_Apr_17_1023,mian,2021.2.3,59.925129543134815,
,,,,,,1,1,pic/flanker6.png,pic/flanker4.png,s,k,pic/AffRest1.png,,,,,,,,,,,,,,,,,,,,,,,,,0,0,0,0,0,24,24,54,,,,697.4878785000001,None,696.3044823999999,697.5045856999996,s,1,前进,k,1,0.8709931999992477,1.0313704000000143,dsy,f,21,2024_Apr_17_1023,mian,2021.2.3,59.925129543134815,
,,,,,,0,0,pic/flanker5.png,pic/flanker1.png,s,l,pic/AffRest1.png,,,,,,,,,,,,,,,,,,,,,,,,,0,0,0,0,0,25,25,11,,,,701.4544528999995,None,700.2706742999999,701.4706135999995,a,0,禁止,l,1,0.9605737000001682,0.7354537000001073,dsy,f,21,2024_Apr_17_1023,mian,2021.2.3,59.925129543134815,
,,,,,,1,1,pic/flanker5.png,pic/flanker3.png,a,k,pic/AffRest1.png,,,,,,,,,,,,,,,,,,,,,,,,,0,0,0,0,0,26,26,28,,,,705.0213130000002,None,703.8382228999999,705.0379504000002,a,1,秀丽,k,1,0.6536261999999624,0.8217756000003646,dsy,f,21,2024_Apr_17_1023,mian,2021.2.3,59.925129543134815,
,,,,,,1,0,pic/flanker5.png,pic/flanker3.png,a,l,pic/AffRest1.png,,,,,,,,,,,,,,,,,,,,,,,,,0,0,0,0,0,27,27,23,,,,708.4378552999997,None,707.2545160999998,708.4544903999995,a,1,轻率,l,1,0.9119024000001446,0.6777703999996447,dsy,f,21,2024_Apr_17_1023,mian,2021.2.3,59.925129543134815,
,,,,,,1,0,pic/flanker5.png,pic/flanker3.png,a,l,pic/AffRest1.png,,,,,,,,,,,,,,,,,,,,,,,,,0,0,0,0,0,28,28,71,,,,712.1046120000001,None,710.9212353000003,712.1205498999998,a,1,闷热,l,1,0.8381654000004346,0.5880587999999989,dsy,f,21,2024_Apr_17_1023,mian,2021.2.3,59.925129543134815,
,,,,,,1,0,pic/flanker5.png,pic/flanker3.png,a,l,pic/AffRest1.png,,,,,,,,,,,,,,,,,,,,,,,,,0,0,0,0,0,29,29,39,,,,715.5877991999996,None,714.4048402999997,715.604472,a,1,争吵,l,1,0.845086899999842,0.6714362000002438,dsy,f,21,2024_Apr_17_1023,mian,2021.2.3,59.925129543134815,
,,,,,,0,1,pic/flanker6.png,pic/flanker2.png,a,k,pic/AffRest1.png,,,,,,,,,,,,,,,,,,,,,,,,,0,0,0,0,0,30,30,50,,,,719.0880018999997,None,717.9045938999998,719.1045948000001,a,1,吉祥,k,1,0.7980735999999524,0.6014632000005804,dsy,f,21,2024_Apr_17_1023,mian,2021.2.3,59.925129543134815,
,,,,,,0,0,pic/flanker5.png,pic/flanker1.png,s,l,pic/AffRest1.png,,,,,,,,,,,,,,,,,,,,,,,,,0,0,0,0,0,31,31,59,,,,722.4879613000003,None,721.3044295,722.5045067000001,s,1,烦恼,l,1,0.8102446000002601,0.9584592999999586,dsy,f,21,2024_Apr_17_1023,mian,2021.2.3,59.925129543134815,
,,,,,,1,1,pic/flanker5.png,pic/flanker3.png,a,k,pic/AffRest1.png,,,,,,,,,,,,,,,,,,,,,,,,,0,0,0,0,0,32,32,52,,,,726.3041373999995,None,725.1205512999995,726.3204672000002,a,1,赞成,k,1,0.8003481999994619,0.6176326000004337,dsy,f,21,2024_Apr_17_1023,mian,2021.2.3,59.925129543134815,
,,,,,,1,1,pic/flanker6.png,pic/flanker4.png,s,k,pic/AffRest1.png,,,,,,,,,,,,,,,,,,,,,,,,,0,0,0,0,0,33,33,6,,,,729.6375415000002,None,728.4538700000003,729.6539857999996,s,1,廉洁,k,1,0.8689272000001438,0.7927597999996578,dsy,f,21,2024_Apr_17_1023,mian,2021.2.3,59.925129543134815,
,,,,,,1,1,pic/flanker6.png,pic/flanker4.png,s,k,pic/AffRest1.png,,,,,,,,,,,,,,,,,,,,,,,,,0,0,0,0,0,34,34,38,,,,733.3378224999997,None,732.1542086,733.3543105999997,s,1,精致,l,0,0.7905096999993475,0.8154323999997359,dsy,f,21,2024_Apr_17_1023,mian,2021.2.3,59.925129543134815,
,,,,,,1,1,pic/flanker5.png,pic/flanker3.png,a,k,pic/AffRest1.png,,,,,,,,,,,,,,,,,,,,,,,,,0,0,0,0,0,35,35,36,,,,737.0044846000001,None,735.8211995000001,737.0211151000003,a,1,诚恳,k,1,0.8052267000002757,0.8377825999996276,dsy,f,21,2024_Apr_17_1023,mian,2021.2.3,59.925129543134815,
,,,,,,1,0,pic/flanker6.png,pic/flanker4.png,s,l,pic/AffRest1.png,,,,,,,,,,,,,,,,,,,,,,,,,0,0,0,0,0,36,36,21,,,,740.4879049000001,None,739.3044164000003,740.5044226999999,s,1,处罚,l,1,0.782899499999985,0.7646413999991637,dsy,f,21,2024_Apr_17_1023,mian,2021.2.3,59.925129543134815,
,,,,,,1,1,pic/flanker5.png,pic/flanker3.png,a,k,pic/AffRest1.png,,,,,,,,,,,,,,,,,,,,,,,,,0,0,0,0,0,37,37,4,,,,743.9213294000001,None,742.7378418999997,743.9379486999997,a,1,丰满,k,1,0.7086125999994692,0.7152046999999584,dsy,f,21,2024_Apr_17_1023,mian,2021.2.3,59.925129543134815,
,,,,,,0,1,pic/flanker5.png,pic/flanker1.png,s,k,pic/AffRest1.png,,,,,,,,,,,,,,,,,,,,,,,,,0,0,0,0,0,38,38,72,,,,747.2710064000003,None,746.0878034999996,747.2878105999998,s,1,瑰丽,k,1,0.7027252999996563,1.0244483000005857,dsy,f,21,2024_Apr_17_1023,mian,2021.2.3,59.925129543134815,
,,,,,,0,0,pic/flanker6.png,pic/flanker2.png,a,l,pic/AffRest1.png,,,,,,,,,,,,,,,,,,,,,,,,,0,0,0,0,0,39,39,57,,,,750.9545255000003,None,749.7711675999999,750.9711582,a,1,悲观,l,1,1.0550686999995378,0.6840588000004573,dsy,f,21,2024_Apr_17_1023,mian,2021.2.3,59.925129543134815,
,,,,,,0,0,pic/flanker6.png,pic/flanker2.png,a,l,pic/AffRest1.png,,,,,,,,,,,,,,,,,,,,,,,,,0,0,0,0,0,40,40,33,,,,754.6878815999999,None,753.5043086999995,754.7044212999999,a,1,杂乱,l,1,0.9471470999997109,0.7875794999999925,dsy,f,21,2024_Apr_17_1023,mian,2021.2.3,59.925129543134815,
,,,,,,1,1,pic/flanker6.png,pic/flanker4.png,s,k,pic/AffRest1.png,,,,,,,,,,,,,,,,,,,,,,,,,0,0,0,0,0,41,41,46,,,,758.4544298000001,None,757.2711296999996,758.4711938,s,1,典雅,k,1,0.6919652000005954,0.8870342999998684,dsy,f,21,2024_Apr_17_1023,mian,2021.2.3,59.925129543134815,
,,,,,,0,1,pic/flanker5.png,pic/flanker1.png,s,k,pic/AffRest1.png,,,,,,,,,,,,,,,,,,,,,,,,,0,0,0,0,0,42,42,32,,,,761.9712281000002,None,760.7878779000002,761.9879023000003,s,1,永恒,k,1,0.8117228000000978,0.8734733000001142,dsy,f,21,2024_Apr_17_1023,mian,2021.2.3,59.925129543134815,
,,,,,,0,1,pic/flanker5.png,pic/flanker1.png,s,k,pic/AffRest1.png,,,,,,,,,,,,,,,,,,,,,,,,,0,0,0,0,0,43,43,64,,,,765.5544312000002,None,764.3711554000001,765.5711300000003,s,1,振作,k,1,0.6724891000003481,1.3795822000001863,dsy,f,21,2024_Apr_17_1023,mian,2021.2.3,59.925129543134815,
,,,,,,0,0,pic/flanker5.png,pic/flanker1.png,s,l,pic/AffRest1.png,,,,,,,,,,,,,,,,,,,,,,,,,0,0,0,0,0,44,44,51,,,,769.4380399000001,None,768.2543146999997,769.4547014999998,s,1,丢失,l,1,0.9091503999998167,1.0633182999999917,dsy,f,21,2024_Apr_17_1023,mian,2021.2.3,59.925129543134815,
,,,,,,1,0,pic/flanker6.png,pic/flanker4.png,s,l,pic/AffRest1.png,,,,,,,,,,,,,,,,,,,,,,,,,0,0,0,0,0,45,45,13,,,,773.4377495999997,None,772.2544399999997,773.4544256999998,s,1,失意,l,1,0.8538934999996854,0.7895372000002681,dsy,f,21,2024_Apr_17_1023,mian,2021.2.3,59.925129543134815,
,,,,,,1,1,pic/flanker5.png,pic/flanker3.png,a,k,pic/AffRest1.png,,,,,,,,,,,,,,,,,,,,,,,,,0,0,0,0,0,46,46,68,,,,777.1374950999998,None,775.9541564000001,777.1543777999996,a,1,羡慕,k,1,0.9712635999994745,0.7614375000002838,dsy,f,21,2024_Apr_17_1023,mian,2021.2.3,59.925129543134815,
,,,,,,1,1,pic/flanker6.png,pic/flanker4.png,s,k,pic/AffRest1.png,,,,,,,,,,,,,,,,,,,,,,,,,0,0,0,0,0,47,47,14,,,,780.8877101999997,None,779.7043689000002,780.9043671999998,s,1,鲜艳,k,1,0.7735757999998896,0.764014400000633,dsy,f,21,2024_Apr_17_1023,mian,2021.2.3,59.925129543134815,
,,,,,,1,0,pic/flanker5.png,pic/flanker3.png,a,l,pic/AffRest1.png,,,,,,,,,,,,,,,,,,,,,,,,,0,0,0,0,0,48,48,31,,,,784.4043142999999,None,783.2213984,784.4212607,a,1,怀疑,l,1,1.3203764999998384,0.9314517000002525,dsy,f,21,2024_Apr_17_1023,mian,2021.2.3,59.925129543134815,
,,,,,,0,1,pic/flanker6.png,pic/flanker2.png,a,k,pic/AffRest1.png,,,,,,,,,,,,,,,,,,,,,,,,,0,0,0,0,0,49,49,10,,,,788.5211479999998,None,787.3377085000002,788.5379049000003,a,1,公平,k,1,0.8665952000001198,0.8038498999994772,dsy,f,21,2024_Apr_17_1023,mian,2021.2.3,59.925129543134815,
,,,,,,0,0,pic/flanker5.png,pic/flanker1.png,s,l,pic/AffRest1.png,,,,,,,,,,,,,,,,,,,,,,,,,0,0,0,0,0,50,50,27,,,,792.1378162000001,None,790.9546416000003,792.1545409999999,s,1,罚款,l,1,0.9011358000007021,1.0963235000008353,dsy,f,21,2024_Apr_17_1023,mian,2021.2.3,59.925129543134815,
,,,,,,0,1,pic/flanker6.png,pic/flanker2.png,a,k,pic/AffRest1.png,,,,,,,,,,,,,,,,,,,,,,,,,0,0,0,0,0,51,51,26,,,,795.9543923000001,None,794.7709177999996,795.9711821999999,a,1,俊秀,k,1,1.4646302999999534,0.8120253999995839,dsy,f,21,2024_Apr_17_1023,mian,2021.2.3,59.925129543134815,
,,,,,,1,1,pic/flanker6.png,pic/flanker4.png,s,k,pic/AffRest1.png,,,,,,,,,,,,,,,,,,,,,,,,,0,0,0,0,0,52,52,30,,,,800.1211616999999,None,798.9378538000001,800.1378605999998,s,1,爽朗,k,1,1.0134938999999576,0.7282273000000714,dsy,f,21,2024_Apr_17_1023,mian,2021.2.3,59.925129543134815,
,,,,,,1,0,pic/flanker6.png,pic/flanker4.png,s,l,pic/AffRest1.png,,,,,,,,,,,,,,,,,,,,,,,,,0,0,0,0,0,53,53,5,,,,803.8876371999995,None,802.7042315999997,803.9044107,s,1,沮丧,l,1,0.7524640999999974,0.9205971000001227,dsy,f,21,2024_Apr_17_1023,mian,2021.2.3,59.925129543134815,
,,,,,,0,0,pic/flanker6.png,pic/flanker2.png,a,l,pic/AffRest1.png,,,,,,,,,,,,,,,,,,,,,,,,,0,0,0,0,0,54,54,65,,,,807.4044922000003,None,806.2211434000001,807.4211888,a,1,排斥,l,1,1.258289700000205,0.839813900000081,dsy,f,21,2024_Apr_17_1023,mian,2021.2.3,59.925129543134815,
,,,,,,1,1,pic/flanker6.png,pic/flanker4.png,s,k,pic/AffRest1.png,,,,,,,,,,,,,,,,,,,,,,,,,0,0,0,0,0,55,55,78,,,,811.4044541000003,None,810.2210988999996,811.4212502999999,s,1,敬佩,k,1,0.6508828000005451,1.0676909000003434,dsy,f,21,2024_Apr_17_1023,mian,2021.2.3,59.925129543134815,
,,,,,,0,1,pic/flanker5.png,pic/flanker1.png,s,k,pic/AffRest1.png,,,,,,,,,,,,,,,,,,,,,,,,,0,0,0,0,0,56,56,40,,,,815.1209626999998,None,813.9376425999999,815.1377839999996,s,1,充裕,k,1,0.6882577000005767,0.7395973000002414,dsy,f,21,2024_Apr_17_1023,mian,2021.2.3,59.925129543134815,
,,,,,,1,1,pic/flanker5.png,pic/flanker3.png,a,k,pic/AffRest1.png,,,,,,,,,,,,,,,,,,,,,,,,,0,0,0,0,0,57,57,76,,,,818.4376291999997,None,817.2543625999997,818.4544329,a,1,生动,k,1,0.8771089000001666,0.7382631999998921,dsy,f,21,2024_Apr_17_1023,mian,2021.2.3,59.925129543134815,
,,,,,,0,0,pic/flanker5.png,pic/flanker1.png,s,l,pic/AffRest1.png,,,,,,,,,,,,,,,,,,,,,,,,,0,0,0,0,0,58,58,67,,,,822.0878241,None,820.9043105999999,822.1041875999999,s,1,堵塞,l,1,0.8405155999998897,0.6345530999997209,dsy,f,21,2024_Apr_17_1023,mian,2021.2.3,59.925129543134815,
,,,,,,0,1,pic/flanker6.png,pic/flanker2.png,a,k,pic/AffRest1.png,,,,,,,,,,,,,,,,,,,,,,,,,0,0,0,0,0,59,59,58,,,,825.5711855999998,None,824.3877191000001,825.5877098999999,a,1,珍藏,k,1,1.0147839999999633,0.7512685000001511,dsy,f,21,2024_Apr_17_1023,mian,2021.2.3,59.925129543134815,
,,,,,,0,1,pic/flanker5.png,pic/flanker1.png,s,k,pic/AffRest1.png,,,,,,,,,,,,,,,,,,,,,,,,,0,0,0,0,0,60,60,8,,,,829.2871964999995,None,828.1043883000002,829.3037758999999,s,1,雄厚,k,1,0.9137120999994295,0.7117808000002697,dsy,f,21,2024_Apr_17_1023,mian,2021.2.3,59.925129543134815,
,,,,,,0,0,pic/flanker5.png,pic/flanker1.png,s,l,pic/AffRest1.png,,,,,,,,,,,,,,,,,,,,,,,,,0,0,0,0,0,61,61,43,,,,832.9544525000001,None,831.7711430999998,832.9708614000001,a,0,心慌,k,0,0.7996206999996502,0.9252950000000055,dsy,f,21,2024_Apr_17_1023,mian,2021.2.3,59.925129543134815,
,,,,,,0,0,pic/flanker5.png,pic/flanker1.png,s,l,pic/AffRest1.png,,,,,,,,,,,,,,,,,,,,,,,,,0,0,0,0,0,62,62,3,,,,836.5211262000003,None,835.3378442000003,836.5377172999997,s,1,撒谎,l,1,0.8070741000001362,0.7027504000006957,dsy,f,21,2024_Apr_17_1023,mian,2021.2.3,59.925129543134815,
,,,,,,0,0,pic/flanker6.png,pic/flanker2.png,a,l,pic/AffRest1.png,,,,,,,,,,,,,,,,,,,,,,,,,0,0,0,0,0,63,63,1,,,,839.9709846999995,None,838.7876568000001,839.9875990999999,a,1,别扭,l,1,0.9025195000003805,0.6198086999993393,dsy,f,21,2024_Apr_17_1023,mian,2021.2.3,59.925129543134815,
,,,,,,1,0,pic/flanker6.png,pic/flanker4.png,s,l,pic/AffRest1.png,,,,,,,,,,,,,,,,,,,,,,,,,0,0,0,0,0,64,64,69,,,,843.3877406000001,None,842.2044473999995,843.4043970000002,s,1,懒惰,l,1,0.7801019999997152,0.8195237999998426,dsy,f,21,2024_Apr_17_1023,mian,2021.2.3,59.925129543134815,
,,,,,,1,0,pic/flanker6.png,pic/flanker4.png,s,l,pic/AffRest1.png,,,,,,,,,,,,,,,,,,,,,,,,,0,0,0,0,0,65,65,61,,,,847.053793,None,845.8711105000002,847.0706209,s,1,浪费,l,1,0.9661036000006789,1.3439022000002296,dsy,f,21,2024_Apr_17_1023,mian,2021.2.3,59.925129543134815,
,,,,,,0,1,pic/flanker6.png,pic/flanker2.png,a,k,pic/AffRest1.png,,,,,,,,,,,,,,,,,,,,,,,,,0,0,0,0,0,66,66,74,,,,851.2543600999998,None,850.0712721999998,851.2710195,a,1,如愿,k,1,0.9064213000001473,0.5849835999997595,dsy,f,21,2024_Apr_17_1023,mian,2021.2.3,59.925129543134815,
,,,,,,0,0,pic/flanker6.png,pic/flanker2.png,a,l,pic/AffRest1.png,,,,,,,,,,,,,,,,,,,,,,,,,0,0,0,0,0,67,67,73,,,,854.8372561999995,None,853.6535295000003,854.8540241000001,a,1,孤单,l,1,2.157540600000175,0.8043030999997427,dsy,f,21,2024_Apr_17_1023,mian,2021.2.3,59.925129543134815,
,,,,,,0,1,pic/flanker5.png,pic/flanker1.png,s,k,pic/AffRest1.png,,,,,,,,,,,,,,,,,,,,,,,,,0,0,0,0,0,68,68,0,,,,859.7542741999996,None,858.5726990000003,859.7881199000003,s,1,优雅,k,1,0.7894306999996843,0.514509900000121,dsy,f,21,2024_Apr_17_1023,mian,2021.2.3,59.925129543134815,
,,,,,,1,1,pic/flanker5.png,pic/flanker3.png,a,k,pic/AffRest1.png,,,,,,,,,,,,,,,,,,,,,,,,,0,0,0,0,0,69,69,20,,,,863.1037950999998,None,861.9211552999996,863.1205144999994,a,1,奉献,k,1,1.186814100000447,0.8391461999999592,dsy,f,21,2024_Apr_17_1023,mian,2021.2.3,59.925129543134815,
,,,,,,1,0,pic/flanker6.png,pic/flanker4.png,s,l,pic/AffRest1.png,,,,,,,,,,,,,,,,,,,,,,,,,0,0,0,0,0,70,70,37,,,,867.0708857,None,865.8879207,867.0876634999995,s,1,逃避,l,1,1.1356802000000243,1.2633034000000407,dsy,f,21,2024_Apr_17_1023,mian,2021.2.3,59.925129543134815,
,,,,,,0,1,pic/flanker5.png,pic/flanker1.png,s,k,pic/AffRest1.png,,,,,,,,,,,,,,,,,,,,,,,,,0,0,0,0,0,71,71,24,,,,871.3211327999998,None,870.1378507,871.3376487999994,s,1,旺盛,k,1,0.8544727999997122,0.8079285000003438,dsy,f,21,2024_Apr_17_1023,mian,2021.2.3,59.925129543134815,
,,,,,,0,1,pic/flanker6.png,pic/flanker2.png,a,k,pic/AffRest1.png,,,,,,,,,,,,,,,,,,,,,,,,,0,0,0,0,0,72,72,2,,,,874.8378230999997,None,873.6543019999999,874.8542784000001,a,1,清秀,k,1,0.7530229000003601,0.8158999999996013,dsy,f,21,2024_Apr_17_1023,mian,2021.2.3,59.925129543134815,
,,,,,,0,0,pic/flanker6.png,pic/flanker2.png,a,l,pic/AffRest1.png,,,,,,,,,,,,,,,,,,,,,,,,,0,0,0,0,0,73,73,25,,,,878.3709171,None,877.1875270999999,878.3871078000002,a,1,冷笑,l,1,0.9963866999996753,0.6237357999998494,dsy,f,21,2024_Apr_17_1023,mian,2021.2.3,59.925129543134815,
,,,,,,0,0,pic/flanker5.png,pic/flanker1.png,s,l,pic/AffRest1.png,,,,,,,,,,,,,,,,,,,,,,,,,0,0,0,0,0,74,74,19,,,,881.8870233999996,None,880.7041807999994,881.9043677999998,None,0,消沉,l,1,1.0129476000001887,,dsy,f,21,2024_Apr_17_1023,mian,2021.2.3,59.925129543134815,
,,,,,,1,0,pic/flanker5.png,pic/flanker3.png,a,l,pic/AffRest1.png,,,,,,,,,,,,,,,,,,,,,,,,,0,0,0,0,0,75,75,15,,,,886.1210511999998,None,884.9377277000003,886.1376662000002,a,1,忧虑,l,1,0.9237662000005002,0.9075742000004539,dsy,f,21,2024_Apr_17_1023,mian,2021.2.3,59.925129543134815,
,,,,,,0,0,pic/flanker6.png,pic/flanker2.png,a,l,pic/AffRest1.png,,,,,,,,,,,,,,,,,,,,,,,,,0,0,0,0,0,76,76,41,,,,889.921069,None,888.7372452999998,889.9374646999995,a,1,鲁莽,l,1,0.8406070999999429,0.7233964000006381,dsy,f,21,2024_Apr_17_1023,mian,2021.2.3,59.925129543134815,
,,,,,,0,1,pic/flanker5.png,pic/flanker1.png,s,k,pic/AffRest1.png,,,,,,,,,,,,,,,,,,,,,,,,,0,0,0,0,0,77,77,56,,,,893.3379630999998,None,892.1543655999994,893.3544747999995,s,1,有利,k,1,0.7351437999996051,0.5955693999994764,dsy,f,21,2024_Apr_17_1023,mian,2021.2.3,59.925129543134815,
,,,,,,1,0,pic/flanker5.png,pic/flanker3.png,a,l,pic/AffRest1.png,,,,,,,,,,,,,,,,,,,,,,,,,0,0,0,0,0,78,78,7,,,,896.6210038999998,None,895.4377804999995,896.6370495000001,a,1,慌忙,l,1,0.8763641999994434,0.732458299999962,dsy,f,21,2024_Apr_17_1023,mian,2021.2.3,59.925129543134815,
,,,,,,0,1,pic/flanker6.png,pic/flanker2.png,a,k,pic/AffRest1.png,,,,,,,,,,,,,,,,,,,,,,,,,0,0,0,0,0,79,79,42,,,,900.2211022000001,None,899.0378185,900.2377478999997,a,1,圣洁,k,1,0.8870974000001297,0.7867510000005495,dsy,f,21,2024_Apr_17_1023,mian,2021.2.3,59.925129543134815,
,,,,,,,,,,,,pic/AffRest1.png,,,,,,,,,,,,,,,,,,,,,,,,,0,0,0,0,,,,,,,,,,,,,,,,,,,dsy,f,21,2024_Apr_17_1023,mian,2021.2.3,59.925129543134815,
,,,,,,0,1,pic/flanker6.png,pic/flanker2.png,a,k,pic/AffRest2.png,,,,,,,,,,,,,,,,,,,,,,,,,0,1,1,1,0,0,0,50,,,,913.9209989000001,None,912.7239145000003,913.9375939000001,a,1,清秀,k,1,0.7744744999999966,0.7272170999995069,dsy,f,21,2024_Apr_17_1023,mian,2021.2.3,59.925129543134815,
,,,,,,0,0,pic/flanker6.png,pic/flanker2.png,a,l,pic/AffRest2.png,,,,,,,,,,,,,,,,,,,,,,,,,0,1,1,1,0,1,1,73,,,,917.2876712999996,None,916.1043045999995,917.3043424999996,a,1,丢失,l,1,0.7125707000004695,0.5083346999999776,dsy,f,21,2024_Apr_17_1023,mian,2021.2.3,59.925129543134815,
,,,,,,1,0,pic/flanker6.png,pic/flanker4.png,s,l,pic/AffRest2.png,,,,,,,,,,,,,,,,,,,,,,,,,0,1,1,1,0,2,2,61,,,,920.4543152999995,None,919.2709340000001,920.4709230999997,s,1,郁闷,l,1,0.7189125999993848,0.6387170000007245,dsy,f,21,2024_Apr_17_1023,mian,2021.2.3,59.925129543134815,
,,,,,,1,0,pic/flanker6.png,pic/flanker4.png,s,l,pic/AffRest2.png,,,,,,,,,,,,,,,,,,,,,,,,,0,1,1,1,0,3,3,77,,,,923.8542365000003,None,922.6710158999995,923.8707490999996,s,1,轻率,l,1,0.969660699999622,0.7468981000001804,dsy,f,21,2024_Apr_17_1023,mian,2021.2.3,59.925129543134815,
,,,,,,0,0,pic/flanker6.png,pic/flanker2.png,a,l,pic/AffRest2.png,,,,,,,,,,,,,,,,,,,,,,,,,0,1,1,1,0,4,4,49,,,,927.6379041,None,926.4543864999996,927.6545282999996,a,1,排斥,l,1,0.8358895000001212,0.8556009000003542,dsy,f,21,2024_Apr_17_1023,mian,2021.2.3,59.925129543134815,
,,,,,,1,0,pic/flanker5.png,pic/flanker3.png,a,l,pic/AffRest2.png,,,,,,,,,,,,,,,,,,,,,,,,,0,1,1,1,0,5,5,15,,,,931.3210530999995,None,930.1377240000002,931.3376595,a,1,争吵,l,1,0.7845015000002604,0.6459219999997003,dsy,f,21,2024_Apr_17_1023,mian,2021.2.3,59.925129543134815,
,,,,,,0,1,pic/flanker6.png,pic/flanker2.png,a,k,pic/AffRest2.png,,,,,,,,,,,,,,,,,,,,,,,,,0,1,1,1,0,6,6,2,,,,934.5712066999995,None,933.3877452999996,934.5878482999997,a,1,爽朗,k,1,0.8831850000005943,0.5455053000005137,dsy,f,21,2024_Apr_17_1023,mian,2021.2.3,59.925129543134815,
,,,,,,1,0,pic/flanker6.png,pic/flanker4.png,s,l,pic/AffRest2.png,,,,,,,,,,,,,,,,,,,,,,,,,0,1,1,1,0,7,7,21,,,,938.0212101999996,None,936.8377522999999,938.0378836,s,1,懒惰,l,1,1.693786399999226,0.7097690999999031,dsy,f,21,2024_Apr_17_1023,mian,2021.2.3,59.925129543134815,
,,,,,,0,1,pic/flanker6.png,pic/flanker2.png,a,k,pic/AffRest2.png,,,,,,,,,,,,,,,,,,,,,,,,,0,1,1,1,0,8,8,26,,,,942.4543991999999,None,941.2708574999997,942.4710323999998,a,1,廉洁,k,1,0.7631281000003582,0.7090551000001142,dsy,f,21,2024_Apr_17_1023,mian,2021.2.3,59.925129543134815,
,,,,,,0,0,pic/flanker6.png,pic/flanker2.png,a,l,pic/AffRest2.png,,,,,,,,,,,,,,,,,,,,,,,,,0,1,1,1,0,9,9,41,,,,945.9542727999997,None,944.7710224000002,945.9708424,a,1,撒谎,l,1,1.3988317999992432,0.5770861999999397,dsy,f,21,2024_Apr_17_1023,mian,2021.2.3,59.925129543134815,
,,,,,,0,1,pic/flanker5.png,pic/flanker1.png,s,k,pic/AffRest2.png,,,,,,,,,,,,,,,,,,,,,,,,,0,1,1,1,0,10,10,24,,,,949.8708612999999,None,948.6876980999996,949.8876258,s,1,生动,k,1,0.644419399999606,0.7980188000001363,dsy,f,21,2024_Apr_17_1023,mian,2021.2.3,59.925129543134815,
,,,,,,0,1,pic/flanker5.png,pic/flanker1.png,s,k,pic/AffRest2.png,,,,,,,,,,,,,,,,,,,,,,,,,0,1,1,1,0,11,11,8,,,,953.2708652000001,None,952.0878353999997,953.2876469000003,s,1,瑰丽,k,1,0.6880685000005542,0.6303667000001951,dsy,f,21,2024_Apr_17_1023,mian,2021.2.3,59.925129543134815,
,,,,,,0,0,pic/flanker5.png,pic/flanker1.png,s,l,pic/AffRest2.png,,,,,,,,,,,,,,,,,,,,,,,,,0,1,1,1,0,12,12,59,,,,956.5877390999995,None,955.4042982999999,956.6043655000003,s,1,禁止,l,1,0.9119895999992877,0.5852715999999418,dsy,f,21,2024_Apr_17_1023,mian,2021.2.3,59.925129543134815,
,,,,,,0,1,pic/flanker6.png,pic/flanker2.png,a,k,pic/AffRest2.png,,,,,,,,,,,,,,,,,,,,,,,,,0,1,1,1,0,13,13,58,,,,960.0041843999998,None,958.8210210999996,960.0209488,a,1,旺盛,k,1,0.8281154999995124,0.4084869999996954,dsy,f,21,2024_Apr_17_1023,mian,2021.2.3,59.925129543134815,
,,,,,,1,1,pic/flanker6.png,pic/flanker4.png,s,k,pic/AffRest2.png,,,,,,,,,,,,,,,,,,,,,,,,,0,1,1,1,0,14,14,46,,,,963.2710347000002,None,962.0878089999997,963.2876170999998,s,1,俊秀,k,1,0.7893940000003568,0.7267467000001488,dsy,f,21,2024_Apr_17_1023,mian,2021.2.3,59.925129543134815,
,,,,,,1,1,pic/flanker6.png,pic/flanker4.png,s,k,pic/AffRest2.png,,,,,,,,,,,,,,,,,,,,,,,,,0,1,1,1,0,15,15,22,,,,966.6710032000001,None,965.4876193,966.6877610000001,s,1,圣洁,k,1,0.8394963999999163,1.3605839000001652,dsy,f,21,2024_Apr_17_1023,mian,2021.2.3,59.925129543134815,
,,,,,,0,0,pic/flanker6.png,pic/flanker2.png,a,l,pic/AffRest2.png,,,,,,,,,,,,,,,,,,,,,,,,,0,1,1,1,0,16,16,65,,,,970.7209222000001,None,969.5375681999994,970.7376254999999,a,1,自卑,l,1,1.0344320999993215,0.5216023000002679,dsy,f,21,2024_Apr_17_1023,mian,2021.2.3,59.925129543134815,
,,,,,,1,1,pic/flanker6.png,pic/flanker4.png,s,k,pic/AffRest2.png,,,,,,,,,,,,,,,,,,,,,,,,,0,1,1,1,0,17,17,14,,,,974.3210475999995,None,973.1375661000002,974.3375719999995,s,1,典雅,k,1,0.6175707000002149,0.6219042000002446,dsy,f,21,2024_Apr_17_1023,mian,2021.2.3,59.925129543134815,
,,,,,,1,0,pic/flanker6.png,pic/flanker4.png,s,l,pic/AffRest2.png,,,,,,,,,,,,,,,,,,,,,,,,,0,1,1,1,0,18,18,45,,,,977.4710496999996,None,976.2876206000001,977.4876095,s,1,烦恼,l,1,0.7637641999999687,0.7333688999997321,dsy,f,21,2024_Apr_17_1023,mian,2021.2.3,59.925129543134815,
,,,,,,0,0,pic/flanker6.png,pic/flanker2.png,a,l,pic/AffRest2.png,,,,,,,,,,,,,,,,,,,,,,,,,0,1,1,1,0,19,19,57,,,,980.8543602999998,None,979.6708772000002,980.8709673000003,a,1,失意,l,1,1.3179393999998865,0.6118663999995988,dsy,f,21,2024_Apr_17_1023,mian,2021.2.3,59.925129543134815,
,,,,,,0,0,pic/flanker5.png,pic/flanker1.png,s,l,pic/AffRest2.png,,,,,,,,,,,,,,,,,,,,,,,,,0,1,1,1,0,20,20,43,,,,984.6877671000002,None,983.5041633999999,984.7044827999998,s,1,堵塞,l,1,0.7291355000006661,0.8313866999997117,dsy,f,21,2024_Apr_17_1023,mian,2021.2.3,59.925129543134815,
,,,,,,1,0,pic/flanker6.png,pic/flanker4.png,s,l,pic/AffRest2.png,,,,,,,,,,,,,,,,,,,,,,,,,0,1,1,1,0,21,21,37,,,,988.2710734000002,None,987.0876063999995,988.2877061999998,None,0,慌忙,l,1,1.161474399999861,,dsy,f,21,2024_Apr_17_1023,mian,2021.2.3,59.925129543134815,
,,,,,,1,1,pic/flanker5.png,pic/flanker3.png,a,k,pic/AffRest2.png,,,,,,,,,,,,,,,,,,,,,,,,,0,1,1,1,0,22,22,52,,,,992.8044086,None,991.6208642000001,992.821081,a,1,公平,k,1,0.6059199000001172,0.7077481999995143,dsy,f,21,2024_Apr_17_1023,mian,2021.2.3,59.925129543134815,
,,,,,,0,1,pic/flanker6.png,pic/flanker2.png,a,k,pic/AffRest2.png,,,,,,,,,,,,,,,,,,,,,,,,,0,1,1,1,0,23,23,18,,,,996.1708798,None,994.9875446999995,996.1875044999997,a,1,卓越,k,1,0.5939579999994749,0.5885555000004388,dsy,f,21,2024_Apr_17_1023,mian,2021.2.3,59.925129543134815,
,,,,,,1,1,pic/flanker6.png,pic/flanker4.png,s,k,pic/AffRest2.png,,,,,,,,,,,,,,,,,,,,,,,,,0,1,1,1,0,24,24,38,,,,999.2210094000002,None,998.0376073999996,999.2376816999995,s,1,舒畅,k,1,0.5401641999997082,0.5783373999993273,dsy,f,21,2024_Apr_17_1023,mian,2021.2.3,59.925129543134815,
,,,,,,1,0,pic/flanker5.png,pic/flanker3.png,a,l,pic/AffRest2.png,,,,,,,,,,,,,,,,,,,,,,,,,0,1,1,1,0,25,25,39,,,,1002.2375326000001,None,1001.0542325999995,1002.2543730999996,a,1,沮丧,l,1,0.7238296000004993,0.682315899999594,dsy,f,21,2024_Apr_17_1023,mian,2021.2.3,59.925129543134815,
,,,,,,0,0,pic/flanker5.png,pic/flanker1.png,s,l,pic/AffRest2.png,,,,,,,,,,,,,,,,,,,,,,,,,0,1,1,1,0,26,26,27,,,,1005.6038607,None,1004.4202249,1005.6206345,s,1,缺乏,l,1,0.6826735000004192,0.6988248000006934,dsy,f,21,2024_Apr_17_1023,mian,2021.2.3,59.925129543134815,
,,,,,,1,1,pic/flanker5.png,pic/flanker3.png,a,k,pic/AffRest2.png,,,,,,,,,,,,,,,,,,,,,,,,,0,1,1,1,0,27,27,76,,,,1008.8878937,None,1007.7041086999998,1008.9037267000003,a,1,有利,k,1,0.5859676000000036,1.1677850999994916,dsy,f,21,2024_Apr_17_1023,mian,2021.2.3,59.925129543134815,
,,,,,,0,0,pic/flanker5.png,pic/flanker1.png,s,l,pic/AffRest2.png,,,,,,,,,,,,,,,,,,,,,,,,,0,1,1,1,0,28,28,75,,,,1012.7376199,None,1011.5542231,1012.7541888999995,s,1,鲁莽,l,1,0.6849959000001036,0.5863001000006989,dsy,f,21,2024_Apr_17_1023,mian,2021.2.3,59.925129543134815,
,,,,,,1,1,pic/flanker6.png,pic/flanker4.png,s,k,pic/AffRest2.png,,,,,,,,,,,,,,,,,,,,,,,,,0,1,1,1,0,29,29,30,,,,1016.0708690000001,None,1014.8875517999995,1016.0875740000001,s,1,敬佩,k,1,0.5786465000001044,0.5949734999994689,dsy,f,21,2024_Apr_17_1023,mian,2021.2.3,59.925129543134815,
,,,,,,1,1,pic/flanker5.png,pic/flanker3.png,a,k,pic/AffRest2.png,,,,,,,,,,,,,,,,,,,,,,,,,0,1,1,1,0,30,30,20,,,,1019.2041257999999,None,1018.0205802,1019.2208432999996,a,1,富丽,k,1,0.5750075000005381,0.690469099999973,dsy,f,21,2024_Apr_17_1023,mian,2021.2.3,59.925129543134815,
,,,,,,0,0,pic/flanker6.png,pic/flanker2.png,a,l,pic/AffRest2.png,,,,,,,,,,,,,,,,,,,,,,,,,0,1,1,1,0,31,31,1,,,,1022.4042984999996,None,1021.2209524999998,1022.4209079000002,a,1,胡涂,l,1,0.8700652999996237,0.6409237999996549,dsy,f,21,2024_Apr_17_1023,mian,2021.2.3,59.925129543134815,
,,,,,,1,1,pic/flanker5.png,pic/flanker3.png,a,k,pic/AffRest2.png,,,,,,,,,,,,,,,,,,,,,,,,,0,1,1,1,0,32,32,36,,,,1025.8375749999996,None,1024.6536500000002,1025.8541069000003,a,1,畅销,k,1,0.6343269000008149,0.671537599999283,dsy,f,21,2024_Apr_17_1023,mian,2021.2.3,59.925129543134815,
,,,,,,0,1,pic/flanker5.png,pic/flanker1.png,s,k,pic/AffRest2.png,,,,,,,,,,,,,,,,,,,,,,,,,0,1,1,1,0,33,33,0,,,,1029.1041073999995,None,1027.9204792,1029.1209053000002,s,1,赞成,k,1,0.6263275999999678,0.7370030000001861,dsy,f,21,2024_Apr_17_1023,mian,2021.2.3,59.925129543134815,
,,,,,,1,0,pic/flanker6.png,pic/flanker4.png,s,l,pic/AffRest2.png,,,,,,,,,,,,,,,,,,,,,,,,,0,1,1,1,0,34,34,5,,,,1032.4705249999997,None,1031.2868843999995,1032.4872254000002,s,1,落后,l,1,0.6858597000000373,0.6406852999998591,dsy,f,21,2024_Apr_17_1023,mian,2021.2.3,59.925129543134815,
,,,,,,0,0,pic/flanker5.png,pic/flanker1.png,s,l,pic/AffRest2.png,,,,,,,,,,,,,,,,,,,,,,,,,0,1,1,1,0,35,35,3,,,,1035.7040396000002,None,1034.5204773999994,1035.7205161000002,s,1,悲观,l,1,0.7388717000003453,0.6136162999991939,dsy,f,21,2024_Apr_17_1023,mian,2021.2.3,59.925129543134815,
,,,,,,0,0,pic/flanker5.png,pic/flanker1.png,s,l,pic/AffRest2.png,,,,,,,,,,,,,,,,,,,,,,,,,0,1,1,1,0,36,36,67,,,,1039.0371607999996,None,1037.8534972999996,1039.0535451999995,s,1,焦躁,l,1,0.9013942999999927,1.0347259000000122,dsy,f,21,2024_Apr_17_1023,mian,2021.2.3,59.925129543134815,
,,,,,,0,1,pic/flanker5.png,pic/flanker1.png,s,k,pic/AffRest2.png,,,,,,,,,,,,,,,,,,,,,,,,,0,1,1,1,0,37,37,72,,,,1042.9036140999997,None,1041.7207437999996,1042.9209228999998,s,1,丰满,k,1,0.6511135999999169,0.525275199999669,dsy,f,21,2024_Apr_17_1023,mian,2021.2.3,59.925129543134815,
,,,,,,1,1,pic/flanker6.png,pic/flanker4.png,s,k,pic/AffRest2.png,,,,,,,,,,,,,,,,,,,,,,,,,0,1,1,1,0,38,38,62,,,,1045.920967,None,1044.7373185999995,1045.9376307000002,s,1,顽强,k,1,0.6583604000006744,0.6858797000004415,dsy,f,21,2024_Apr_17_1023,mian,2021.2.3,59.925129543134815,
,,,,,,1,0,pic/flanker5.png,pic/flanker3.png,a,l,pic/AffRest2.png,,,,,,,,,,,,,,,,,,,,,,,,,0,1,1,1,0,39,39,71,,,,1049.1707601999997,None,1047.9868022,1049.1871546000002,a,1,厌恶,l,1,0.7345047999997405,0.6557705999994141,dsy,f,21,2024_Apr_17_1023,mian,2021.2.3,59.925129543134815,
,,,,,,1,1,pic/flanker5.png,pic/flanker3.png,a,k,pic/AffRest2.png,,,,,,,,,,,,,,,,,,,,,,,,,0,1,1,1,0,40,40,68,,,,1052.5535032999996,None,1051.3707783999998,1052.5707647999998,a,1,振作,k,1,0.6623576000001776,0.6180250999996133,dsy,f,21,2024_Apr_17_1023,mian,2021.2.3,59.925129543134815,
,,,,,,1,0,pic/flanker5.png,pic/flanker3.png,a,l,pic/AffRest2.png,,,,,,,,,,,,,,,,,,,,,,,,,0,1,1,1,0,41,41,79,,,,1055.8874648,None,1054.7039484999996,1055.9035756000003,a,1,心慌,l,1,0.7212124999996377,0.5436349000001428,dsy,f,21,2024_Apr_17_1023,mian,2021.2.3,59.925129543134815,
,,,,,,0,0,pic/flanker6.png,pic/flanker2.png,a,l,pic/AffRest2.png,,,,,,,,,,,,,,,,,,,,,,,,,0,1,1,1,0,42,42,25,,,,1058.9873955000003,None,1057.8036649999995,1059.0040530999995,a,1,怀疑,l,1,0.7329530000006343,0.4732514000006631,dsy,f,21,2024_Apr_17_1023,mian,2021.2.3,59.925129543134815,
,,,,,,1,0,pic/flanker5.png,pic/flanker3.png,a,l,pic/AffRest2.png,,,,,,,,,,,,,,,,,,,,,,,,,0,1,1,1,0,43,43,23,,,,1062.2369636000003,None,1061.0540399000001,1062.2537747999995,a,1,忧虑,l,1,0.7173195000004853,0.5403722000000926,dsy,f,21,2024_Apr_17_1023,mian,2021.2.3,59.925129543134815,
,,,,,,1,0,pic/flanker5.png,pic/flanker3.png,a,l,pic/AffRest2.png,,,,,,,,,,,,,,,,,,,,,,,,,0,1,1,1,0,44,44,63,,,,1065.3874131000002,None,1064.2041673000003,1065.4039524999998,a,1,孤单,l,1,0.7067542999993748,0.6134767000003194,dsy,f,21,2024_Apr_17_1023,mian,2021.2.3,59.925129543134815,
,,,,,,0,1,pic/flanker6.png,pic/flanker2.png,a,k,pic/AffRest2.png,,,,,,,,,,,,,,,,,,,,,,,,,0,1,1,1,0,45,45,66,,,,1068.5709387999996,None,1067.3873906,1068.5873930999996,a,1,如愿,k,1,0.6145382999993672,0.5137254999999641,dsy,f,21,2024_Apr_17_1023,mian,2021.2.3,59.925129543134815,
,,,,,,1,0,pic/flanker5.png,pic/flanker3.png,a,l,pic/AffRest2.png,,,,,,,,,,,,,,,,,,,,,,,,,0,1,1,1,0,46,46,7,,,,1071.6704860999998,None,1070.4868414000002,1071.6871148999999,a,1,伤心,l,1,0.677477700000054,0.6150220999998055,dsy,f,21,2024_Apr_17_1023,mian,2021.2.3,59.925129543134815,
,,,,,,1,0,pic/flanker6.png,pic/flanker4.png,s,l,pic/AffRest2.png,,,,,,,,,,,,,,,,,,,,,,,,,0,1,1,1,0,47,47,29,,,,1074.8372780999998,None,1073.6541326999995,1074.8541339000003,s,1,假冒,l,1,0.7803528999993432,0.6351173000002746,dsy,f,21,2024_Apr_17_1023,mian,2021.2.3,59.925129543134815,
,,,,,,0,0,pic/flanker6.png,pic/flanker2.png,a,l,pic/AffRest2.png,,,,,,,,,,,,,,,,,,,,,,,,,0,1,1,1,0,48,48,17,,,,1078.1371698000003,None,1076.9533818999998,1078.1540193,a,1,损害,l,1,0.630611399999907,0.6449577000003046,dsy,f,21,2024_Apr_17_1023,mian,2021.2.3,59.925129543134815,
,,,,,,0,0,pic/flanker5.png,pic/flanker1.png,s,l,pic/AffRest2.png,,,,,,,,,,,,,,,,,,,,,,,,,0,1,1,1,0,49,49,11,,,,1081.3370275999996,None,1080.1534917999998,1081.3538065000002,s,1,别扭,l,1,0.6540009999998802,1.3261580999997022,dsy,f,21,2024_Apr_17_1023,mian,2021.2.3,59.925129543134815,
,,,,,,1,0,pic/flanker5.png,pic/flanker3.png,a,l,pic/AffRest2.png,,,,,,,,,,,,,,,,,,,,,,,,,0,1,1,1,0,50,50,47,,,,1085.3707365,None,1084.1874626999997,1085.3875556000003,a,1,消沉,l,1,0.999766400000226,0.6075584000000163,dsy,f,21,2024_Apr_17_1023,mian,2021.2.3,59.925129543134815,
,,,,,,1,0,pic/flanker5.png,pic/flanker3.png,a,l,pic/AffRest2.png,,,,,,,,,,,,,,,,,,,,,,,,,0,1,1,1,0,51,51,55,,,,1088.8707250999996,None,1087.6873925999998,1088.8874858,a,1,黑暗,l,1,0.6319714000001113,0.6436396999997669,dsy,f,21,2024_Apr_17_1023,mian,2021.2.3,59.925129543134815,
,,,,,,0,1,pic/flanker5.png,pic/flanker1.png,s,k,pic/AffRest2.png,,,,,,,,,,,,,,,,,,,,,,,,,0,1,1,1,0,52,52,40,,,,1092.1706830000003,None,1090.9872995999995,1092.1874259999995,s,1,豪放,k,1,0.9591444000006959,0.6196872999998959,dsy,f,21,2024_Apr_17_1023,mian,2021.2.3,59.925129543134815,
,,,,,,0,0,pic/flanker5.png,pic/flanker1.png,s,l,pic/AffRest2.png,,,,,,,,,,,,,,,,,,,,,,,,,0,1,1,1,0,53,53,35,,,,1095.6042231000001,None,1094.4246969999995,1095.6375550000002,s,1,穷苦,l,1,0.7041930999994293,0.6468618999997489,dsy,f,21,2024_Apr_17_1023,mian,2021.2.3,59.925129543134815,
,,,,,,0,1,pic/flanker6.png,pic/flanker2.png,a,k,pic/AffRest2.png,,,,,,,,,,,,,,,,,,,,,,,,,0,1,1,1,0,54,54,74,,,,1098.9041496999998,None,1097.7206783000001,1098.9207231,a,1,奉献,k,1,0.8008143999995809,0.5486518999996406,dsy,f,21,2024_Apr_17_1023,mian,2021.2.3,59.925129543134815,
,,,,,,1,1,pic/flanker5.png,pic/flanker3.png,a,k,pic/AffRest2.png,,,,,,,,,,,,,,,,,,,,,,,,,0,1,1,1,0,55,55,60,,,,1102.1041918,None,1100.9207233999996,1102.1207177999995,a,1,前进,k,1,1.0883819000000585,0.6898504000000685,dsy,f,21,2024_Apr_17_1023,mian,2021.2.3,59.925129543134815,
,,,,,,1,0,pic/flanker6.png,pic/flanker4.png,s,l,pic/AffRest2.png,,,,,,,,,,,,,,,,,,,,,,,,,0,1,1,1,0,56,56,69,,,,1105.7035125000002,None,1104.5206670999996,1105.7202097999998,s,1,嘲笑,l,1,1.1182197999996788,0.6953394000001936,dsy,f,21,2024_Apr_17_1023,mian,2021.2.3,59.925129543134815,
,,,,,,0,0,pic/flanker6.png,pic/flanker2.png,a,l,pic/AffRest2.png,,,,,,,,,,,,,,,,,,,,,,,,,0,1,1,1,0,57,57,9,,,,1109.3539576000003,None,1108.1707195,1109.3709775999996,a,1,冷笑,l,1,0.7065522000002602,0.5203049000001556,dsy,f,21,2024_Apr_17_1023,mian,2021.2.3,59.925129543134815,
,,,,,,0,0,pic/flanker5.png,pic/flanker1.png,s,l,pic/AffRest2.png,,,,,,,,,,,,,,,,,,,,,,,,,0,1,1,1,0,58,58,51,,,,1112.5708667,None,1111.3872996999999,1112.5874463999999,s,1,杂乱,l,1,0.6926774000003206,0.9314577999994071,dsy,f,21,2024_Apr_17_1023,mian,2021.2.3,59.925129543134815,
,,,,,,1,1,pic/flanker5.png,pic/flanker3.png,a,k,pic/AffRest2.png,,,,,,,,,,,,,,,,,,,,,,,,,0,1,1,1,0,59,59,28,,,,1116.2540661000003,None,1115.0707506999997,1116.2708121999995,a,1,雄厚,k,1,0.6201093999998193,0.5915909999994255,dsy,f,21,2024_Apr_17_1023,mian,2021.2.3,59.925129543134815,
,,,,,,1,1,pic/flanker6.png,pic/flanker4.png,s,k,pic/AffRest2.png,,,,,,,,,,,,,,,,,,,,,,,,,0,1,1,1,0,60,60,78,,,,1119.4706293,None,1118.2874439999996,1119.4874080999998,s,1,吉祥,k,1,0.6258788000004643,0.6505619999998089,dsy,f,21,2024_Apr_17_1023,mian,2021.2.3,59.925129543134815,
,,,,,,0,1,pic/flanker5.png,pic/flanker1.png,s,k,pic/AffRest2.png,,,,,,,,,,,,,,,,,,,,,,,,,0,1,1,1,0,61,61,48,,,,1122.7039966000002,None,1121.5206716000002,1122.7207437999996,s,1,诚恳,k,1,0.6956851000004463,0.6361065999999482,dsy,f,21,2024_Apr_17_1023,mian,2021.2.3,59.925129543134815,
,,,,,,0,0,pic/flanker5.png,pic/flanker1.png,s,l,pic/AffRest2.png,,,,,,,,,,,,,,,,,,,,,,,,,0,1,1,1,0,62,62,19,,,,1125.9206211,None,1124.7372628000003,1125.9373606,s,1,闷热,l,1,0.7752989000000525,0.6808478999992076,dsy,f,21,2024_Apr_17_1023,mian,2021.2.3,59.925129543134815,
,,,,,,0,1,pic/flanker5.png,pic/flanker1.png,s,k,pic/AffRest2.png,,,,,,,,,,,,,,,,,,,,,,,,,0,1,1,1,0,63,63,56,,,,1129.2374643000003,None,1128.0540543999996,1129.2541089999995,s,1,富足,k,1,0.627342800000406,0.533999400000539,dsy,f,21,2024_Apr_17_1023,mian,2021.2.3,59.925129543134815,
,,,,,,0,1,pic/flanker5.png,pic/flanker1.png,s,k,pic/AffRest2.png,,,,,,,,,,,,,,,,,,,,,,,,,0,1,1,1,0,64,64,64,,,,1132.2540614,None,1131.0707467000002,1132.2707098,s,1,正直,k,1,0.5601470000001427,0.5404695000006541,dsy,f,21,2024_Apr_17_1023,mian,2021.2.3,59.925129543134815,
,,,,,,1,1,pic/flanker5.png,pic/flanker3.png,a,k,pic/AffRest2.png,,,,,,,,,,,,,,,,,,,,,,,,,0,1,1,1,0,65,65,44,,,,1135.2540970999999,None,1134.0705541999996,1135.2708061000003,a,1,享受,k,1,0.7740563999996084,0.7418091999998069,dsy,f,21,2024_Apr_17_1023,mian,2021.2.3,59.925129543134815,
,,,,,,0,0,pic/flanker6.png,pic/flanker2.png,a,l,pic/AffRest2.png,,,,,,,,,,,,,,,,,,,,,,,,,0,1,1,1,0,66,66,33,,,,1138.6707403999999,None,1137.4873710000002,1138.6874669999997,a,1,浪费,l,1,0.7756274000003032,0.7737147999996523,dsy,f,21,2024_Apr_17_1023,mian,2021.2.3,59.925129543134815,
,,,,,,1,1,pic/flanker5.png,pic/flanker3.png,a,k,pic/AffRest2.png,,,,,,,,,,,,,,,,,,,,,,,,,0,1,1,1,0,67,67,12,,,,1142.1539769,None,1140.9706673,1142.1707111999995,a,1,热切,k,1,0.8496531000000687,0.7684537000004639,dsy,f,21,2024_Apr_17_1023,mian,2021.2.3,59.925129543134815,
,,,,,,1,0,pic/flanker6.png,pic/flanker4.png,s,l,pic/AffRest2.png,,,,,,,,,,,,,,,,,,,,,,,,,0,1,1,1,0,68,68,53,,,,1145.7540733999995,None,1144.5707974999996,1145.7707312000002,s,1,处罚,l,1,1.669691399999465,1.1839788999996017,dsy,f,21,2024_Apr_17_1023,mian,2021.2.3,59.925129543134815,
,,,,,,1,0,pic/flanker5.png,pic/flanker3.png,a,l,pic/AffRest2.png,,,,,,,,,,,,,,,,,,,,,,,,,0,1,1,1,0,69,69,31,,,,1150.5540174999996,None,1149.3707765999998,1150.5706159000001,a,1,逃避,l,1,0.6452191000007588,0.5914275999994061,dsy,f,21,2024_Apr_17_1023,mian,2021.2.3,59.925129543134815,
,,,,,,1,1,pic/flanker6.png,pic/flanker4.png,s,k,pic/AffRest2.png,,,,,,,,,,,,,,,,,,,,,,,,,0,1,1,1,0,70,70,6,,,,1153.6374661999998,None,1152.4541043,1153.6540612999997,s,1,优雅,k,1,0.6089670000001206,0.6178712999999334,dsy,f,21,2024_Apr_17_1023,mian,2021.2.3,59.925129543134815,
,,,,,,0,1,pic/flanker6.png,pic/flanker2.png,a,k,pic/AffRest2.png,,,,,,,,,,,,,,,,,,,,,,,,,0,1,1,1,0,71,71,10,,,,1156.8873354999996,None,1155.7040344999996,1156.9041735,a,1,鲜艳,k,1,0.6542865999999776,0.733545399999457,dsy,f,21,2024_Apr_17_1023,mian,2021.2.3,59.925129543134815,
,,,,,,1,0,pic/flanker6.png,pic/flanker4.png,s,l,pic/AffRest2.png,,,,,,,,,,,,,,,,,,,,,,,,,0,1,1,1,0,72,72,13,,,,1160.2208233000001,None,1159.0374683999999,1160.2374622999996,s,1,罚款,l,1,0.9135811999994985,0.6222637999999279,dsy,f,21,2024_Apr_17_1023,mian,2021.2.3,59.925129543134815,
,,,,,,0,1,pic/flanker5.png,pic/flanker1.png,s,k,pic/AffRest2.png,,,,,,,,,,,,,,,,,,,,,,,,,0,1,1,1,0,73,73,16,,,,1163.6207388000003,None,1162.4374390000003,1163.6374587999999,s,1,充裕,k,1,0.6158494000001156,0.5798822999995537,dsy,f,21,2024_Apr_17_1023,mian,2021.2.3,59.925129543134815,
,,,,,,0,1,pic/flanker6.png,pic/flanker2.png,a,k,pic/AffRest2.png,,,,,,,,,,,,,,,,,,,,,,,,,0,1,1,1,0,74,74,42,,,,1166.8039848999997,None,1165.6205621999998,1166.8206781,a,1,珍藏,k,1,0.7089460000006511,0.6011840999999549,dsy,f,21,2024_Apr_17_1023,mian,2021.2.3,59.925129543134815,
,,,,,,1,1,pic/flanker5.png,pic/flanker3.png,a,k,pic/AffRest2.png,,,,,,,,,,,,,,,,,,,,,,,,,0,1,1,1,0,75,75,4,,,,1170.0540615,None,1168.8708191999995,1170.0707712000003,a,1,留恋,k,1,0.5964013999991948,0.6624547000001257,dsy,f,21,2024_Apr_17_1023,mian,2021.2.3,59.925129543134815,
,,,,,,0,1,pic/flanker6.png,pic/flanker2.png,a,k,pic/AffRest2.png,,,,,,,,,,,,,,,,,,,,,,,,,0,1,1,1,0,76,76,34,,,,1173.2540584999997,None,1172.0706627,1173.2705097999997,a,1,秀丽,k,1,0.5706227000000581,0.5437352999997529,dsy,f,21,2024_Apr_17_1023,mian,2021.2.3,59.925129543134815,
,,,,,,1,1,pic/flanker6.png,pic/flanker4.png,s,k,pic/AffRest2.png,,,,,,,,,,,,,,,,,,,,,,,,,0,1,1,1,0,77,77,70,,,,1176.2540288,None,1175.0707271,1176.2707861,s,1,精致,k,1,0.5279340000006414,0.5643168999995396,dsy,f,21,2024_Apr_17_1023,mian,2021.2.3,59.925129543134815,
,,,,,,1,1,pic/flanker6.png,pic/flanker4.png,s,k,pic/AffRest2.png,,,,,,,,,,,,,,,,,,,,,,,,,0,1,1,1,0,78,78,54,,,,1179.1706875,None,1177.9872828999996,1179.1874220999998,s,1,羡慕,k,1,0.570207699999628,0.6546293999999762,dsy,f,21,2024_Apr_17_1023,mian,2021.2.3,59.925129543134815,
,,,,,,0,1,pic/flanker5.png,pic/flanker1.png,s,k,pic/AffRest2.png,,,,,,,,,,,,,,,,,,,,,,,,,0,1,1,1,0,79,79,32,,,,1182.3039737999998,None,1181.1207335999998,1182.3206423000001,s,1,永恒,k,1,0.4947980999995707,0.6743201999997837,dsy,f,21,2024_Apr_17_1023,mian,2021.2.3,59.925129543134815,
,,,,,,,,,,,,pic/AffRest2.png,,,,,,,,,,,,,,,,,,,,,,,,,0,1,1,1,,,,,,,,,,,,,,,,,,,dsy,f,21,2024_Apr_17_1023,mian,2021.2.3,59.925129543134815,
,,,,,,0,1,pic/flanker6.png,pic/flanker2.png,a,k,pic/AffRest3.png,,,,,,,,,,,,,,,,,,,,,,,,,0,2,2,2,0,0,0,50,,,,1192.0040821000002,None,1190.8137492999995,1192.0201755999997,a,1,赞成,k,1,0.5769712999999683,0.616408699999738,dsy,f,21,2024_Apr_17_1023,mian,2021.2.3,59.925129543134815,
,,,,,,1,1,pic/flanker6.png,pic/flanker4.png,s,k,pic/AffRest3.png,,,,,,,,,,,,,,,,,,,,,,,,,0,2,2,2,0,1,1,62,,,,1195.1873833999998,None,1194.0039809,1195.2040029999998,s,1,吉祥,k,1,0.4992677999998705,0.664349200000288,dsy,f,21,2024_Apr_17_1023,mian,2021.2.3,59.925129543134815,
,,,,,,0,1,pic/flanker5.png,pic/flanker1.png,s,k,pic/AffRest3.png,,,,,,,,,,,,,,,,,,,,,,,,,0,2,2,2,0,2,2,56,,,,1198.2039735999997,None,1197.0207419999997,1198.2206354999998,s,1,富足,k,1,0.44753579999996873,0.5951437000003352,dsy,f,21,2024_Apr_17_1023,mian,2021.2.3,59.925129543134815,
,,,,,,1,0,pic/flanker5.png,pic/flanker3.png,a,l,pic/AffRest3.png,,,,,,,,,,,,,,,,,,,,,,,,,0,2,2,2,0,3,3,79,,,,1201.0874538999997,None,1199.9034958000002,1201.1040750000002,a,1,撒谎,l,1,0.760809700000209,0.5485515000000305,dsy,f,21,2024_Apr_17_1023,mian,2021.2.3,59.925129543134815,
,,,,,,0,0,pic/flanker5.png,pic/flanker1.png,s,l,pic/AffRest3.png,,,,,,,,,,,,,,,,,,,,,,,,,0,2,2,2,0,4,4,67,,,,1204.3373936999997,None,1203.1540471999997,1204.3540075,s,1,消沉,k,0,0.3993016999993415,0.6399209000001065,dsy,f,21,2024_Apr_17_1023,mian,2021.2.3,59.925129543134815,
,,,,,,0,1,pic/flanker5.png,pic/flanker1.png,s,k,pic/AffRest3.png,,,,,,,,,,,,,,,,,,,,,,,,,0,2,2,2,0,5,5,16,,,,1207.2043821999996,None,1206.0206049999997,1207.2207306,s,1,豪放,k,1,1.0444611000002624,0.7058466999997108,dsy,f,21,2024_Apr_17_1023,mian,2021.2.3,59.925129543134815,
,,,,,,0,0,pic/flanker5.png,pic/flanker1.png,s,l,pic/AffRest3.png,,,,,,,,,,,,,,,,,,,,,,,,,0,2,2,2,0,6,6,59,,,,1210.7873086999998,None,1209.6040258000003,1210.8040377999996,s,1,孤单,l,1,1.1768812999998772,0.6281040000003486,dsy,f,21,2024_Apr_17_1023,mian,2021.2.3,59.925129543134815,
,,,,,,0,0,pic/flanker6.png,pic/flanker2.png,a,l,pic/AffRest3.png,,,,,,,,,,,,,,,,,,,,,,,,,0,2,2,2,0,7,7,17,,,,1214.5706319,None,1213.3873768000003,1214.5874198000001,a,1,沮丧,l,1,0.794034599999577,0.7839177000005293,dsy,f,21,2024_Apr_17_1023,mian,2021.2.3,59.925129543134815,
,,,,,,0,0,pic/flanker6.png,pic/flanker2.png,a,l,pic/AffRest3.png,,,,,,,,,,,,,,,,,,,,,,,,,0,2,2,2,0,8,8,65,,,,1218.0872223999995,None,1216.9038719,1218.1039592999996,a,1,逃避,l,1,0.6952726999998049,0.8833425000002535,dsy,f,21,2024_Apr_17_1023,mian,2021.2.3,59.925129543134815,
,,,,,,1,1,pic/flanker6.png,pic/flanker4.png,s,k,pic/AffRest3.png,,,,,,,,,,,,,,,,,,,,,,,,,0,2,2,2,0,9,9,30,,,,1221.6700739999997,None,1220.4869722000003,1221.6873872999995,s,1,俊秀,k,1,0.6916024000001926,0.7300643999997192,dsy,f,21,2024_Apr_17_1023,mian,2021.2.3,59.925129543134815,
,,,,,,1,1,pic/flanker5.png,pic/flanker3.png,a,k,pic/AffRest3.png,,,,,,,,,,,,,,,,,,,,,,,,,0,2,2,2,0,10,10,68,,,,1225.0701630000003,None,1223.8873131999999,1225.0873695999999,a,1,畅销,k,1,0.6867639000001873,0.7912908000007519,dsy,f,21,2024_Apr_17_1023,mian,2021.2.3,59.925129543134815,
,,,,,,0,1,pic/flanker6.png,pic/flanker2.png,a,k,pic/AffRest3.png,,,,,,,,,,,,,,,,,,,,,,,,,0,2,2,2,0,11,11,10,,,,1228.5365488999996,None,1227.3538375999997,1228.5533923000003,a,1,瑰丽,k,1,0.5231470999997327,0.5717084999996587,dsy,f,21,2024_Apr_17_1023,mian,2021.2.3,59.925129543134815,
,,,,,,0,1,pic/flanker6.png,pic/flanker2.png,a,k,pic/AffRest3.png,,,,,,,,,,,,,,,,,,,,,,,,,0,2,2,2,0,12,12,66,,,,1231.5200771999998,None,1230.3373673999995,1231.5373001999997,a,1,秀丽,k,1,0.48176580000017566,0.505625499999951,dsy,f,21,2024_Apr_17_1023,mian,2021.2.3,59.925129543134815,
,,,,,,1,0,pic/flanker6.png,pic/flanker4.png,s,l,pic/AffRest3.png,,,,,,,,,,,,,,,,,,,,,,,,,0,2,2,2,0,13,13,5,,,,1234.4372716999997,None,1233.2536000999999,1234.4540110999997,s,1,自卑,l,1,0.787231399999655,0.686618400000043,dsy,f,21,2024_Apr_17_1023,mian,2021.2.3,59.925129543134815,
,,,,,,0,0,pic/flanker5.png,pic/flanker1.png,s,l,pic/AffRest3.png,,,,,,,,,,,,,,,,,,,,,,,,,0,2,2,2,0,14,14,51,,,,1237.9039389999998,None,1236.7200342999995,1237.9209328999996,s,1,黑暗,l,1,0.8830548000005365,1.02553159999934,dsy,f,21,2024_Apr_17_1023,mian,2021.2.3,59.925129543134815,
,,,,,,0,0,pic/flanker6.png,pic/flanker2.png,a,l,pic/AffRest3.png,,,,,,,,,,,,,,,,,,,,,,,,,0,2,2,2,0,15,15,9,,,,1241.6539738000001,None,1240.4706951999997,1241.6699583,a,1,慌忙,l,1,0.6363089000005857,0.6338916000004247,dsy,f,21,2024_Apr_17_1023,mian,2021.2.3,59.925129543134815,
,,,,,,0,1,pic/flanker5.png,pic/flanker1.png,s,k,pic/AffRest3.png,,,,,,,,,,,,,,,,,,,,,,,,,0,2,2,2,0,16,16,8,,,,1244.9705332000003,None,1243.7873005000001,1244.9873011,s,1,雄厚,k,1,0.6234999999996944,0.881065600000511,dsy,f,21,2024_Apr_17_1023,mian,2021.2.3,59.925129543134815,
,,,,,,0,1,pic/flanker5.png,pic/flanker1.png,s,k,pic/AffRest3.png,,,,,,,,,,,,,,,,,,,,,,,,,0,2,2,2,0,17,17,32,,,,1248.5040282,None,1247.3198895999994,1248.5207867,s,1,顽强,k,1,0.5458374999998341,1.270162399999208,dsy,f,21,2024_Apr_17_1023,mian,2021.2.3,59.925129543134815,
,,,,,,1,0,pic/flanker6.png,pic/flanker4.png,s,l,pic/AffRest3.png,,,,,,,,,,,,,,,,,,,,,,,,,0,2,2,2,0,18,18,45,,,,1252.1707114,None,1250.9872839,1252.1873771,s,1,胡涂,l,1,0.9388850999994247,0.8920551999999589,dsy,f,21,2024_Apr_17_1023,mian,2021.2.3,59.925129543134815,
,,,,,,0,1,pic/flanker5.png,pic/flanker1.png,s,k,pic/AffRest3.png,,,,,,,,,,,,,,,,,,,,,,,,,0,2,2,2,0,19,19,72,,,,1256.0370826999997,None,1254.8538745999995,1256.0537998999998,s,1,前进,k,1,0.6334618000000773,0.5810420999996495,dsy,f,21,2024_Apr_17_1023,mian,2021.2.3,59.925129543134815,
,,,,,,0,1,pic/flanker6.png,pic/flanker2.png,a,k,pic/AffRest3.png,,,,,,,,,,,,,,,,,,,,,,,,,0,2,2,2,0,20,20,42,,,,1259.1874441,None,1258.0039231,1259.2039376000002,None,0,享受,k,1,0.8586298999998689,,dsy,f,21,2024_Apr_17_1023,mian,2021.2.3,59.925129543134815,
,,,,,,0,0,pic/flanker5.png,pic/flanker1.png,s,l,pic/AffRest3.png,,,,,,,,,,,,,,,,,,,,,,,,,0,2,2,2,0,21,21,43,,,,1263.2706927,None,1262.0868817,1263.287429,s,1,悲观,l,1,0.7637003999998342,0.62552020000021,dsy,f,21,2024_Apr_17_1023,mian,2021.2.3,59.925129543134815,
,,,,,,1,0,pic/flanker5.png,pic/flanker3.png,a,l,pic/AffRest3.png,,,,,,,,,,,,,,,,,,,,,,,,,0,2,2,2,0,22,22,39,,,,1266.6538816000002,None,1265.4705360999997,1266.6706710999997,a,1,处罚,l,1,0.6965245999999752,0.7172392000002219,dsy,f,21,2024_Apr_17_1023,mian,2021.2.3,59.925129543134815,
,,,,,,1,1,pic/flanker6.png,pic/flanker4.png,s,k,pic/AffRest3.png,,,,,,,,,,,,,,,,,,,,,,,,,0,2,2,2,0,23,23,38,,,,1269.9706903999995,None,1268.7872554999994,1269.9872681999996,s,1,清秀,k,1,0.5985036000001855,0.6228787999998531,dsy,f,21,2024_Apr_17_1023,mian,2021.2.3,59.925129543134815,
,,,,,,1,0,pic/flanker6.png,pic/flanker4.png,s,l,pic/AffRest3.png,,,,,,,,,,,,,,,,,,,,,,,,,0,2,2,2,0,24,24,69,,,,1273.0704489999998,None,1271.8872672999996,1273.0872142999997,s,1,失意,l,1,0.6406874000003882,0.8523224000000482,dsy,f,21,2024_Apr_17_1023,mian,2021.2.3,59.925129543134815,
,,,,,,1,0,pic/flanker5.png,pic/flanker3.png,a,l,pic/AffRest3.png,,,,,,,,,,,,,,,,,,,,,,,,,0,2,2,2,0,25,25,55,,,,1276.4205696999998,None,1275.2372730999996,1276.4372210000001,a,1,别扭,l,1,0.871809299999768,0.7966630000000805,dsy,f,21,2024_Apr_17_1023,mian,2021.2.3,59.925129543134815,
,,,,,,1,1,pic/flanker6.png,pic/flanker4.png,s,k,pic/AffRest3.png,,,,,,,,,,,,,,,,,,,,,,,,,0,2,2,2,0,26,26,70,,,,1279.920792,None,1278.7373353000003,1279.9373801000002,s,1,卓越,k,1,0.5975671999995029,0.8521666000006007,dsy,f,21,2024_Apr_17_1023,mian,2021.2.3,59.925129543134815,
,,,,,,1,0,pic/flanker5.png,pic/flanker3.png,a,l,pic/AffRest3.png,,,,,,,,,,,,,,,,,,,,,,,,,0,2,2,2,0,27,27,63,,,,1283.2041609999997,None,1282.0221337000003,1283.2374023000002,None,0,忧虑,l,1,1.508487199999763,,dsy,f,21,2024_Apr_17_1023,mian,2021.2.3,59.925129543134815,
,,,,,,1,0,pic/flanker5.png,pic/flanker3.png,a,l,pic/AffRest3.png,,,,,,,,,,,,,,,,,,,,,,,,,0,2,2,2,0,28,28,23,,,,1288.1367234,None,1286.9538155999999,1288.1533172,None,0,杂乱,l,1,1.2681688000002396,,dsy,f,21,2024_Apr_17_1023,mian,2021.2.3,59.925129543134815,
,,,,,,0,0,pic/flanker5.png,pic/flanker1.png,s,l,pic/AffRest3.png,,,,,,,,,,,,,,,,,,,,,,,,,0,2,2,2,0,29,29,19,,,,1292.770665,None,1291.5870882999998,1292.7871439,s,1,厌恶,l,1,0.6274204999999711,0.5740820000000895,dsy,f,21,2024_Apr_17_1023,mian,2021.2.3,59.925129543134815,
,,,,,,1,0,pic/flanker5.png,pic/flanker3.png,a,l,pic/AffRest3.png,,,,,,,,,,,,,,,,,,,,,,,,,0,2,2,2,0,30,30,71,,,,1295.8039239999998,None,1294.6205608,1295.8202941999998,a,1,轻率,l,1,0.7612276999998357,0.6499893999998676,dsy,f,21,2024_Apr_17_1023,mian,2021.2.3,59.925129543134815,
,,,,,,1,1,pic/flanker5.png,pic/flanker3.png,a,k,pic/AffRest3.png,,,,,,,,,,,,,,,,,,,,,,,,,0,2,2,2,0,31,31,4,,,,1299.1039420999996,None,1297.9206205,1299.1204796000002,a,1,丰满,k,1,0.9097601000003124,0.6193996000001789,dsy,f,21,2024_Apr_17_1023,mian,2021.2.3,59.925129543134815,
,,,,,,0,0,pic/flanker5.png,pic/flanker1.png,s,l,pic/AffRest3.png,,,,,,,,,,,,,,,,,,,,,,,,,0,2,2,2,0,32,32,75,,,,1302.7037983999999,None,1301.5203605999995,1302.7205452999997,s,1,损害,l,1,0.7347858000002816,0.7024953000000096,dsy,f,21,2024_Apr_17_1023,mian,2021.2.3,59.925129543134815,
,,,,,,1,1,pic/flanker6.png,pic/flanker4.png,s,k,pic/AffRest3.png,,,,,,,,,,,,,,,,,,,,,,,,,0,2,2,2,0,33,33,6,,,,1306.0038994999995,None,1304.8206987000003,1306.0204856999999,s,1,优雅,k,1,0.5955923000001349,1.0352201000005152,dsy,f,21,2024_Apr_17_1023,mian,2021.2.3,59.925129543134815,
,,,,,,1,0,pic/flanker6.png,pic/flanker4.png,s,l,pic/AffRest3.png,,,,,,,,,,,,,,,,,,,,,,,,,0,2,2,2,0,34,34,77,,,,1309.6706085999995,None,1308.4872329999998,1309.6871928,s,1,假冒,l,1,0.7660304000000906,0.8733498000001418,dsy,f,21,2024_Apr_17_1023,mian,2021.2.3,59.925129543134815,
,,,,,,0,1,pic/flanker5.png,pic/flanker1.png,s,k,pic/AffRest3.png,,,,,,,,,,,,,,,,,,,,,,,,,0,2,2,2,0,35,35,40,,,,1313.1539328999997,None,1311.9704982000003,1313.1705677999998,None,0,敬佩,k,1,0.9165520000005927,,dsy,f,21,2024_Apr_17_1023,mian,2021.2.3,59.925129543134815,
,,,,,,1,1,pic/flanker5.png,pic/flanker3.png,a,k,pic/AffRest3.png,,,,,,,,,,,,,,,,,,,,,,,,,0,2,2,2,0,36,36,36,,,,1317.4037508000001,None,1316.2202526,1317.4205384999996,a,1,正直,k,1,0.4729090000000724,0.6081150999998499,dsy,f,21,2024_Apr_17_1023,mian,2021.2.3,59.925129543134815,
,,,,,,1,0,pic/flanker5.png,pic/flanker3.png,a,l,pic/AffRest3.png,,,,,,,,,,,,,,,,,,,,,,,,,0,2,2,2,0,37,37,7,,,,1320.3205517999995,None,1319.1372419999998,1320.3372104999999,a,1,烦恼,l,1,0.7004362999996374,0.6093356999999742,dsy,f,21,2024_Apr_17_1023,mian,2021.2.3,59.925129543134815,
,,,,,,1,1,pic/flanker5.png,pic/flanker3.png,a,k,pic/AffRest3.png,,,,,,,,,,,,,,,,,,,,,,,,,0,2,2,2,0,38,38,60,,,,1323.6205386000001,None,1322.4372533999995,1323.6371515,a,1,羡慕,k,1,0.5133671000003233,0.5641404999996666,dsy,f,21,2024_Apr_17_1023,mian,2021.2.3,59.925129543134815,
,,,,,,1,1,pic/flanker5.png,pic/flanker3.png,a,k,pic/AffRest3.png,,,,,,,,,,,,,,,,,,,,,,,,,0,2,2,2,0,39,39,20,,,,1326.5538231,None,1325.3704626999997,1326.5706181999994,a,1,爽朗,k,1,0.5954106999997748,0.5985407999996823,dsy,f,21,2024_Apr_17_1023,mian,2021.2.3,59.925129543134815,
,,,,,,0,1,pic/flanker5.png,pic/flanker1.png,s,k,pic/AffRest3.png,,,,,,,,,,,,,,,,,,,,,,,,,0,2,2,2,0,40,40,64,,,,1329.7873337,None,1328.6037848999995,1329.8038755999996,s,1,有利,k,1,0.47138280000035593,0.5149523999998564,dsy,f,21,2024_Apr_17_1023,mian,2021.2.3,59.925129543134815,
,,,,,,0,1,pic/flanker6.png,pic/flanker2.png,a,k,pic/AffRest3.png,,,,,,,,,,,,,,,,,,,,,,,,,0,2,2,2,0,41,41,34,,,,1332.6538285999995,None,1331.4704394,1332.6703804999997,a,1,如愿,k,1,0.4403092000002289,0.495614000000387,dsy,f,21,2024_Apr_17_1023,mian,2021.2.3,59.925129543134815,
,,,,,,0,1,pic/flanker5.png,pic/flanker1.png,s,k,pic/AffRest3.png,,,,,,,,,,,,,,,,,,,,,,,,,0,2,2,2,0,42,42,24,,,,1335.5705714999995,None,1334.3871932000002,1335.5872687,s,1,舒畅,k,1,0.4534897000003184,1.2937330000004295,dsy,f,21,2024_Apr_17_1023,mian,2021.2.3,59.925129543134815,
,,,,,,0,0,pic/flanker6.png,pic/flanker2.png,a,l,pic/AffRest3.png,,,,,,,,,,,,,,,,,,,,,,,,,0,2,2,2,0,43,43,73,,,,1339.3037767999995,None,1338.1205975000003,1339.3207236999997,a,1,怀疑,k,0,0.4592614000002868,0.61435690000053,dsy,f,21,2024_Apr_17_1023,mian,2021.2.3,59.925129543134815,
,,,,,,0,0,pic/flanker5.png,pic/flanker1.png,s,l,pic/AffRest3.png,,,,,,,,,,,,,,,,,,,,,,,,,0,2,2,2,0,44,44,3,,,,1342.3206238000002,None,1341.1368200999996,1342.3373278,s,1,罚款,l,1,0.6539824999999837,0.664066900000762,dsy,f,21,2024_Apr_17_1023,mian,2021.2.3,59.925129543134815,
,,,,,,1,0,pic/flanker5.png,pic/flanker3.png,a,l,pic/AffRest3.png,,,,,,,,,,,,,,,,,,,,,,,,,0,2,2,2,0,45,45,47,,,,1345.5372190999997,None,1344.3539879999998,1345.5536442000002,a,1,嘲笑,l,1,0.7040223000003607,0.7489566000003833,dsy,f,21,2024_Apr_17_1023,mian,2021.2.3,59.925129543134815,
,,,,,,1,0,pic/flanker6.png,pic/flanker4.png,s,l,pic/AffRest3.png,,,,,,,,,,,,,,,,,,,,,,,,,0,2,2,2,0,46,46,61,,,,1348.8868940000002,None,1347.7033124,1348.9036850000002,s,1,排斥,l,1,0.7368709000002127,0.9938568999996278,dsy,f,21,2024_Apr_17_1023,mian,2021.2.3,59.925129543134815,
,,,,,,0,0,pic/flanker6.png,pic/flanker2.png,a,l,pic/AffRest3.png,,,,,,,,,,,,,,,,,,,,,,,,,0,2,2,2,0,47,47,57,,,,1352.5204094,None,1351.3368449,1352.5371036999995,a,1,冷笑,l,1,0.631267900000239,0.906956199999513,dsy,f,21,2024_Apr_17_1023,mian,2021.2.3,59.925129543134815,
,,,,,,1,1,pic/flanker6.png,pic/flanker4.png,s,k,pic/AffRest3.png,,,,,,,,,,,,,,,,,,,,,,,,,0,2,2,2,0,48,48,54,,,,1355.9870019,None,1354.8037720000002,1356.0037841000003,s,1,振作,k,1,0.5679515000001629,0.7510761000003185,dsy,f,21,2024_Apr_17_1023,mian,2021.2.3,59.925129543134815,
,,,,,,1,0,pic/flanker5.png,pic/flanker3.png,a,l,pic/AffRest3.png,,,,,,,,,,,,,,,,,,,,,,,,,0,2,2,2,0,49,49,31,,,,1359.2871624,None,1358.1039754000003,1359.3038737999996,a,1,懒惰,l,1,0.6391501999996763,0.5224357000006421,dsy,f,21,2024_Apr_17_1023,mian,2021.2.3,59.925129543134815,
,,,,,,1,0,pic/flanker6.png,pic/flanker4.png,s,l,pic/AffRest3.png,,,,,,,,,,,,,,,,,,,,,,,,,0,2,2,2,0,50,50,53,,,,1362.4204954999996,None,1361.2372249,1362.4372310999997,s,1,禁止,l,1,0.6996180000005552,0.6661745999999766,dsy,f,21,2024_Apr_17_1023,mian,2021.2.3,59.925129543134815,
,,,,,,0,0,pic/flanker5.png,pic/flanker1.png,s,l,pic/AffRest3.png,,,,,,,,,,,,,,,,,,,,,,,,,0,2,2,2,0,51,51,35,,,,1365.6205864000003,None,1364.4372947000002,1365.6371517999996,s,1,鲁莽,l,1,0.676857999999811,0.5658060999994632,dsy,f,21,2024_Apr_17_1023,mian,2021.2.3,59.925129543134815,
,,,,,,0,1,pic/flanker6.png,pic/flanker2.png,a,k,pic/AffRest3.png,,,,,,,,,,,,,,,,,,,,,,,,,0,2,2,2,0,52,52,74,,,,1368.8038319999996,None,1367.6208389000003,1368.8205656,a,1,廉洁,k,1,0.7316315000007307,0.48098059999938414,dsy,f,21,2024_Apr_17_1023,mian,2021.2.3,59.925129543134815,
,,,,,,0,0,pic/flanker6.png,pic/flanker2.png,a,l,pic/AffRest3.png,,,,,,,,,,,,,,,,,,,,,,,,,0,2,2,2,0,53,53,49,,,,1372.0205838000002,None,1370.8371323000001,1372.0371226999996,a,1,闷热,l,1,0.8013422000003629,0.5380230000000665,dsy,f,21,2024_Apr_17_1023,mian,2021.2.3,59.925129543134815,
,,,,,,0,1,pic/flanker5.png,pic/flanker1.png,s,k,pic/AffRest3.png,,,,,,,,,,,,,,,,,,,,,,,,,0,2,2,2,0,54,54,48,,,,1375.3204324999997,None,1374.1368868999998,1375.3367723000001,s,1,充裕,k,1,0.653567700000167,0.5615566000005856,dsy,f,21,2024_Apr_17_1023,mian,2021.2.3,59.925129543134815,
,,,,,,0,0,pic/flanker6.png,pic/flanker2.png,a,l,pic/AffRest3.png,,,,,,,,,,,,,,,,,,,,,,,,,0,2,2,2,0,55,55,33,,,,1378.4866228,None,1377.3038582999998,1378.5039286,a,1,争吵,l,1,0.8563426999999137,0.5709577999996327,dsy,f,21,2024_Apr_17_1023,mian,2021.2.3,59.925129543134815,
,,,,,,1,0,pic/flanker6.png,pic/flanker4.png,s,l,pic/AffRest3.png,,,,,,,,,,,,,,,,,,,,,,,,,0,2,2,2,0,56,56,29,,,,1381.9365907000001,None,1380.7536930999995,1381.9537669000001,s,1,心慌,l,1,1.300833700000112,0.8982592000002114,dsy,f,21,2024_Apr_17_1023,mian,2021.2.3,59.925129543134815,
,,,,,,1,1,pic/flanker5.png,pic/flanker3.png,a,k,pic/AffRest3.png,,,,,,,,,,,,,,,,,,,,,,,,,0,2,2,2,0,57,57,52,,,,1386.003906,None,1384.8207305999995,1386.0205875000001,a,1,留恋,k,1,0.6786796000005779,0.5524943000000349,dsy,f,21,2024_Apr_17_1023,mian,2021.2.3,59.925129543134815,
,,,,,,0,1,pic/flanker6.png,pic/flanker2.png,a,k,pic/AffRest3.png,,,,,,,,,,,,,,,,,,,,,,,,,0,2,2,2,0,58,58,18,,,,1389.2706095000003,None,1388.0872119999995,1389.2870176999995,a,1,圣洁,k,1,0.5982994000005419,0.5183451000002606,dsy,f,21,2024_Apr_17_1023,mian,2021.2.3,59.925129543134815,
,,,,,,0,1,pic/flanker6.png,pic/flanker2.png,a,k,pic/AffRest3.png,,,,,,,,,,,,,,,,,,,,,,,,,0,2,2,2,0,59,59,58,,,,1392.2867817999995,None,1391.1037878999996,1392.3032962999996,a,1,珍藏,k,1,0.5676751000000877,0.5169281999997111,dsy,f,21,2024_Apr_17_1023,mian,2021.2.3,59.925129543134815,
,,,,,,1,1,pic/flanker5.png,pic/flanker3.png,a,k,pic/AffRest3.png,,,,,,,,,,,,,,,,,,,,,,,,,0,2,2,2,0,60,60,44,,,,1395.4540151,None,1394.2704175999997,1395.4707448999998,a,1,奉献,k,1,0.5443097999996098,0.6403929999996762,dsy,f,21,2024_Apr_17_1023,mian,2021.2.3,59.925129543134815,
,,,,,,0,0,pic/flanker6.png,pic/flanker2.png,a,l,pic/AffRest3.png,,,,,,,,,,,,,,,,,,,,,,,,,0,2,2,2,0,61,61,41,,,,1398.5871571999996,None,1397.4046355,1398.6035418000001,a,1,落后,l,1,0.7532802999994601,0.44287359999998444,dsy,f,21,2024_Apr_17_1023,mian,2021.2.3,59.925129543134815,
,,,,,,1,1,pic/flanker5.png,pic/flanker3.png,a,k,pic/AffRest3.png,,,,,,,,,,,,,,,,,,,,,,,,,0,2,2,2,0,62,62,28,,,,1401.7537844999997,None,1400.5703733,1401.7704480000002,a,1,诚恳,k,1,0.5883834999995088,0.6903919000005772,dsy,f,21,2024_Apr_17_1023,mian,2021.2.3,59.925129543134815,
,,,,,,0,0,pic/flanker6.png,pic/flanker2.png,a,l,pic/AffRest3.png,,,,,,,,,,,,,,,,,,,,,,,,,0,2,2,2,0,63,63,25,,,,1404.9207053999999,None,1403.7372483,1404.9371842,a,1,焦躁,l,1,0.6491098000005877,0.49257289999968634,dsy,f,21,2024_Apr_17_1023,mian,2021.2.3,59.925129543134815,
,,,,,,0,0,pic/flanker5.png,pic/flanker1.png,s,l,pic/AffRest3.png,,,,,,,,,,,,,,,,,,,,,,,,,0,2,2,2,0,64,64,27,,,,1407.9866241999998,None,1406.8038510999995,1408.0034335999999,s,1,丢失,l,1,0.6730459999998857,0.4795897000003606,dsy,f,21,2024_Apr_17_1023,mian,2021.2.3,59.925129543134815,
,,,,,,0,0,pic/flanker5.png,pic/flanker1.png,s,l,pic/AffRest3.png,,,,,,,,,,,,,,,,,,,,,,,,,0,2,2,2,0,65,65,11,,,,1411.0870910000003,None,1409.9038030000002,1411.1037792999996,s,1,穷苦,l,1,0.9501785000002201,0.6556854000000385,dsy,f,21,2024_Apr_17_1023,mian,2021.2.3,59.925129543134815,
,,,,,,0,1,pic/flanker6.png,pic/flanker2.png,a,k,pic/AffRest3.png,,,,,,,,,,,,,,,,,,,,,,,,,0,2,2,2,0,66,66,26,,,,1414.6873968999998,None,1413.5037233000003,1414.70406,a,1,生动,k,1,0.8479520000000775,0.6248082000001887,dsy,f,21,2024_Apr_17_1023,mian,2021.2.3,59.925129543134815,
,,,,,,1,0,pic/flanker6.png,pic/flanker4.png,s,l,pic/AffRest3.png,,,,,,,,,,,,,,,,,,,,,,,,,0,2,2,2,0,67,67,37,,,,1418.1206575999995,None,1416.9371493999997,1418.1365807000002,s,1,浪费,l,1,0.7975871999997253,0.6482193000001644,dsy,f,21,2024_Apr_17_1023,mian,2021.2.3,59.925129543134815,
,,,,,,1,1,pic/flanker6.png,pic/flanker4.png,s,k,pic/AffRest3.png,,,,,,,,,,,,,,,,,,,,,,,,,0,2,2,2,0,68,68,14,,,,1421.4205529,None,1420.2365012999999,1421.4371325000002,s,1,旺盛,k,1,0.6899728000007599,0.6284405999995215,dsy,f,21,2024_Apr_17_1023,mian,2021.2.3,59.925129543134815,
,,,,,,1,1,pic/flanker5.png,pic/flanker3.png,a,k,pic/AffRest3.png,,,,,,,,,,,,,,,,,,,,,,,,,0,2,2,2,0,69,69,76,,,,1424.6031726,None,1423.4204216999997,1424.6199311999999,a,1,富丽,k,1,0.6230522999994719,0.5902986999999484,dsy,f,21,2024_Apr_17_1023,mian,2021.2.3,59.925129543134815,
,,,,,,1,1,pic/flanker5.png,pic/flanker3.png,a,k,pic/AffRest3.png,,,,,,,,,,,,,,,,,,,,,,,,,0,2,2,2,0,70,70,12,,,,1427.8703182,None,1426.6870005,1427.8871227,a,1,永恒,k,1,0.7578917999999248,0.6854353999997329,dsy,f,21,2024_Apr_17_1023,mian,2021.2.3,59.925129543134815,
,,,,,,0,1,pic/flanker6.png,pic/flanker2.png,a,k,pic/AffRest3.png,,,,,,,,,,,,,,,,,,,,,,,,,0,2,2,2,0,71,71,2,,,,1431.3704722000002,None,1430.1871640999998,1431.3872014999997,a,1,鲜艳,k,1,0.5549193000006198,0.5228466999997181,dsy,f,21,2024_Apr_17_1023,mian,2021.2.3,59.925129543134815,
,,,,,,1,0,pic/flanker5.png,pic/flanker3.png,a,l,pic/AffRest3.png,,,,,,,,,,,,,,,,,,,,,,,,,0,2,2,2,0,72,72,15,,,,1434.4038238000003,None,1433.2202474999995,1434.4204254999995,a,1,堵塞,l,1,0.7228279999999359,0.6166734999997061,dsy,f,21,2024_Apr_17_1023,mian,2021.2.3,59.925129543134815,
