target,反应类型,条件,truetarget,CorAns,Position,congruency,AffValue,flankerPic,targetPic,corAnsF,corAnsA,RestPic,returnPractice.thisRepN,returnPractice.thisTrialN,returnPractice.thisN,returnPractice.thisIndex,pracNum.thisRepN,pracNum.thisTrialN,pracNum.thisN,pracNum.thisIndex,NumBlock1.thisRepN,NumBlock1.thisTrialN,NumBlock1.thisN,NumBlock1.thisIndex,NumBlock2.thisRepN,NumBlock2.thisTrialN,NumBlock2.thisN,NumBlock2.thisIndex,returnPrac.thisRepN,returnPrac.thisTrialN,returnPrac.thisN,returnPrac.thisIndex,PracAff.thisRepN,PracAff.thisTrialN,PracAff.thisN,PracAff.thisIndex,AffBlocks.thisRepN,AffBlocks.thisTrialN,AffBlocks.thisN,AffBlocks.thisIndex,AffBlock1.thisRepN,AffBlock1.thisTrialN,AffBlock1.thisN,AffBlock1.thisIndex,respNum2word.keys,respNum2word.corr,respNum2word.rt,text.started,text.stopped,blank.started,blank.stopped,respFlanker.keys,respFlanker.corr,thisWord,respAffWord.keys,respAffWord.corr,respAffWord.rt,respFlanker.rt,姓名,性别,年龄（周岁）,date,expName,psychopyVersion,frameRate,
2A,1,1,A,a,"[0.2, 0.2]",,,,,,,,0,0,0,0,0,0,0,0,,,,,,,,,,,,,,,,,,,,,,,,,a,1,1.1262102999999115,,,,,,,,,,,,gjy,f,20,2024_Apr_10_1102,mian,2021.2.3,60.113132916122204,
A9,1,2,A,a,"[-0.2, 0.2]",,,,,,,,0,0,0,0,0,1,1,1,,,,,,,,,,,,,,,,,,,,,,,,,a,1,0.8752375999999913,,,,,,,,,,,,gjy,f,20,2024_Apr_10_1102,mian,2021.2.3,60.113132916122204,
7e,2,1,7.0,a,"[-0.2, -0.2]",,,,,,,,0,0,0,0,0,2,2,2,,,,,,,,,,,,,,,,,,,,,,,,,a,1,0.934469799999988,,,,,,,,,,,,gjy,f,20,2024_Apr_10_1102,mian,2021.2.3,60.113132916122204,
9H,2,2,9.0,a,"[0.2, -0.2]",,,,,,,,0,0,0,0,0,3,3,3,,,,,,,,,,,,,,,,,,,,,,,,,a,1,0.6644338000000971,,,,,,,,,,,,gjy,f,20,2024_Apr_10_1102,mian,2021.2.3,60.113132916122204,
h4,1,1,h,l,"[0.2, 0.2]",,,,,,,,0,0,0,0,0,4,4,4,,,,,,,,,,,,,,,,,,,,,,,,,l,1,0.6935622000000876,,,,,,,,,,,,gjy,f,20,2024_Apr_10_1102,mian,2021.2.3,60.113132916122204,
4H,1,2,H,a,"[-0.2, 0.2]",,,,,,,,0,0,0,0,0,5,5,5,,,,,,,,,,,,,,,,,,,,,,,,,a,1,0.9746132000000216,,,,,,,,,,,,gjy,f,20,2024_Apr_10_1102,mian,2021.2.3,60.113132916122204,
F8,2,1,8.0,l,"[-0.2, -0.2]",,,,,,,,0,0,0,0,0,6,6,6,,,,,,,,,,,,,,,,,,,,,,,,,l,1,0.7515233999999964,,,,,,,,,,,,gjy,f,20,2024_Apr_10_1102,mian,2021.2.3,60.113132916122204,
h7,2,2,7.0,a,"[0.2, -0.2]",,,,,,,,0,0,0,0,0,7,7,7,,,,,,,,,,,,,,,,,,,,,,,,,a,1,0.6235690999999406,,,,,,,,,,,,gjy,f,20,2024_Apr_10_1102,mian,2021.2.3,60.113132916122204,
5e,1,1,e,l,"[0.2, 0.2]",,,,,,,,0,0,0,0,0,8,8,8,,,,,,,,,,,,,,,,,,,,,,,,,l,1,1.167919700000084,,,,,,,,,,,,gjy,f,20,2024_Apr_10_1102,mian,2021.2.3,60.113132916122204,
e8,1,2,e,l,"[-0.2, 0.2]",,,,,,,,0,0,0,0,0,9,9,9,,,,,,,,,,,,,,,,,,,,,,,,,l,1,0.6765081999999438,,,,,,,,,,,,gjy,f,20,2024_Apr_10_1102,mian,2021.2.3,60.113132916122204,
4E,2,1,4.0,l,"[-0.2, -0.2]",,,,,,,,0,0,0,0,0,10,10,10,,,,,,,,,,,,,,,,,,,,,,,,,l,1,0.7097192000001087,,,,,,,,,,,,gjy,f,20,2024_Apr_10_1102,mian,2021.2.3,60.113132916122204,
5H,2,2,5.0,a,"[0.2, -0.2]",,,,,,,,0,0,0,0,0,11,11,11,,,,,,,,,,,,,,,,,,,,,,,,,a,1,0.7053648999999496,,,,,,,,,,,,gjy,f,20,2024_Apr_10_1102,mian,2021.2.3,60.113132916122204,
9E,1,1,E,a,"[0.2, 0.2]",,,,,,,,0,0,0,0,0,12,12,12,,,,,,,,,,,,,,,,,,,,,,,,,a,1,1.1460649999999077,,,,,,,,,,,,gjy,f,20,2024_Apr_10_1102,mian,2021.2.3,60.113132916122204,
h9,1,2,h,l,"[-0.2, 0.2]",,,,,,,,0,0,0,0,0,13,13,13,,,,,,,,,,,,,,,,,,,,,,,,,l,1,0.7553917000000183,,,,,,,,,,,,gjy,f,20,2024_Apr_10_1102,mian,2021.2.3,60.113132916122204,
2a,2,1,2.0,l,"[-0.2, -0.2]",,,,,,,,0,0,0,0,0,14,14,14,,,,,,,,,,,,,,,,,,,,,,,,,l,1,0.9026165000000219,,,,,,,,,,,,gjy,f,20,2024_Apr_10_1102,mian,2021.2.3,60.113132916122204,
e5,2,2,5.0,a,"[0.2, -0.2]",,,,,,,,0,0,0,0,0,15,15,15,,,,,,,,,,,,,,,,,,,,,,,,,a,1,0.9517562000000908,,,,,,,,,,,,gjy,f,20,2024_Apr_10_1102,mian,2021.2.3,60.113132916122204,
A5,1,1,A,a,"[0.2, 0.2]",,,,,,,,0,0,0,0,0,16,16,16,,,,,,,,,,,,,,,,,,,,,,,,,a,1,0.7125168000000031,,,,,,,,,,,,gjy,f,20,2024_Apr_10_1102,mian,2021.2.3,60.113132916122204,
a6,1,2,a,l,"[-0.2, 0.2]",,,,,,,,0,0,0,0,0,17,17,17,,,,,,,,,,,,,,,,,,,,,,,,,l,1,0.5218709000000672,,,,,,,,,,,,gjy,f,20,2024_Apr_10_1102,mian,2021.2.3,60.113132916122204,
2F,2,1,2.0,l,"[-0.2, -0.2]",,,,,,,,0,0,0,0,0,18,18,18,,,,,,,,,,,,,,,,,,,,,,,,,l,1,0.6267153999999664,,,,,,,,,,,,gjy,f,20,2024_Apr_10_1102,mian,2021.2.3,60.113132916122204,
e4,2,2,4.0,l,"[0.2, -0.2]",,,,,,,,0,0,0,0,0,19,19,19,,,,,,,,,,,,,,,,,,,,,,,,,l,1,0.6465705000000526,,,,,,,,,,,,gjy,f,20,2024_Apr_10_1102,mian,2021.2.3,60.113132916122204,
,,,,,,,,,,,,,0,0,0,0,,,,,,,,,,,,,,,,,,,,,,,,,,,,,,,,,,,,,,,,,,,gjy,f,20,2024_Apr_10_1102,mian,2021.2.3,60.113132916122204,
7h,1,1,h,l,"[0.2, 0.2]",,,,,,,,,,,,,,,,0,0,0,0,,,,,,,,,,,,,,,,,,,,,l,1,0.9276793999999882,,,,,,,,,,,,gjy,f,20,2024_Apr_10_1102,mian,2021.2.3,60.113132916122204,
8F,1,2,F,a,"[-0.2, 0.2]",,,,,,,,,,,,,,,,0,1,1,1,,,,,,,,,,,,,,,,,,,,,a,1,0.7494415999999546,,,,,,,,,,,,gjy,f,20,2024_Apr_10_1102,mian,2021.2.3,60.113132916122204,
8h,2,1,8.0,l,"[-0.2, -0.2]",,,,,,,,,,,,,,,,0,2,2,2,,,,,,,,,,,,,,,,,,,,,l,1,0.7241986999999881,,,,,,,,,,,,gjy,f,20,2024_Apr_10_1102,mian,2021.2.3,60.113132916122204,
a2,2,2,2.0,l,"[0.2, -0.2]",,,,,,,,,,,,,,,,0,3,3,3,,,,,,,,,,,,,,,,,,,,,l,1,0.7471457999999984,,,,,,,,,,,,gjy,f,20,2024_Apr_10_1102,mian,2021.2.3,60.113132916122204,
8f,1,1,f,l,"[0.2, 0.2]",,,,,,,,,,,,,,,,0,4,4,4,,,,,,,,,,,,,,,,,,,,,l,1,0.615529300000162,,,,,,,,,,,,gjy,f,20,2024_Apr_10_1102,mian,2021.2.3,60.113132916122204,
6a,1,2,a,l,"[-0.2, 0.2]",,,,,,,,,,,,,,,,0,5,5,5,,,,,,,,,,,,,,,,,,,,,l,1,0.6568597999998929,,,,,,,,,,,,gjy,f,20,2024_Apr_10_1102,mian,2021.2.3,60.113132916122204,
h6,2,1,6.0,l,"[-0.2, -0.2]",,,,,,,,,,,,,,,,0,6,6,6,,,,,,,,,,,,,,,,,,,,,l,1,0.6982263999998395,,,,,,,,,,,,gjy,f,20,2024_Apr_10_1102,mian,2021.2.3,60.113132916122204,
f9,2,2,9.0,a,"[0.2, -0.2]",,,,,,,,,,,,,,,,0,7,7,7,,,,,,,,,,,,,,,,,,,,,a,1,0.5393827999998848,,,,,,,,,,,,gjy,f,20,2024_Apr_10_1102,mian,2021.2.3,60.113132916122204,
E4,1,1,E,a,"[0.2, 0.2]",,,,,,,,,,,,,,,,0,8,8,8,,,,,,,,,,,,,,,,,,,,,a,1,0.5496533000000454,,,,,,,,,,,,gjy,f,20,2024_Apr_10_1102,mian,2021.2.3,60.113132916122204,
6e,1,2,e,l,"[-0.2, 0.2]",,,,,,,,,,,,,,,,0,9,9,9,,,,,,,,,,,,,,,,,,,,,l,1,0.5742890999999872,,,,,,,,,,,,gjy,f,20,2024_Apr_10_1102,mian,2021.2.3,60.113132916122204,
5G,2,1,5.0,a,"[-0.2, -0.2]",,,,,,,,,,,,,,,,0,10,10,10,,,,,,,,,,,,,,,,,,,,,a,1,0.5544786000000386,,,,,,,,,,,,gjy,f,20,2024_Apr_10_1102,mian,2021.2.3,60.113132916122204,
h3,2,2,3.0,a,"[0.2, -0.2]",,,,,,,,,,,,,,,,0,11,11,11,,,,,,,,,,,,,,,,,,,,,a,1,0.6624999000000571,,,,,,,,,,,,gjy,f,20,2024_Apr_10_1102,mian,2021.2.3,60.113132916122204,
9e,1,1,e,l,"[0.2, 0.2]",,,,,,,,,,,,,,,,0,12,12,12,,,,,,,,,,,,,,,,,,,,,l,1,0.5826795999998922,,,,,,,,,,,,gjy,f,20,2024_Apr_10_1102,mian,2021.2.3,60.113132916122204,
a8,1,2,a,l,"[-0.2, 0.2]",,,,,,,,,,,,,,,,0,13,13,13,,,,,,,,,,,,,,,,,,,,,l,1,0.7841255000000729,,,,,,,,,,,,gjy,f,20,2024_Apr_10_1102,mian,2021.2.3,60.113132916122204,
e8,2,1,8.0,l,"[-0.2, -0.2]",,,,,,,,,,,,,,,,0,14,14,14,,,,,,,,,,,,,,,,,,,,,l,1,1.2106295000000955,,,,,,,,,,,,gjy,f,20,2024_Apr_10_1102,mian,2021.2.3,60.113132916122204,
3f,2,2,3.0,a,"[0.2, -0.2]",,,,,,,,,,,,,,,,0,15,15,15,,,,,,,,,,,,,,,,,,,,,a,1,0.6316001000000142,,,,,,,,,,,,gjy,f,20,2024_Apr_10_1102,mian,2021.2.3,60.113132916122204,
7f,1,1,f,l,"[0.2, 0.2]",,,,,,,,,,,,,,,,0,16,16,16,,,,,,,,,,,,,,,,,,,,,l,1,0.6985383000001093,,,,,,,,,,,,gjy,f,20,2024_Apr_10_1102,mian,2021.2.3,60.113132916122204,
a7,1,2,a,l,"[-0.2, 0.2]",,,,,,,,,,,,,,,,0,17,17,17,,,,,,,,,,,,,,,,,,,,,l,1,1.3301754999999957,,,,,,,,,,,,gjy,f,20,2024_Apr_10_1102,mian,2021.2.3,60.113132916122204,
5A,2,1,5.0,a,"[-0.2, -0.2]",,,,,,,,,,,,,,,,0,18,18,18,,,,,,,,,,,,,,,,,,,,,a,1,1.0133052000001044,,,,,,,,,,,,gjy,f,20,2024_Apr_10_1102,mian,2021.2.3,60.113132916122204,
8g,2,2,8.0,l,"[0.2, -0.2]",,,,,,,,,,,,,,,,0,19,19,19,,,,,,,,,,,,,,,,,,,,,l,1,0.5265956999999162,,,,,,,,,,,,gjy,f,20,2024_Apr_10_1102,mian,2021.2.3,60.113132916122204,
9a,1,1,a,l,"[0.2, 0.2]",,,,,,,,,,,,,,,,0,20,20,20,,,,,,,,,,,,,,,,,,,,,l,1,1.047148899999911,,,,,,,,,,,,gjy,f,20,2024_Apr_10_1102,mian,2021.2.3,60.113132916122204,
f7,1,2,f,l,"[-0.2, 0.2]",,,,,,,,,,,,,,,,0,21,21,21,,,,,,,,,,,,,,,,,,,,,l,1,0.673299600000064,,,,,,,,,,,,gjy,f,20,2024_Apr_10_1102,mian,2021.2.3,60.113132916122204,
g9,2,1,9.0,a,"[-0.2, -0.2]",,,,,,,,,,,,,,,,0,22,22,22,,,,,,,,,,,,,,,,,,,,,a,1,0.6512801999999738,,,,,,,,,,,,gjy,f,20,2024_Apr_10_1102,mian,2021.2.3,60.113132916122204,
3h,2,2,3.0,a,"[0.2, -0.2]",,,,,,,,,,,,,,,,0,23,23,23,,,,,,,,,,,,,,,,,,,,,a,1,0.5518589000000702,,,,,,,,,,,,gjy,f,20,2024_Apr_10_1102,mian,2021.2.3,60.113132916122204,
E6,1,1,E,a,"[0.2, 0.2]",,,,,,,,,,,,,,,,0,24,24,24,,,,,,,,,,,,,,,,,,,,,a,1,0.5272833999999875,,,,,,,,,,,,gjy,f,20,2024_Apr_10_1102,mian,2021.2.3,60.113132916122204,
F6,1,2,F,a,"[-0.2, 0.2]",,,,,,,,,,,,,,,,0,25,25,25,,,,,,,,,,,,,,,,,,,,,a,1,0.5163603000000876,,,,,,,,,,,,gjy,f,20,2024_Apr_10_1102,mian,2021.2.3,60.113132916122204,
3A,2,1,3.0,a,"[-0.2, -0.2]",,,,,,,,,,,,,,,,0,26,26,26,,,,,,,,,,,,,,,,,,,,,l,0,0.9305429999999433,,,,,,,,,,,,gjy,f,20,2024_Apr_10_1102,mian,2021.2.3,60.113132916122204,
8H,2,2,8.0,l,"[0.2, -0.2]",,,,,,,,,,,,,,,,0,27,27,27,,,,,,,,,,,,,,,,,,,,,l,1,0.5335841999999502,,,,,,,,,,,,gjy,f,20,2024_Apr_10_1102,mian,2021.2.3,60.113132916122204,
5a,1,1,a,l,"[0.2, 0.2]",,,,,,,,,,,,,,,,0,28,28,28,,,,,,,,,,,,,,,,,,,,,l,1,1.3536997999999585,,,,,,,,,,,,gjy,f,20,2024_Apr_10_1102,mian,2021.2.3,60.113132916122204,
2h,1,2,h,l,"[-0.2, 0.2]",,,,,,,,,,,,,,,,0,29,29,29,,,,,,,,,,,,,,,,,,,,,l,1,0.767759900000101,,,,,,,,,,,,gjy,f,20,2024_Apr_10_1102,mian,2021.2.3,60.113132916122204,
e5,2,1,5.0,a,"[-0.2, -0.2]",,,,,,,,,,,,,,,,0,30,30,30,,,,,,,,,,,,,,,,,,,,,a,1,0.8007333999998991,,,,,,,,,,,,gjy,f,20,2024_Apr_10_1102,mian,2021.2.3,60.113132916122204,
a3,2,2,3.0,a,"[0.2, -0.2]",,,,,,,,,,,,,,,,0,31,31,31,,,,,,,,,,,,,,,,,,,,,a,1,0.5252605999999105,,,,,,,,,,,,gjy,f,20,2024_Apr_10_1102,mian,2021.2.3,60.113132916122204,
f3,1,1,f,l,"[0.2, 0.2]",,,,,,,,,,,,,,,,0,32,32,32,,,,,,,,,,,,,,,,,,,,,l,1,0.7239365000000362,,,,,,,,,,,,gjy,f,20,2024_Apr_10_1102,mian,2021.2.3,60.113132916122204,
2E,1,2,E,a,"[-0.2, 0.2]",,,,,,,,,,,,,,,,0,33,33,33,,,,,,,,,,,,,,,,,,,,,a,1,0.4645066999999017,,,,,,,,,,,,gjy,f,20,2024_Apr_10_1102,mian,2021.2.3,60.113132916122204,
2H,2,1,2.0,l,"[-0.2, -0.2]",,,,,,,,,,,,,,,,0,34,34,34,,,,,,,,,,,,,,,,,,,,,l,1,0.5417388999999275,,,,,,,,,,,,gjy,f,20,2024_Apr_10_1102,mian,2021.2.3,60.113132916122204,
H8,2,2,8.0,l,"[0.2, -0.2]",,,,,,,,,,,,,,,,0,35,35,35,,,,,,,,,,,,,,,,,,,,,l,1,0.591641700000082,,,,,,,,,,,,gjy,f,20,2024_Apr_10_1102,mian,2021.2.3,60.113132916122204,
9g,1,1,g,l,"[0.2, 0.2]",,,,,,,,,,,,,,,,0,36,36,36,,,,,,,,,,,,,,,,,,,,,l,1,1.0099204999999074,,,,,,,,,,,,gjy,f,20,2024_Apr_10_1102,mian,2021.2.3,60.113132916122204,
5h,1,2,h,l,"[-0.2, 0.2]",,,,,,,,,,,,,,,,0,37,37,37,,,,,,,,,,,,,,,,,,,,,l,1,0.5616112000000157,,,,,,,,,,,,gjy,f,20,2024_Apr_10_1102,mian,2021.2.3,60.113132916122204,
e4,2,1,4.0,l,"[-0.2, -0.2]",,,,,,,,,,,,,,,,0,38,38,38,,,,,,,,,,,,,,,,,,,,,l,1,0.6576211999999941,,,,,,,,,,,,gjy,f,20,2024_Apr_10_1102,mian,2021.2.3,60.113132916122204,
9h,2,2,9.0,a,"[0.2, -0.2]",,,,,,,,,,,,,,,,0,39,39,39,,,,,,,,,,,,,,,,,,,,,a,1,0.5674453999999969,,,,,,,,,,,,gjy,f,20,2024_Apr_10_1102,mian,2021.2.3,60.113132916122204,
G3,1,1,G,a,"[0.2, 0.2]",,,,,,,,,,,,,,,,0,40,40,40,,,,,,,,,,,,,,,,,,,,,a,1,0.6803325999999288,,,,,,,,,,,,gjy,f,20,2024_Apr_10_1102,mian,2021.2.3,60.113132916122204,
9A,1,2,A,a,"[-0.2, 0.2]",,,,,,,,,,,,,,,,0,41,41,41,,,,,,,,,,,,,,,,,,,,,a,1,0.48422279999999773,,,,,,,,,,,,gjy,f,20,2024_Apr_10_1102,mian,2021.2.3,60.113132916122204,
H5,2,1,5.0,a,"[-0.2, -0.2]",,,,,,,,,,,,,,,,0,42,42,42,,,,,,,,,,,,,,,,,,,,,a,1,0.8523479000000407,,,,,,,,,,,,gjy,f,20,2024_Apr_10_1102,mian,2021.2.3,60.113132916122204,
4e,2,2,4.0,l,"[0.2, -0.2]",,,,,,,,,,,,,,,,0,43,43,43,,,,,,,,,,,,,,,,,,,,,l,1,0.5621084000001701,,,,,,,,,,,,gjy,f,20,2024_Apr_10_1102,mian,2021.2.3,60.113132916122204,
E2,1,1,E,a,"[0.2, 0.2]",,,,,,,,,,,,,,,,0,44,44,44,,,,,,,,,,,,,,,,,,,,,a,1,0.9361189999999624,,,,,,,,,,,,gjy,f,20,2024_Apr_10_1102,mian,2021.2.3,60.113132916122204,
A5,1,2,A,a,"[-0.2, 0.2]",,,,,,,,,,,,,,,,0,45,45,45,,,,,,,,,,,,,,,,,,,,,a,1,0.44666129999995974,,,,,,,,,,,,gjy,f,20,2024_Apr_10_1102,mian,2021.2.3,60.113132916122204,
2A,2,1,2.0,l,"[-0.2, -0.2]",,,,,,,,,,,,,,,,0,46,46,46,,,,,,,,,,,,,,,,,,,,,l,1,0.9200791000000663,,,,,,,,,,,,gjy,f,20,2024_Apr_10_1102,mian,2021.2.3,60.113132916122204,
6G,2,2,6.0,l,"[0.2, -0.2]",,,,,,,,,,,,,,,,0,47,47,47,,,,,,,,,,,,,,,,,,,,,l,1,0.5150928000000476,,,,,,,,,,,,gjy,f,20,2024_Apr_10_1102,mian,2021.2.3,60.113132916122204,
H3,1,1,H,a,"[0.2, 0.2]",,,,,,,,,,,,,,,,0,48,48,48,,,,,,,,,,,,,,,,,,,,,a,1,0.8149387000000843,,,,,,,,,,,,gjy,f,20,2024_Apr_10_1102,mian,2021.2.3,60.113132916122204,
H2,1,2,H,a,"[-0.2, 0.2]",,,,,,,,,,,,,,,,0,49,49,49,,,,,,,,,,,,,,,,,,,,,a,1,0.469973600000003,,,,,,,,,,,,gjy,f,20,2024_Apr_10_1102,mian,2021.2.3,60.113132916122204,
e9,2,1,9.0,a,"[-0.2, -0.2]",,,,,,,,,,,,,,,,0,50,50,50,,,,,,,,,,,,,,,,,,,,,a,1,0.7145304000000579,,,,,,,,,,,,gjy,f,20,2024_Apr_10_1102,mian,2021.2.3,60.113132916122204,
2G,2,2,2.0,l,"[0.2, -0.2]",,,,,,,,,,,,,,,,0,51,51,51,,,,,,,,,,,,,,,,,,,,,l,1,0.5821660999999949,,,,,,,,,,,,gjy,f,20,2024_Apr_10_1102,mian,2021.2.3,60.113132916122204,
4f,1,1,f,l,"[0.2, 0.2]",,,,,,,,,,,,,,,,0,52,52,52,,,,,,,,,,,,,,,,,,,,,l,1,0.8517851000001428,,,,,,,,,,,,gjy,f,20,2024_Apr_10_1102,mian,2021.2.3,60.113132916122204,
H6,1,2,H,a,"[-0.2, 0.2]",,,,,,,,,,,,,,,,0,53,53,53,,,,,,,,,,,,,,,,,,,,,a,1,1.0057675000000472,,,,,,,,,,,,gjy,f,20,2024_Apr_10_1102,mian,2021.2.3,60.113132916122204,
A4,2,1,4.0,l,"[-0.2, -0.2]",,,,,,,,,,,,,,,,0,54,54,54,,,,,,,,,,,,,,,,,,,,,l,1,1.142135000000053,,,,,,,,,,,,gjy,f,20,2024_Apr_10_1102,mian,2021.2.3,60.113132916122204,
3F,2,2,3.0,a,"[0.2, -0.2]",,,,,,,,,,,,,,,,0,55,55,55,,,,,,,,,,,,,,,,,,,,,a,1,1.2110592000001361,,,,,,,,,,,,gjy,f,20,2024_Apr_10_1102,mian,2021.2.3,60.113132916122204,
7e,1,1,e,l,"[0.2, 0.2]",,,,,,,,,,,,,,,,0,56,56,56,,,,,,,,,,,,,,,,,,,,,l,1,0.6132730000001629,,,,,,,,,,,,gjy,f,20,2024_Apr_10_1102,mian,2021.2.3,60.113132916122204,
F9,1,2,F,a,"[-0.2, 0.2]",,,,,,,,,,,,,,,,0,57,57,57,,,,,,,,,,,,,,,,,,,,,a,1,0.9839348999998947,,,,,,,,,,,,gjy,f,20,2024_Apr_10_1102,mian,2021.2.3,60.113132916122204,
e2,2,1,2.0,l,"[-0.2, -0.2]",,,,,,,,,,,,,,,,0,58,58,58,,,,,,,,,,,,,,,,,,,,,l,1,0.7823424999999133,,,,,,,,,,,,gjy,f,20,2024_Apr_10_1102,mian,2021.2.3,60.113132916122204,
5F,2,2,5.0,a,"[0.2, -0.2]",,,,,,,,,,,,,,,,0,59,59,59,,,,,,,,,,,,,,,,,,,,,a,1,0.49450789999991684,,,,,,,,,,,,gjy,f,20,2024_Apr_10_1102,mian,2021.2.3,60.113132916122204,
f6,1,1,f,l,"[0.2, 0.2]",,,,,,,,,,,,,,,,0,60,60,60,,,,,,,,,,,,,,,,,,,,,l,1,0.5796037000000069,,,,,,,,,,,,gjy,f,20,2024_Apr_10_1102,mian,2021.2.3,60.113132916122204,
7G,1,2,G,a,"[-0.2, 0.2]",,,,,,,,,,,,,,,,0,61,61,61,,,,,,,,,,,,,,,,,,,,,a,1,1.1354937999999493,,,,,,,,,,,,gjy,f,20,2024_Apr_10_1102,mian,2021.2.3,60.113132916122204,
e6,2,1,6.0,l,"[-0.2, -0.2]",,,,,,,,,,,,,,,,0,62,62,62,,,,,,,,,,,,,,,,,,,,,l,1,0.5495736000000306,,,,,,,,,,,,gjy,f,20,2024_Apr_10_1102,mian,2021.2.3,60.113132916122204,
3G,2,2,3.0,a,"[0.2, -0.2]",,,,,,,,,,,,,,,,0,63,63,63,,,,,,,,,,,,,,,,,,,,,a,1,1.052419699999973,,,,,,,,,,,,gjy,f,20,2024_Apr_10_1102,mian,2021.2.3,60.113132916122204,
5E,1,1,E,a,"[0.2, 0.2]",,,,,,,,,,,,,,,,0,64,64,64,,,,,,,,,,,,,,,,,,,,,a,1,0.5300886999998511,,,,,,,,,,,,gjy,f,20,2024_Apr_10_1102,mian,2021.2.3,60.113132916122204,
A6,1,2,A,a,"[-0.2, 0.2]",,,,,,,,,,,,,,,,0,65,65,65,,,,,,,,,,,,,,,,,,,,,a,1,0.5074412999999822,,,,,,,,,,,,gjy,f,20,2024_Apr_10_1102,mian,2021.2.3,60.113132916122204,
E3,2,1,3.0,a,"[-0.2, -0.2]",,,,,,,,,,,,,,,,0,66,66,66,,,,,,,,,,,,,,,,,,,,,a,1,0.7586266999999225,,,,,,,,,,,,gjy,f,20,2024_Apr_10_1102,mian,2021.2.3,60.113132916122204,
2f,2,2,2.0,l,"[0.2, -0.2]",,,,,,,,,,,,,,,,0,67,67,67,,,,,,,,,,,,,,,,,,,,,l,1,0.8391622999999981,,,,,,,,,,,,gjy,f,20,2024_Apr_10_1102,mian,2021.2.3,60.113132916122204,
g3,1,1,g,l,"[0.2, 0.2]",,,,,,,,,,,,,,,,0,68,68,68,,,,,,,,,,,,,,,,,,,,,a,0,0.659163000000035,,,,,,,,,,,,gjy,f,20,2024_Apr_10_1102,mian,2021.2.3,60.113132916122204,
E8,1,2,E,a,"[-0.2, 0.2]",,,,,,,,,,,,,,,,0,69,69,69,,,,,,,,,,,,,,,,,,,,,a,1,0.6544972000001508,,,,,,,,,,,,gjy,f,20,2024_Apr_10_1102,mian,2021.2.3,60.113132916122204,
6g,2,1,6.0,l,"[-0.2, -0.2]",,,,,,,,,,,,,,,,0,70,70,70,,,,,,,,,,,,,,,,,,,,,l,1,0.9599190000001272,,,,,,,,,,,,gjy,f,20,2024_Apr_10_1102,mian,2021.2.3,60.113132916122204,
5H,2,2,5.0,a,"[0.2, -0.2]",,,,,,,,,,,,,,,,0,71,71,71,,,,,,,,,,,,,,,,,,,,,a,1,1.422311000000036,,,,,,,,,,,,gjy,f,20,2024_Apr_10_1102,mian,2021.2.3,60.113132916122204,
4A,1,1,A,a,"[0.2, 0.2]",,,,,,,,,,,,,,,,0,72,72,72,,,,,,,,,,,,,,,,,,,,,a,1,1.0247094999999717,,,,,,,,,,,,gjy,f,20,2024_Apr_10_1102,mian,2021.2.3,60.113132916122204,
7F,1,2,F,a,"[-0.2, 0.2]",,,,,,,,,,,,,,,,0,73,73,73,,,,,,,,,,,,,,,,,,,,,a,1,0.545480500000167,,,,,,,,,,,,gjy,f,20,2024_Apr_10_1102,mian,2021.2.3,60.113132916122204,
6H,2,1,6.0,l,"[-0.2, -0.2]",,,,,,,,,,,,,,,,0,74,74,74,,,,,,,,,,,,,,,,,,,,,l,1,2.0490023999998357,,,,,,,,,,,,gjy,f,20,2024_Apr_10_1102,mian,2021.2.3,60.113132916122204,
3a,2,2,3.0,a,"[0.2, -0.2]",,,,,,,,,,,,,,,,0,75,75,75,,,,,,,,,,,,,,,,,,,,,a,1,1.6313666000000921,,,,,,,,,,,,gjy,f,20,2024_Apr_10_1102,mian,2021.2.3,60.113132916122204,
9F,1,1,F,a,"[0.2, 0.2]",,,,,,,,,,,,,,,,0,76,76,76,,,,,,,,,,,,,,,,,,,,,a,1,0.5618465999998534,,,,,,,,,,,,gjy,f,20,2024_Apr_10_1102,mian,2021.2.3,60.113132916122204,
G7,1,2,G,a,"[-0.2, 0.2]",,,,,,,,,,,,,,,,0,77,77,77,,,,,,,,,,,,,,,,,,,,,a,1,0.7045693000000028,,,,,,,,,,,,gjy,f,20,2024_Apr_10_1102,mian,2021.2.3,60.113132916122204,
a6,2,1,6.0,l,"[-0.2, -0.2]",,,,,,,,,,,,,,,,0,78,78,78,,,,,,,,,,,,,,,,,,,,,l,1,1.3114433999999164,,,,,,,,,,,,gjy,f,20,2024_Apr_10_1102,mian,2021.2.3,60.113132916122204,
4h,2,2,4.0,l,"[0.2, -0.2]",,,,,,,,,,,,,,,,0,79,79,79,,,,,,,,,,,,,,,,,,,,,l,1,0.6415421000001515,,,,,,,,,,,,gjy,f,20,2024_Apr_10_1102,mian,2021.2.3,60.113132916122204,
6A,1,1,A,a,"[0.2, 0.2]",,,,,,,,,,,,,,,,,,,,0,0,0,0,,,,,,,,,,,,,,,,,a,1,0.802668100000119,,,,,,,,,,,,gjy,f,20,2024_Apr_10_1102,mian,2021.2.3,60.113132916122204,
4H,1,2,H,a,"[-0.2, 0.2]",,,,,,,,,,,,,,,,,,,,0,1,1,1,,,,,,,,,,,,,,,,,a,1,0.8363203000001249,,,,,,,,,,,,gjy,f,20,2024_Apr_10_1102,mian,2021.2.3,60.113132916122204,
3H,2,1,3.0,a,"[-0.2, -0.2]",,,,,,,,,,,,,,,,,,,,0,2,2,2,,,,,,,,,,,,,,,,,a,1,0.5463698999999451,,,,,,,,,,,,gjy,f,20,2024_Apr_10_1102,mian,2021.2.3,60.113132916122204,
a9,2,2,9.0,a,"[0.2, -0.2]",,,,,,,,,,,,,,,,,,,,0,3,3,3,,,,,,,,,,,,,,,,,a,1,0.6339388999999755,,,,,,,,,,,,gjy,f,20,2024_Apr_10_1102,mian,2021.2.3,60.113132916122204,
E7,1,1,E,a,"[0.2, 0.2]",,,,,,,,,,,,,,,,,,,,0,4,4,4,,,,,,,,,,,,,,,,,a,1,0.5443343999997978,,,,,,,,,,,,gjy,f,20,2024_Apr_10_1102,mian,2021.2.3,60.113132916122204,
6h,1,2,h,l,"[-0.2, 0.2]",,,,,,,,,,,,,,,,,,,,0,5,5,5,,,,,,,,,,,,,,,,,l,1,0.46137530000009974,,,,,,,,,,,,gjy,f,20,2024_Apr_10_1102,mian,2021.2.3,60.113132916122204,
8A,2,1,8.0,l,"[-0.2, -0.2]",,,,,,,,,,,,,,,,,,,,0,6,6,6,,,,,,,,,,,,,,,,,l,1,0.6020605999999589,,,,,,,,,,,,gjy,f,20,2024_Apr_10_1102,mian,2021.2.3,60.113132916122204,
f5,2,2,5.0,a,"[0.2, -0.2]",,,,,,,,,,,,,,,,,,,,0,7,7,7,,,,,,,,,,,,,,,,,a,1,0.4805139000000054,,,,,,,,,,,,gjy,f,20,2024_Apr_10_1102,mian,2021.2.3,60.113132916122204,
2a,1,1,a,l,"[0.2, 0.2]",,,,,,,,,,,,,,,,,,,,0,8,8,8,,,,,,,,,,,,,,,,,l,1,0.5553135000000111,,,,,,,,,,,,gjy,f,20,2024_Apr_10_1102,mian,2021.2.3,60.113132916122204,
F7,1,2,F,a,"[-0.2, 0.2]",,,,,,,,,,,,,,,,,,,,0,9,9,9,,,,,,,,,,,,,,,,,a,1,0.472686000000067,,,,,,,,,,,,gjy,f,20,2024_Apr_10_1102,mian,2021.2.3,60.113132916122204,
h2,2,1,2.0,l,"[-0.2, -0.2]",,,,,,,,,,,,,,,,,,,,0,10,10,10,,,,,,,,,,,,,,,,,l,1,0.4706064999998034,,,,,,,,,,,,gjy,f,20,2024_Apr_10_1102,mian,2021.2.3,60.113132916122204,
F5,2,2,5.0,a,"[0.2, -0.2]",,,,,,,,,,,,,,,,,,,,0,11,11,11,,,,,,,,,,,,,,,,,a,1,0.4565287000000353,,,,,,,,,,,,gjy,f,20,2024_Apr_10_1102,mian,2021.2.3,60.113132916122204,
A9,1,1,A,a,"[0.2, 0.2]",,,,,,,,,,,,,,,,,,,,0,12,12,12,,,,,,,,,,,,,,,,,a,1,0.6036876000000575,,,,,,,,,,,,gjy,f,20,2024_Apr_10_1102,mian,2021.2.3,60.113132916122204,
3e,1,2,e,l,"[-0.2, 0.2]",,,,,,,,,,,,,,,,,,,,0,13,13,13,,,,,,,,,,,,,,,,,l,1,0.4312087999999221,,,,,,,,,,,,gjy,f,20,2024_Apr_10_1102,mian,2021.2.3,60.113132916122204,
f8,2,1,8.0,l,"[-0.2, -0.2]",,,,,,,,,,,,,,,,,,,,0,14,14,14,,,,,,,,,,,,,,,,,l,1,0.54479809999998,,,,,,,,,,,,gjy,f,20,2024_Apr_10_1102,mian,2021.2.3,60.113132916122204,
G2,2,2,2.0,l,"[0.2, -0.2]",,,,,,,,,,,,,,,,,,,,0,15,15,15,,,,,,,,,,,,,,,,,l,1,0.9539890000000923,,,,,,,,,,,,gjy,f,20,2024_Apr_10_1102,mian,2021.2.3,60.113132916122204,
F2,1,1,F,a,"[0.2, 0.2]",,,,,,,,,,,,,,,,,,,,0,16,16,16,,,,,,,,,,,,,,,,,a,1,0.7016121999999996,,,,,,,,,,,,gjy,f,20,2024_Apr_10_1102,mian,2021.2.3,60.113132916122204,
5e,1,2,e,l,"[-0.2, 0.2]",,,,,,,,,,,,,,,,,,,,0,17,17,17,,,,,,,,,,,,,,,,,l,1,0.9265221000000565,,,,,,,,,,,,gjy,f,20,2024_Apr_10_1102,mian,2021.2.3,60.113132916122204,
A3,2,1,3.0,a,"[-0.2, -0.2]",,,,,,,,,,,,,,,,,,,,0,18,18,18,,,,,,,,,,,,,,,,,a,1,1.0284362999998393,,,,,,,,,,,,gjy,f,20,2024_Apr_10_1102,mian,2021.2.3,60.113132916122204,
4g,2,2,4.0,l,"[0.2, -0.2]",,,,,,,,,,,,,,,,,,,,0,19,19,19,,,,,,,,,,,,,,,,,l,1,0.5712290999999823,,,,,,,,,,,,gjy,f,20,2024_Apr_10_1102,mian,2021.2.3,60.113132916122204,
h7,1,1,h,l,"[0.2, 0.2]",,,,,,,,,,,,,,,,,,,,0,20,20,20,,,,,,,,,,,,,,,,,l,1,1.1638131999998222,,,,,,,,,,,,gjy,f,20,2024_Apr_10_1102,mian,2021.2.3,60.113132916122204,
3g,1,2,g,l,"[-0.2, 0.2]",,,,,,,,,,,,,,,,,,,,0,21,21,21,,,,,,,,,,,,,,,,,l,1,0.5890984000000117,,,,,,,,,,,,gjy,f,20,2024_Apr_10_1102,mian,2021.2.3,60.113132916122204,
8a,2,1,8.0,l,"[-0.2, -0.2]",,,,,,,,,,,,,,,,,,,,0,22,22,22,,,,,,,,,,,,,,,,,l,1,0.5473884999998972,,,,,,,,,,,,gjy,f,20,2024_Apr_10_1102,mian,2021.2.3,60.113132916122204,
4E,2,2,4.0,l,"[0.2, -0.2]",,,,,,,,,,,,,,,,,,,,0,23,23,23,,,,,,,,,,,,,,,,,l,1,0.6033093000000918,,,,,,,,,,,,gjy,f,20,2024_Apr_10_1102,mian,2021.2.3,60.113132916122204,
E5,1,1,E,a,"[0.2, 0.2]",,,,,,,,,,,,,,,,,,,,0,24,24,24,,,,,,,,,,,,,,,,,a,1,0.5854636999999911,,,,,,,,,,,,gjy,f,20,2024_Apr_10_1102,mian,2021.2.3,60.113132916122204,
g6,1,2,g,l,"[-0.2, 0.2]",,,,,,,,,,,,,,,,,,,,0,25,25,25,,,,,,,,,,,,,,,,,l,1,0.48705279999990125,,,,,,,,,,,,gjy,f,20,2024_Apr_10_1102,mian,2021.2.3,60.113132916122204,
2e,2,1,2.0,l,"[-0.2, -0.2]",,,,,,,,,,,,,,,,,,,,0,26,26,26,,,,,,,,,,,,,,,,,l,1,0.610238900000013,,,,,,,,,,,,gjy,f,20,2024_Apr_10_1102,mian,2021.2.3,60.113132916122204,
h8,2,2,8.0,l,"[0.2, -0.2]",,,,,,,,,,,,,,,,,,,,0,27,27,27,,,,,,,,,,,,,,,,,l,1,0.6866962999999942,,,,,,,,,,,,gjy,f,20,2024_Apr_10_1102,mian,2021.2.3,60.113132916122204,
G6,1,1,G,a,"[0.2, 0.2]",,,,,,,,,,,,,,,,,,,,0,28,28,28,,,,,,,,,,,,,,,,,a,1,0.5017795999999635,,,,,,,,,,,,gjy,f,20,2024_Apr_10_1102,mian,2021.2.3,60.113132916122204,
a4,1,2,a,l,"[-0.2, 0.2]",,,,,,,,,,,,,,,,,,,,0,29,29,29,,,,,,,,,,,,,,,,,l,1,0.7288012999999864,,,,,,,,,,,,gjy,f,20,2024_Apr_10_1102,mian,2021.2.3,60.113132916122204,
9H,2,1,9.0,a,"[-0.2, -0.2]",,,,,,,,,,,,,,,,,,,,0,30,30,30,,,,,,,,,,,,,,,,,a,1,0.8111658999998781,,,,,,,,,,,,gjy,f,20,2024_Apr_10_1102,mian,2021.2.3,60.113132916122204,
7H,2,2,7.0,a,"[0.2, -0.2]",,,,,,,,,,,,,,,,,,,,0,31,31,31,,,,,,,,,,,,,,,,,a,1,0.6638152999998965,,,,,,,,,,,,gjy,f,20,2024_Apr_10_1102,mian,2021.2.3,60.113132916122204,
9f,1,1,f,l,"[0.2, 0.2]",,,,,,,,,,,,,,,,,,,,0,32,32,32,,,,,,,,,,,,,,,,,a,0,0.8453055999998469,,,,,,,,,,,,gjy,f,20,2024_Apr_10_1102,mian,2021.2.3,60.113132916122204,
8E,1,2,E,a,"[-0.2, 0.2]",,,,,,,,,,,,,,,,,,,,0,33,33,33,,,,,,,,,,,,,,,,,l,0,1.5534273999999186,,,,,,,,,,,,gjy,f,20,2024_Apr_10_1102,mian,2021.2.3,60.113132916122204,
A2,2,1,2.0,l,"[-0.2, -0.2]",,,,,,,,,,,,,,,,,,,,0,34,34,34,,,,,,,,,,,,,,,,,l,1,2.2317805000000135,,,,,,,,,,,,gjy,f,20,2024_Apr_10_1102,mian,2021.2.3,60.113132916122204,
H7,2,2,7.0,a,"[0.2, -0.2]",,,,,,,,,,,,,,,,,,,,0,35,35,35,,,,,,,,,,,,,,,,,a,1,0.5733970999999656,,,,,,,,,,,,gjy,f,20,2024_Apr_10_1102,mian,2021.2.3,60.113132916122204,
h9,1,1,h,l,"[0.2, 0.2]",,,,,,,,,,,,,,,,,,,,0,36,36,36,,,,,,,,,,,,,,,,,l,1,0.9175996999999825,,,,,,,,,,,,gjy,f,20,2024_Apr_10_1102,mian,2021.2.3,60.113132916122204,
8G,1,2,G,a,"[-0.2, 0.2]",,,,,,,,,,,,,,,,,,,,0,37,37,37,,,,,,,,,,,,,,,,,a,1,0.6458852000000661,,,,,,,,,,,,gjy,f,20,2024_Apr_10_1102,mian,2021.2.3,60.113132916122204,
H4,2,1,4.0,l,"[-0.2, -0.2]",,,,,,,,,,,,,,,,,,,,0,38,38,38,,,,,,,,,,,,,,,,,l,1,0.856491799999958,,,,,,,,,,,,gjy,f,20,2024_Apr_10_1102,mian,2021.2.3,60.113132916122204,
A8,2,2,8.0,l,"[0.2, -0.2]",,,,,,,,,,,,,,,,,,,,0,39,39,39,,,,,,,,,,,,,,,,,l,1,0.6432481000001644,,,,,,,,,,,,gjy,f,20,2024_Apr_10_1102,mian,2021.2.3,60.113132916122204,
g7,1,1,g,l,"[0.2, 0.2]",,,,,,,,,,,,,,,,,,,,0,40,40,40,,,,,,,,,,,,,,,,,l,1,1.7183939999999893,,,,,,,,,,,,gjy,f,20,2024_Apr_10_1102,mian,2021.2.3,60.113132916122204,
H9,1,2,H,a,"[-0.2, 0.2]",,,,,,,,,,,,,,,,,,,,0,41,41,41,,,,,,,,,,,,,,,,,a,1,1.3284951999999066,,,,,,,,,,,,gjy,f,20,2024_Apr_10_1102,mian,2021.2.3,60.113132916122204,
9E,2,1,9.0,a,"[-0.2, -0.2]",,,,,,,,,,,,,,,,,,,,0,42,42,42,,,,,,,,,,,,,,,,,a,1,1.3245002000001023,,,,,,,,,,,,gjy,f,20,2024_Apr_10_1102,mian,2021.2.3,60.113132916122204,
a5,2,2,5.0,a,"[0.2, -0.2]",,,,,,,,,,,,,,,,,,,,0,43,43,43,,,,,,,,,,,,,,,,,a,1,0.8106558000001769,,,,,,,,,,,,gjy,f,20,2024_Apr_10_1102,mian,2021.2.3,60.113132916122204,
3E,1,1,E,a,"[0.2, 0.2]",,,,,,,,,,,,,,,,,,,,0,44,44,44,,,,,,,,,,,,,,,,,a,1,1.9422134999999798,,,,,,,,,,,,gjy,f,20,2024_Apr_10_1102,mian,2021.2.3,60.113132916122204,
6f,1,2,f,l,"[-0.2, 0.2]",,,,,,,,,,,,,,,,,,,,0,45,45,45,,,,,,,,,,,,,,,,,l,1,0.5673603000000185,,,,,,,,,,,,gjy,f,20,2024_Apr_10_1102,mian,2021.2.3,60.113132916122204,
g8,2,1,8.0,l,"[-0.2, -0.2]",,,,,,,,,,,,,,,,,,,,0,46,46,46,,,,,,,,,,,,,,,,,l,1,0.6315233999998782,,,,,,,,,,,,gjy,f,20,2024_Apr_10_1102,mian,2021.2.3,60.113132916122204,
4F,2,2,4.0,l,"[0.2, -0.2]",,,,,,,,,,,,,,,,,,,,0,47,47,47,,,,,,,,,,,,,,,,,l,1,0.8660377999999582,,,,,,,,,,,,gjy,f,20,2024_Apr_10_1102,mian,2021.2.3,60.113132916122204,
4a,1,1,a,l,"[0.2, 0.2]",,,,,,,,,,,,,,,,,,,,0,48,48,48,,,,,,,,,,,,,,,,,l,1,0.9344535000000178,,,,,,,,,,,,gjy,f,20,2024_Apr_10_1102,mian,2021.2.3,60.113132916122204,
e3,1,2,e,l,"[-0.2, 0.2]",,,,,,,,,,,,,,,,,,,,0,49,49,49,,,,,,,,,,,,,,,,,l,1,1.2654803000000356,,,,,,,,,,,,gjy,f,20,2024_Apr_10_1102,mian,2021.2.3,60.113132916122204,
5g,2,1,5.0,a,"[-0.2, -0.2]",,,,,,,,,,,,,,,,,,,,0,50,50,50,,,,,,,,,,,,,,,,,a,1,0.9062145000000328,,,,,,,,,,,,gjy,f,20,2024_Apr_10_1102,mian,2021.2.3,60.113132916122204,
f4,2,2,4.0,l,"[0.2, -0.2]",,,,,,,,,,,,,,,,,,,,0,51,51,51,,,,,,,,,,,,,,,,,a,0,0.9129316999999446,,,,,,,,,,,,gjy,f,20,2024_Apr_10_1102,mian,2021.2.3,60.113132916122204,
6E,1,1,E,a,"[0.2, 0.2]",,,,,,,,,,,,,,,,,,,,0,52,52,52,,,,,,,,,,,,,,,,,a,1,1.4229104999999436,,,,,,,,,,,,gjy,f,20,2024_Apr_10_1102,mian,2021.2.3,60.113132916122204,
7A,1,2,A,a,"[-0.2, 0.2]",,,,,,,,,,,,,,,,,,,,0,53,53,53,,,,,,,,,,,,,,,,,a,1,0.5080448999999589,,,,,,,,,,,,gjy,f,20,2024_Apr_10_1102,mian,2021.2.3,60.113132916122204,
F4,2,1,4.0,l,"[-0.2, -0.2]",,,,,,,,,,,,,,,,,,,,0,54,54,54,,,,,,,,,,,,,,,,,l,1,0.976339100000132,,,,,,,,,,,,gjy,f,20,2024_Apr_10_1102,mian,2021.2.3,60.113132916122204,
2g,2,2,2.0,l,"[0.2, -0.2]",,,,,,,,,,,,,,,,,,,,0,55,55,55,,,,,,,,,,,,,,,,,l,1,0.675912500000095,,,,,,,,,,,,gjy,f,20,2024_Apr_10_1102,mian,2021.2.3,60.113132916122204,
7E,1,1,E,a,"[0.2, 0.2]",,,,,,,,,,,,,,,,,,,,0,56,56,56,,,,,,,,,,,,,,,,,a,1,0.509692399999949,,,,,,,,,,,,gjy,f,20,2024_Apr_10_1102,mian,2021.2.3,60.113132916122204,
G4,1,2,G,a,"[-0.2, 0.2]",,,,,,,,,,,,,,,,,,,,0,57,57,57,,,,,,,,,,,,,,,,,a,1,1.2173327999998946,,,,,,,,,,,,gjy,f,20,2024_Apr_10_1102,mian,2021.2.3,60.113132916122204,
2F,2,1,2.0,l,"[-0.2, -0.2]",,,,,,,,,,,,,,,,,,,,0,58,58,58,,,,,,,,,,,,,,,,,l,1,0.6863644999998542,,,,,,,,,,,,gjy,f,20,2024_Apr_10_1102,mian,2021.2.3,60.113132916122204,
E9,2,2,9.0,a,"[0.2, -0.2]",,,,,,,,,,,,,,,,,,,,0,59,59,59,,,,,,,,,,,,,,,,,a,1,0.550821299999825,,,,,,,,,,,,gjy,f,20,2024_Apr_10_1102,mian,2021.2.3,60.113132916122204,
5f,1,1,f,l,"[0.2, 0.2]",,,,,,,,,,,,,,,,,,,,0,60,60,60,,,,,,,,,,,,,,,,,l,1,1.0063310000000456,,,,,,,,,,,,gjy,f,20,2024_Apr_10_1102,mian,2021.2.3,60.113132916122204,
e7,1,2,e,l,"[-0.2, 0.2]",,,,,,,,,,,,,,,,,,,,0,61,61,61,,,,,,,,,,,,,,,,,a,0,1.254887300000064,,,,,,,,,,,,gjy,f,20,2024_Apr_10_1102,mian,2021.2.3,60.113132916122204,
f2,2,1,2.0,l,"[-0.2, -0.2]",,,,,,,,,,,,,,,,,,,,0,62,62,62,,,,,,,,,,,,,,,,,l,1,0.8613361000000168,,,,,,,,,,,,gjy,f,20,2024_Apr_10_1102,mian,2021.2.3,60.113132916122204,
G9,2,2,9.0,a,"[0.2, -0.2]",,,,,,,,,,,,,,,,,,,,0,63,63,63,,,,,,,,,,,,,,,,,a,1,1.611989099999846,,,,,,,,,,,,gjy,f,20,2024_Apr_10_1102,mian,2021.2.3,60.113132916122204,
7g,1,1,g,l,"[0.2, 0.2]",,,,,,,,,,,,,,,,,,,,0,64,64,64,,,,,,,,,,,,,,,,,l,1,1.290587000000187,,,,,,,,,,,,gjy,f,20,2024_Apr_10_1102,mian,2021.2.3,60.113132916122204,
F8,1,2,F,a,"[-0.2, 0.2]",,,,,,,,,,,,,,,,,,,,0,65,65,65,,,,,,,,,,,,,,,,,a,1,0.5996202999999696,,,,,,,,,,,,gjy,f,20,2024_Apr_10_1102,mian,2021.2.3,60.113132916122204,
A7,2,1,7.0,a,"[-0.2, -0.2]",,,,,,,,,,,,,,,,,,,,0,66,66,66,,,,,,,,,,,,,,,,,a,1,1.4796395999999277,,,,,,,,,,,,gjy,f,20,2024_Apr_10_1102,mian,2021.2.3,60.113132916122204,
4G,2,2,4.0,l,"[0.2, -0.2]",,,,,,,,,,,,,,,,,,,,0,67,67,67,,,,,,,,,,,,,,,,,l,1,0.544218199999932,,,,,,,,,,,,gjy,f,20,2024_Apr_10_1102,mian,2021.2.3,60.113132916122204,
g2,1,1,g,l,"[0.2, 0.2]",,,,,,,,,,,,,,,,,,,,0,68,68,68,,,,,,,,,,,,,,,,,l,1,1.0291908000001513,,,,,,,,,,,,gjy,f,20,2024_Apr_10_1102,mian,2021.2.3,60.113132916122204,
g4,1,2,g,l,"[-0.2, 0.2]",,,,,,,,,,,,,,,,,,,,0,69,69,69,,,,,,,,,,,,,,,,,l,1,0.4458924999998999,,,,,,,,,,,,gjy,f,20,2024_Apr_10_1102,mian,2021.2.3,60.113132916122204,
7a,2,1,7.0,a,"[-0.2, -0.2]",,,,,,,,,,,,,,,,,,,,0,70,70,70,,,,,,,,,,,,,,,,,a,1,0.5592260999999326,,,,,,,,,,,,gjy,f,20,2024_Apr_10_1102,mian,2021.2.3,60.113132916122204,
8e,2,2,8.0,l,"[0.2, -0.2]",,,,,,,,,,,,,,,,,,,,0,71,71,71,,,,,,,,,,,,,,,,,l,1,0.491180500000155,,,,,,,,,,,,gjy,f,20,2024_Apr_10_1102,mian,2021.2.3,60.113132916122204,
h4,1,1,h,l,"[0.2, 0.2]",,,,,,,,,,,,,,,,,,,,0,72,72,72,,,,,,,,,,,,,,,,,l,1,0.4895114000000831,,,,,,,,,,,,gjy,f,20,2024_Apr_10_1102,mian,2021.2.3,60.113132916122204,
G8,1,2,G,a,"[-0.2, 0.2]",,,,,,,,,,,,,,,,,,,,0,73,73,73,,,,,,,,,,,,,,,,,a,1,0.37074440000014874,,,,,,,,,,,,gjy,f,20,2024_Apr_10_1102,mian,2021.2.3,60.113132916122204,
6F,2,1,6.0,l,"[-0.2, -0.2]",,,,,,,,,,,,,,,,,,,,0,74,74,74,,,,,,,,,,,,,,,,,l,1,1.15878459999999,,,,,,,,,,,,gjy,f,20,2024_Apr_10_1102,mian,2021.2.3,60.113132916122204,
g5,2,2,5.0,a,"[0.2, -0.2]",,,,,,,,,,,,,,,,,,,,0,75,75,75,,,,,,,,,,,,,,,,,a,1,1.1578953000000638,,,,,,,,,,,,gjy,f,20,2024_Apr_10_1102,mian,2021.2.3,60.113132916122204,
G5,1,1,G,a,"[0.2, 0.2]",,,,,,,,,,,,,,,,,,,,0,76,76,76,,,,,,,,,,,,,,,,,a,1,0.6702845999998317,,,,,,,,,,,,gjy,f,20,2024_Apr_10_1102,mian,2021.2.3,60.113132916122204,
h5,1,2,h,l,"[-0.2, 0.2]",,,,,,,,,,,,,,,,,,,,0,77,77,77,,,,,,,,,,,,,,,,,l,1,0.51546089999988,,,,,,,,,,,,gjy,f,20,2024_Apr_10_1102,mian,2021.2.3,60.113132916122204,
9G,2,1,9.0,a,"[-0.2, -0.2]",,,,,,,,,,,,,,,,,,,,0,78,78,78,,,,,,,,,,,,,,,,,l,0,1.1134764000000814,,,,,,,,,,,,gjy,f,20,2024_Apr_10_1102,mian,2021.2.3,60.113132916122204,
F3,2,2,3.0,a,"[0.2, -0.2]",,,,,,,,,,,,,,,,,,,,0,79,79,79,,,,,,,,,,,,,,,,,a,1,0.6442406999999548,,,,,,,,,,,,gjy,f,20,2024_Apr_10_1102,mian,2021.2.3,60.113132916122204,
,,,,,,0,0,pic/flanker6.png,pic/flanker2.png,a,l,,,,,,,,,,,,,,,,,,0,0,0,0,0,0,0,1,,,,,,,,,,,,431.9299787,None,430.7208765999999,431.9299787,None,0,孤单,None,0,,,gjy,f,20,2024_Apr_10_1102,mian,2021.2.3,60.113132916122204,
,,,,,,1,0,pic/flanker5.png,pic/flanker3.png,a,l,,,,,,,,,,,,,,,,,,0,0,0,0,0,1,1,7,,,,,,,,,,,,437.67989369999987,None,436.4971837999999,437.69721159999995,None,0,罚款,l,1,1.1829428999999436,,gjy,f,20,2024_Apr_10_1102,mian,2021.2.3,60.113132916122204,
,,,,,,1,1,pic/flanker5.png,pic/flanker3.png,a,k,,,,,,,,,,,,,,,,,,0,0,0,0,0,2,2,4,,,,,,,,,,,,442.14726959999985,None,440.9639003,442.1640361,None,0,豪放,k,1,2.079426900000044,,gjy,f,20,2024_Apr_10_1102,mian,2021.2.3,60.113132916122204,
,,,,,,0,1,pic/flanker6.png,pic/flanker2.png,a,k,,,,,,,,,,,,,,,,,,0,0,0,0,0,3,3,2,,,,,,,,,,,,447.44723139999996,None,446.2634387999999,447.4639235999998,a,1,顽强,l,0,2.0912015000001247,1.2185157000001254,gjy,f,20,2024_Apr_10_1102,mian,2021.2.3,60.113132916122204,
,,,,,,1,0,pic/flanker6.png,pic/flanker4.png,s,l,,,,,,,,,,,,,,,,,,0,0,0,0,0,4,4,5,,,,,,,,,,,,452.6804245999999,None,451.49723189999986,452.6971448999998,s,1,伤心,l,1,1.347102599999971,0.6339221999999154,gjy,f,20,2024_Apr_10_1102,mian,2021.2.3,60.113132916122204,
,,,,,,0,0,pic/flanker5.png,pic/flanker1.png,s,l,,,,,,,,,,,,,,,,,,0,0,0,0,0,5,5,3,,,,,,,,,,,,456.7136192999999,None,455.53047819999983,456.7306498999999,s,1,嘲笑,l,1,0.8098725000002105,0.42077900000003865,gjy,f,20,2024_Apr_10_1102,mian,2021.2.3,60.113132916122204,
,,,,,,0,1,pic/flanker5.png,pic/flanker1.png,s,k,,,,,,,,,,,,,,,,,,0,0,0,0,0,6,6,0,,,,,,,,,,,,459.8140083999999,None,458.6306374999999,459.83068179999987,s,1,享受,k,1,0.980077700000038,0.3750915000000532,gjy,f,20,2024_Apr_10_1102,mian,2021.2.3,60.113132916122204,
,,,,,,1,1,pic/flanker6.png,pic/flanker4.png,s,k,,,,,,,,,,,,,,,,,,0,0,0,0,0,7,7,6,,,,,,,,,,,,463.1470754999998,None,461.96380209999984,463.16382309999995,s,1,精致,k,1,1.4949735000000146,0.5969780000000355,gjy,f,20,2024_Apr_10_1102,mian,2021.2.3,60.113132916122204,
,,,,,,,,,,,,,,,,,,,,,,,,,,,,,0,0,0,0,,,,,,,,,,,,,,,,,,,,,,,,,,,gjy,f,20,2024_Apr_10_1102,mian,2021.2.3,60.113132916122204,
,,,,,,0,0,pic/flanker5.png,pic/flanker1.png,s,l,,,,,,,,,,,,,,,,,,1,0,1,0,0,0,0,3,,,,,,,,,,,,508.5472642,None,507.3609884,508.56380089999993,s,1,缺乏,l,1,0.6001314000000093,0.22752600000012535,gjy,f,20,2024_Apr_10_1102,mian,2021.2.3,60.113132916122204,
,,,,,,1,1,pic/flanker6.png,pic/flanker4.png,s,k,,,,,,,,,,,,,,,,,,1,0,1,0,0,1,1,6,,,,,,,,,,,,511.2636405999997,None,510.08024209999985,511.28041029999986,a,0,富丽,l,0,0.7321815000000242,0.23916769999959797,gjy,f,20,2024_Apr_10_1102,mian,2021.2.3,60.113132916122204,
,,,,,,0,1,pic/flanker5.png,pic/flanker1.png,s,k,,,,,,,,,,,,,,,,,,1,0,1,0,0,2,2,0,,,,,,,,,,,,514.0971387,None,512.9139845,514.1138335,s,1,丰满,l,0,0.7118720000003123,0.2901468999998542,gjy,f,20,2024_Apr_10_1102,mian,2021.2.3,60.113132916122204,
,,,,,,0,1,pic/flanker6.png,pic/flanker2.png,a,k,,,,,,,,,,,,,,,,,,1,0,1,0,0,3,3,2,,,,,,,,,,,,517.1472785999999,None,515.9640506000001,517.1639095999999,a,1,珍藏,k,1,0.6121950000001561,0.37300320000031206,gjy,f,20,2024_Apr_10_1102,mian,2021.2.3,60.113132916122204,
,,,,,,1,1,pic/flanker5.png,pic/flanker3.png,a,k,,,,,,,,,,,,,,,,,,1,0,1,0,0,4,4,4,,,,,,,,,,,,520.0474273999998,None,518.8639733999998,520.0640942999999,s,0,留恋,k,1,1.3648802999996406,0.26434199999994235,gjy,f,20,2024_Apr_10_1102,mian,2021.2.3,60.113132916122204,
,,,,,,1,0,pic/flanker5.png,pic/flanker3.png,a,l,,,,,,,,,,,,,,,,,,1,0,1,0,0,5,5,7,,,,,,,,,,,,523.5471761999997,None,522.3640428999997,523.5639504999999,a,1,厌恶,l,1,0.7530761000002713,0.43004320000000007,gjy,f,20,2024_Apr_10_1102,mian,2021.2.3,60.113132916122204,
,,,,,,1,0,pic/flanker6.png,pic/flanker4.png,s,l,,,,,,,,,,,,,,,,,,1,0,1,0,0,6,6,5,,,,,,,,,,,,526.5805836999998,None,525.3973842,526.5972689999999,a,0,落后,l,1,0.7637871000001724,0.2506833000002189,gjy,f,20,2024_Apr_10_1102,mian,2021.2.3,60.113132916122204,
,,,,,,0,0,pic/flanker6.png,pic/flanker2.png,a,l,,,,,,,,,,,,,,,,,,1,0,1,0,0,7,7,1,,,,,,,,,,,,529.4639268000001,None,528.2806234,529.4806054000001,a,1,冷笑,l,1,0.7555608000002394,0.5636611999998422,gjy,f,20,2024_Apr_10_1102,mian,2021.2.3,60.113132916122204,
,,,,,,,,,,,,,,,,,,,,,,,,,,,,,1,0,1,0,,,,,,,,,,,,,,,,,,,,,,,,,,,gjy,f,20,2024_Apr_10_1102,mian,2021.2.3,60.113132916122204,
,,,,,,1,0,pic/flanker5.png,pic/flanker3.png,a,l,pic/AffRest1.png,,,,,,,,,,,,,,,,,,,,,,,,,0,0,0,0,0,0,0,47,,,,536.9972248999998,None,535.8003890999998,537.0137860999998,s,0,冷笑,l,1,0.8498690999999781,0.22564639999973224,gjy,f,20,2024_Apr_10_1102,mian,2021.2.3,60.113132916122204,
,,,,,,1,1,pic/flanker6.png,pic/flanker4.png,s,k,pic/AffRest1.png,,,,,,,,,,,,,,,,,,,,,,,,,0,0,0,0,0,1,1,6,,,,540.1307584000001,None,538.9472138000001,540.1469489000001,s,1,羡慕,k,1,0.8524449000001368,0.38233249999984764,gjy,f,20,2024_Apr_10_1102,mian,2021.2.3,60.113132916122204,
,,,,,,0,0,pic/flanker5.png,pic/flanker1.png,s,l,pic/AffRest1.png,,,,,,,,,,,,,,,,,,,,,,,,,0,0,0,0,0,2,2,19,,,,543.3974021999998,None,542.2139597999999,543.4140788,s,1,厌恶,l,1,0.6708215999997265,0.4459033000002819,gjy,f,20,2024_Apr_10_1102,mian,2021.2.3,60.113132916122204,
,,,,,,0,1,pic/flanker5.png,pic/flanker1.png,s,k,pic/AffRest1.png,,,,,,,,,,,,,,,,,,,,,,,,,0,0,0,0,0,3,3,0,,,,546.4307859999999,None,545.2471139999998,546.4474534000001,s,1,廉洁,k,1,0.6940437999996902,0.3873099000002185,gjy,f,20,2024_Apr_10_1102,mian,2021.2.3,60.113132916122204,
,,,,,,1,0,pic/flanker6.png,pic/flanker4.png,s,l,pic/AffRest1.png,,,,,,,,,,,,,,,,,,,,,,,,,0,0,0,0,0,4,4,21,,,,549.4141749,None,548.230438,549.4307678,a,0,杂乱,l,1,0.7943761000001359,0.24276030000009996,gjy,f,20,2024_Apr_10_1102,mian,2021.2.3,60.113132916122204,
,,,,,,0,1,pic/flanker5.png,pic/flanker1.png,s,k,pic/AffRest1.png,,,,,,,,,,,,,,,,,,,,,,,,,0,0,0,0,0,5,5,48,,,,552.464101,None,551.2805955999997,552.4807843999997,s,1,旺盛,k,1,0.6172209999999723,0.37597439999990456,gjy,f,20,2024_Apr_10_1102,mian,2021.2.3,60.113132916122204,
,,,,,,0,1,pic/flanker6.png,pic/flanker2.png,a,k,pic/AffRest1.png,,,,,,,,,,,,,,,,,,,,,,,,,0,0,0,0,0,6,6,66,,,,555.4474347,None,554.2639925999997,555.4641079999997,a,1,诚恳,k,1,0.624308800000108,0.483455099999901,gjy,f,20,2024_Apr_10_1102,mian,2021.2.3,60.113132916122204,
,,,,,,0,1,pic/flanker6.png,pic/flanker2.png,a,k,pic/AffRest1.png,,,,,,,,,,,,,,,,,,,,,,,,,0,0,0,0,0,7,7,58,,,,558.6306475000001,None,557.4472089000001,558.6473465999998,a,1,瑰丽,k,1,0.6474912999997287,0.5022587000003114,gjy,f,20,2024_Apr_10_1102,mian,2021.2.3,60.113132916122204,
,,,,,,1,0,pic/flanker6.png,pic/flanker4.png,s,l,pic/AffRest1.png,,,,,,,,,,,,,,,,,,,,,,,,,0,0,0,0,0,8,8,5,,,,561.7306186999999,None,560.5472512000001,561.7473772999997,s,1,罚款,l,1,0.5972547999999733,0.41584160000002157,gjy,f,20,2024_Apr_10_1102,mian,2021.2.3,60.113132916122204,
,,,,,,1,1,pic/flanker5.png,pic/flanker3.png,a,k,pic/AffRest1.png,,,,,,,,,,,,,,,,,,,,,,,,,0,0,0,0,0,9,9,44,,,,564.5637784,None,563.3806409999997,564.5804236999998,a,1,富足,k,1,0.9519210000003113,0.5291667000001326,gjy,f,20,2024_Apr_10_1102,mian,2021.2.3,60.113132916122204,
,,,,,,0,0,pic/flanker5.png,pic/flanker1.png,s,l,pic/AffRest1.png,,,,,,,,,,,,,,,,,,,,,,,,,0,0,0,0,0,10,10,35,,,,567.9472532999998,None,566.7639294999999,567.9641329000001,s,1,自卑,l,1,0.7028116000001319,0.3560064000002967,gjy,f,20,2024_Apr_10_1102,mian,2021.2.3,60.113132916122204,
,,,,,,1,1,pic/flanker5.png,pic/flanker3.png,a,k,pic/AffRest1.png,,,,,,,,,,,,,,,,,,,,,,,,,0,0,0,0,0,11,11,36,,,,571.0474608999998,None,569.8636776999997,571.0641836999998,a,1,吉祥,k,1,0.5277593999999226,0.4797902000000249,gjy,f,20,2024_Apr_10_1102,mian,2021.2.3,60.113132916122204,
,,,,,,1,0,pic/flanker5.png,pic/flanker3.png,a,l,pic/AffRest1.png,,,,,,,,,,,,,,,,,,,,,,,,,0,0,0,0,0,12,12,31,,,,574.0306479000001,None,572.8472902999997,574.0473376999998,a,1,鲁莽,l,1,0.6506131000001005,0.5701708999999937,gjy,f,20,2024_Apr_10_1102,mian,2021.2.3,60.113132916122204,
,,,,,,0,0,pic/flanker6.png,pic/flanker2.png,a,l,pic/AffRest1.png,,,,,,,,,,,,,,,,,,,,,,,,,0,0,0,0,0,13,13,9,,,,577.2808056999997,None,576.0972925000001,577.2969683000001,a,1,排斥,l,1,0.6565027999999984,0.46336939999991955,gjy,f,20,2024_Apr_10_1102,mian,2021.2.3,60.113132916122204,
,,,,,,0,0,pic/flanker6.png,pic/flanker2.png,a,l,pic/AffRest1.png,,,,,,,,,,,,,,,,,,,,,,,,,0,0,0,0,0,14,14,41,,,,580.4302093000001,None,579.2472930999998,580.4468610999998,a,1,沮丧,l,1,0.6190902000003007,0.45396700000037526,gjy,f,20,2024_Apr_10_1102,mian,2021.2.3,60.113132916122204,
,,,,,,1,1,pic/flanker6.png,pic/flanker4.png,s,k,pic/AffRest1.png,,,,,,,,,,,,,,,,,,,,,,,,,0,0,0,0,0,15,15,14,,,,583.4474587,None,582.2640028000001,583.4641161,s,1,热切,k,1,0.6110312000000704,0.414093899999898,gjy,f,20,2024_Apr_10_1102,mian,2021.2.3,60.113132916122204,
,,,,,,0,1,pic/flanker5.png,pic/flanker1.png,s,k,pic/AffRest1.png,,,,,,,,,,,,,,,,,,,,,,,,,0,0,0,0,0,16,16,16,,,,586.5305875999998,None,585.3467003000001,586.5472734,s,1,富丽,k,1,0.6278244000000086,0.36619740000014644,gjy,f,20,2024_Apr_10_1102,mian,2021.2.3,60.113132916122204,
,,,,,,1,1,pic/flanker6.png,pic/flanker4.png,s,k,pic/AffRest1.png,,,,,,,,,,,,,,,,,,,,,,,,,0,0,0,0,0,17,17,54,,,,589.3974736999999,None,588.2140994000001,589.4141273,s,1,俊秀,k,1,1.219390900000235,0.38271220000024186,gjy,f,20,2024_Apr_10_1102,mian,2021.2.3,60.113132916122204,
,,,,,,1,1,pic/flanker6.png,pic/flanker4.png,s,k,pic/AffRest1.png,,,,,,,,,,,,,,,,,,,,,,,,,0,0,0,0,0,18,18,46,,,,593.0307051,None,591.8472824,593.0475299999998,s,1,留恋,k,1,0.5673176999998759,0.4035236999998233,gjy,f,20,2024_Apr_10_1102,mian,2021.2.3,60.113132916122204,
,,,,,,1,1,pic/flanker6.png,pic/flanker4.png,s,k,pic/AffRest1.png,,,,,,,,,,,,,,,,,,,,,,,,,0,0,0,0,0,19,19,62,,,,595.9474528000001,None,594.7639813000001,595.9641701,s,1,豪放,k,1,0.8459550000002309,0.44369659999983924,gjy,f,20,2024_Apr_10_1102,mian,2021.2.3,60.113132916122204,
,,,,,,0,0,pic/flanker6.png,pic/flanker2.png,a,l,pic/AffRest1.png,,,,,,,,,,,,,,,,,,,,,,,,,0,0,0,0,0,20,20,25,,,,599.2139632999997,None,598.0306353000001,599.2306457999998,a,1,烦恼,l,1,0.6037694999999985,0.42426079999995636,gjy,f,20,2024_Apr_10_1102,mian,2021.2.3,60.113132916122204,
,,,,,,1,0,pic/flanker6.png,pic/flanker4.png,s,l,pic/AffRest1.png,,,,,,,,,,,,,,,,,,,,,,,,,0,0,0,0,0,21,21,13,,,,602.0966989999997,None,600.9134408999998,602.1134020999998,s,1,失意,l,1,0.8118703999998615,0.48241849999976694,gjy,f,20,2024_Apr_10_1102,mian,2021.2.3,60.113132916122204,
,,,,,,0,0,pic/flanker6.png,pic/flanker2.png,a,l,pic/AffRest1.png,,,,,,,,,,,,,,,,,,,,,,,,,0,0,0,0,0,22,22,73,,,,605.2968142,None,604.1137970999998,605.3140144999998,a,1,穷苦,l,1,0.6027791000001343,0.46694760000036695,gjy,f,20,2024_Apr_10_1102,mian,2021.2.3,60.113132916122204,
,,,,,,0,1,pic/flanker6.png,pic/flanker2.png,a,k,pic/AffRest1.png,,,,,,,,,,,,,,,,,,,,,,,,,0,0,0,0,0,23,23,42,,,,608.2308091999998,None,607.0473833000001,608.2474899999997,a,1,生动,k,1,0.5920946999999614,0.45141670000020895,gjy,f,20,2024_Apr_10_1102,mian,2021.2.3,60.113132916122204,
,,,,,,0,1,pic/flanker6.png,pic/flanker2.png,a,k,pic/AffRest1.png,,,,,,,,,,,,,,,,,,,,,,,,,0,0,0,0,0,24,24,50,,,,611.2967933999998,None,610.1136726999998,611.3139817000001,a,1,雄厚,k,1,0.6218982999998843,0.4043677999998181,gjy,f,20,2024_Apr_10_1102,mian,2021.2.3,60.113132916122204,
,,,,,,0,1,pic/flanker6.png,pic/flanker2.png,a,k,pic/AffRest1.png,,,,,,,,,,,,,,,,,,,,,,,,,0,0,0,0,0,25,25,2,,,,614.1641596,None,612.9804528,614.1808102999998,a,1,秀丽,k,1,0.5722919000004367,0.4460952000003999,gjy,f,20,2024_Apr_10_1102,mian,2021.2.3,60.113132916122204,
,,,,,,1,1,pic/flanker5.png,pic/flanker3.png,a,k,pic/AffRest1.png,,,,,,,,,,,,,,,,,,,,,,,,,0,0,0,0,0,26,26,52,,,,617.0805894,None,615.8972085,617.0972888000001,a,1,丰满,k,1,0.5714888999996219,0.43455470000026253,gjy,f,20,2024_Apr_10_1102,mian,2021.2.3,60.113132916122204,
,,,,,,1,1,pic/flanker5.png,pic/flanker3.png,a,k,pic/AffRest1.png,,,,,,,,,,,,,,,,,,,,,,,,,0,0,0,0,0,27,27,20,,,,620.0474537999999,None,618.8640866000001,620.0641591999997,a,1,正直,k,1,0.5857664000000113,0.4148152999996455,gjy,f,20,2024_Apr_10_1102,mian,2021.2.3,60.113132916122204,
,,,,,,0,0,pic/flanker6.png,pic/flanker2.png,a,l,pic/AffRest1.png,,,,,,,,,,,,,,,,,,,,,,,,,0,0,0,0,0,28,28,17,,,,623.1140864999998,None,621.9305251999999,623.1306455999998,a,1,忧虑,l,1,0.6598883000001479,0.4256555000001754,gjy,f,20,2024_Apr_10_1102,mian,2021.2.3,60.113132916122204,
,,,,,,1,0,pic/flanker5.png,pic/flanker3.png,a,l,pic/AffRest1.png,,,,,,,,,,,,,,,,,,,,,,,,,0,0,0,0,0,29,29,7,,,,626.1633296999998,None,624.9806392999999,626.1799633999999,a,1,郁闷,l,1,0.6507261000001563,0.4890765999998621,gjy,f,20,2024_Apr_10_1102,mian,2021.2.3,60.113132916122204,
,,,,,,1,1,pic/flanker6.png,pic/flanker4.png,s,k,pic/AffRest1.png,,,,,,,,,,,,,,,,,,,,,,,,,0,0,0,0,0,30,30,78,,,,629.1967087999997,None,628.013731,629.2137896999998,s,1,爽朗,k,1,0.5327438999997867,0.43074780000006285,gjy,f,20,2024_Apr_10_1102,mian,2021.2.3,60.113132916122204,
,,,,,,1,0,pic/flanker5.png,pic/flanker3.png,a,l,pic/AffRest1.png,,,,,,,,,,,,,,,,,,,,,,,,,0,0,0,0,0,31,31,39,,,,632.0968715999998,None,630.9139465999997,632.1139149,a,1,别扭,l,1,0.889238899999782,0.4165733999998338,gjy,f,20,2024_Apr_10_1102,mian,2021.2.3,60.113132916122204,
,,,,,,0,0,pic/flanker6.png,pic/flanker2.png,a,l,pic/AffRest1.png,,,,,,,,,,,,,,,,,,,,,,,,,0,0,0,0,0,32,32,65,,,,635.2805014999999,None,634.0969230000001,635.2970372,a,1,损害,l,1,0.6255436999999802,0.4111812999999529,gjy,f,20,2024_Apr_10_1102,mian,2021.2.3,60.113132916122204,
,,,,,,1,1,pic/flanker6.png,pic/flanker4.png,s,k,pic/AffRest1.png,,,,,,,,,,,,,,,,,,,,,,,,,0,0,0,0,0,33,33,22,,,,638.1973846000001,None,637.0138999999999,638.2140801,s,1,前进,k,1,0.5592345000000023,0.39951909999990676,gjy,f,20,2024_Apr_10_1102,mian,2021.2.3,60.113132916122204,
,,,,,,1,0,pic/flanker5.png,pic/flanker3.png,a,l,pic/AffRest1.png,,,,,,,,,,,,,,,,,,,,,,,,,0,0,0,0,0,34,34,63,,,,641.1139899999998,None,639.9307028999997,641.1304961999999,a,1,禁止,l,1,0.5954008000003341,0.48497580000002927,gjy,f,20,2024_Apr_10_1102,mian,2021.2.3,60.113132916122204,
,,,,,,1,0,pic/flanker5.png,pic/flanker3.png,a,l,pic/AffRest1.png,,,,,,,,,,,,,,,,,,,,,,,,,0,0,0,0,0,35,35,23,,,,644.1304866,None,642.946946,644.1468526999997,a,1,落后,l,1,0.7656569999999192,0.4965210999998817,gjy,f,20,2024_Apr_10_1102,mian,2021.2.3,60.113132916122204,
,,,,,,1,0,pic/flanker6.png,pic/flanker4.png,s,l,pic/AffRest1.png,,,,,,,,,,,,,,,,,,,,,,,,,0,0,0,0,0,36,36,29,,,,647.3639091,None,646.1805908000001,647.3806988000001,s,1,嘲笑,l,1,0.6520231999998032,0.5179282000003695,gjy,f,20,2024_Apr_10_1102,mian,2021.2.3,60.113132916122204,
,,,,,,0,0,pic/flanker5.png,pic/flanker1.png,s,l,pic/AffRest1.png,,,,,,,,,,,,,,,,,,,,,,,,,0,0,0,0,0,37,37,27,,,,650.4308619999997,None,649.2473461999998,650.4475104999997,s,1,轻率,l,1,0.7772089000000051,0.40267610000000786,gjy,f,20,2024_Apr_10_1102,mian,2021.2.3,60.113132916122204,
,,,,,,1,1,pic/flanker5.png,pic/flanker3.png,a,k,pic/AffRest1.png,,,,,,,,,,,,,,,,,,,,,,,,,0,0,0,0,0,38,38,60,,,,653.6809161000001,None,652.4968445999998,653.6968041,a,1,敬佩,k,1,0.5671612000001005,0.41252929999973276,gjy,f,20,2024_Apr_10_1102,mian,2021.2.3,60.113132916122204,
,,,,,,0,1,pic/flanker6.png,pic/flanker2.png,a,k,pic/AffRest1.png,,,,,,,,,,,,,,,,,,,,,,,,,0,0,0,0,0,39,39,18,,,,656.5975430999997,None,655.4139932999997,656.6141776999998,a,1,珍藏,k,1,0.5353787000003649,0.4566657000000305,gjy,f,20,2024_Apr_10_1102,mian,2021.2.3,60.113132916122204,
,,,,,,1,0,pic/flanker6.png,pic/flanker4.png,s,l,pic/AffRest1.png,,,,,,,,,,,,,,,,,,,,,,,,,0,0,0,0,0,40,40,53,,,,659.5307201,None,658.3474292999999,659.5472366999998,s,1,逃避,l,1,0.5439096000000063,0.470092300000033,gjy,f,20,2024_Apr_10_1102,mian,2021.2.3,60.113132916122204,
,,,,,,1,1,pic/flanker5.png,pic/flanker3.png,a,k,pic/AffRest1.png,,,,,,,,,,,,,,,,,,,,,,,,,0,0,0,0,0,41,41,76,,,,662.5474654999998,None,661.3640264000001,662.5640638999998,a,1,清秀,k,1,0.6452199000000292,0.47974459999977626,gjy,f,20,2024_Apr_10_1102,mian,2021.2.3,60.113132916122204,
,,,,,,0,0,pic/flanker5.png,pic/flanker1.png,s,l,pic/AffRest1.png,,,,,,,,,,,,,,,,,,,,,,,,,0,0,0,0,0,42,42,43,,,,665.6974038999997,None,664.5139758,665.7141134999997,s,1,焦躁,l,1,0.5491451000002598,0.4065394999997807,gjy,f,20,2024_Apr_10_1102,mian,2021.2.3,60.113132916122204,
,,,,,,1,1,pic/flanker5.png,pic/flanker3.png,a,k,pic/AffRest1.png,,,,,,,,,,,,,,,,,,,,,,,,,0,0,0,0,0,43,43,12,,,,668.6471945999997,None,667.4640445999999,668.6639869999999,a,1,奉献,k,1,0.6080993999999009,0.4682318000000123,gjy,f,20,2024_Apr_10_1102,mian,2021.2.3,60.113132916122204,
,,,,,,0,1,pic/flanker5.png,pic/flanker1.png,s,k,pic/AffRest1.png,,,,,,,,,,,,,,,,,,,,,,,,,0,0,0,0,0,44,44,24,,,,671.597546,None,670.4143973,671.6142397999997,s,1,充裕,k,1,0.6799045999996451,0.38266169999997146,gjy,f,20,2024_Apr_10_1102,mian,2021.2.3,60.113132916122204,
,,,,,,0,1,pic/flanker6.png,pic/flanker2.png,a,k,pic/AffRest1.png,,,,,,,,,,,,,,,,,,,,,,,,,0,0,0,0,0,45,45,10,,,,674.6640377999997,None,673.4806948,674.6807218999998,a,1,有利,k,1,0.6916380999996363,0.433171399999992,gjy,f,20,2024_Apr_10_1102,mian,2021.2.3,60.113132916122204,
,,,,,,0,1,pic/flanker5.png,pic/flanker1.png,s,k,pic/AffRest1.png,,,,,,,,,,,,,,,,,,,,,,,,,0,0,0,0,0,46,46,40,,,,677.6474592999998,None,676.4639610999998,677.6639735999997,s,1,圣洁,k,1,0.5654657999998562,0.34400600000026316,gjy,f,20,2024_Apr_10_1102,mian,2021.2.3,60.113132916122204,
,,,,,,0,0,pic/flanker5.png,pic/flanker1.png,s,l,pic/AffRest1.png,,,,,,,,,,,,,,,,,,,,,,,,,0,0,0,0,0,47,47,59,,,,680.4472139,None,679.2641005,680.4639142999999,s,1,处罚,l,1,0.6138225999998213,0.40911199999982273,gjy,f,20,2024_Apr_10_1102,mian,2021.2.3,60.113132916122204,
,,,,,,1,1,pic/flanker5.png,pic/flanker3.png,a,k,pic/AffRest1.png,,,,,,,,,,,,,,,,,,,,,,,,,0,0,0,0,0,48,48,4,,,,683.5142461,None,682.3308968000001,683.5309886,a,1,典雅,k,1,0.560018300000138,0.41512760000023263,gjy,f,20,2024_Apr_10_1102,mian,2021.2.3,60.113132916122204,
,,,,,,1,1,pic/flanker6.png,pic/flanker4.png,s,k,pic/AffRest1.png,,,,,,,,,,,,,,,,,,,,,,,,,0,0,0,0,0,49,49,38,,,,686.3974644,None,685.2141268,686.4140327,s,1,公平,k,1,0.698021499999868,0.4409664999998313,gjy,f,20,2024_Apr_10_1102,mian,2021.2.3,60.113132916122204,
,,,,,,0,0,pic/flanker5.png,pic/flanker1.png,s,l,pic/AffRest1.png,,,,,,,,,,,,,,,,,,,,,,,,,0,0,0,0,0,50,50,3,,,,689.4305466000001,None,688.2469133999998,689.4471788999999,s,1,浪费,l,1,0.6910441999998511,0.36668550000013056,gjy,f,20,2024_Apr_10_1102,mian,2021.2.3,60.113132916122204,
,,,,,,1,0,pic/flanker6.png,pic/flanker4.png,s,l,pic/AffRest1.png,,,,,,,,,,,,,,,,,,,,,,,,,0,0,0,0,0,51,51,45,,,,692.4808072999999,None,691.2973763,692.4975007999997,s,1,缺乏,l,1,0.49666690000003655,0.4178753000001052,gjy,f,20,2024_Apr_10_1102,mian,2021.2.3,60.113132916122204,
,,,,,,1,1,pic/flanker6.png,pic/flanker4.png,s,k,pic/AffRest1.png,,,,,,,,,,,,,,,,,,,,,,,,,0,0,0,0,0,52,52,70,,,,695.2804682999999,None,694.0970886,695.2970882999998,s,1,享受,k,1,0.546416500000305,0.4659695999998803,gjy,f,20,2024_Apr_10_1102,mian,2021.2.3,60.113132916122204,
,,,,,,1,0,pic/flanker5.png,pic/flanker3.png,a,l,pic/AffRest1.png,,,,,,,,,,,,,,,,,,,,,,,,,0,0,0,0,0,53,53,15,,,,698.2805143999999,None,697.097158,698.2971665999999,a,1,怀疑,l,1,0.6730387000002338,0.5055772000000616,gjy,f,20,2024_Apr_10_1102,mian,2021.2.3,60.113132916122204,
,,,,,,0,0,pic/flanker5.png,pic/flanker1.png,s,l,pic/AffRest1.png,,,,,,,,,,,,,,,,,,,,,,,,,0,0,0,0,0,54,54,11,,,,701.4471942,None,700.2638416999998,701.4640111999997,s,1,懒惰,l,1,0.6346955000003618,0.43103530000007595,gjy,f,20,2024_Apr_10_1102,mian,2021.2.3,60.113132916122204,
,,,,,,0,1,pic/flanker5.png,pic/flanker1.png,s,k,pic/AffRest1.png,,,,,,,,,,,,,,,,,,,,,,,,,0,0,0,0,0,55,55,8,,,,704.3305805999998,None,703.1473462999998,704.3474010999998,s,1,振作,k,1,0.6036214000000655,0.34670850000020437,gjy,f,20,2024_Apr_10_1102,mian,2021.2.3,60.113132916122204,
,,,,,,0,0,pic/flanker6.png,pic/flanker2.png,a,l,pic/AffRest1.png,,,,,,,,,,,,,,,,,,,,,,,,,0,0,0,0,0,56,56,49,,,,707.3141747,None,706.1305005999998,707.3307377000001,a,1,消沉,l,1,0.516910999999709,0.3136034999997719,gjy,f,20,2024_Apr_10_1102,mian,2021.2.3,60.113132916122204,
,,,,,,0,0,pic/flanker6.png,pic/flanker2.png,a,l,pic/AffRest1.png,,,,,,,,,,,,,,,,,,,,,,,,,0,0,0,0,0,57,57,57,,,,710.0472065999998,None,708.8639201000001,710.0639511999998,a,1,假冒,l,1,0.705381799999941,0.3264336999995976,gjy,f,20,2024_Apr_10_1102,mian,2021.2.3,60.113132916122204,
,,,,,,0,1,pic/flanker5.png,pic/flanker1.png,s,k,pic/AffRest1.png,,,,,,,,,,,,,,,,,,,,,,,,,0,0,0,0,0,58,58,72,,,,713.0139040999998,None,711.8305307999999,713.0306071999998,s,1,永恒,k,1,0.5340694999999869,0.28411840000035227,gjy,f,20,2024_Apr_10_1102,mian,2021.2.3,60.113132916122204,
,,,,,,1,0,pic/flanker5.png,pic/flanker3.png,a,l,pic/AffRest1.png,,,,,,,,,,,,,,,,,,,,,,,,,0,0,0,0,0,59,59,71,,,,715.8139136999998,None,714.6305082999997,715.8305993999998,s,0,胡涂,l,1,0.9014753000001292,0.26317470000003595,gjy,f,20,2024_Apr_10_1102,mian,2021.2.3,60.113132916122204,
,,,,,,0,0,pic/flanker5.png,pic/flanker1.png,s,l,pic/AffRest1.png,,,,,,,,,,,,,,,,,,,,,,,,,0,0,0,0,0,60,60,51,,,,718.9641114000001,None,717.7805674000001,718.9807618,s,1,悲观,l,1,0.6936411000001499,0.33999889999995503,gjy,f,20,2024_Apr_10_1102,mian,2021.2.3,60.113132916122204,
,,,,,,1,1,pic/flanker6.png,pic/flanker4.png,s,k,pic/AffRest1.png,,,,,,,,,,,,,,,,,,,,,,,,,0,0,0,0,0,61,61,30,,,,721.897336,None,720.7141821,721.914072,s,1,舒畅,k,1,0.6604074000001674,0.44120999999995547,gjy,f,20,2024_Apr_10_1102,mian,2021.2.3,60.113132916122204,
,,,,,,0,1,pic/flanker5.png,pic/flanker1.png,s,k,pic/AffRest1.png,,,,,,,,,,,,,,,,,,,,,,,,,0,0,0,0,0,62,62,56,,,,724.8639079999998,None,723.6806154000001,724.8805735000001,s,1,赞成,k,1,0.5920372999999017,0.35696409999991374,gjy,f,20,2024_Apr_10_1102,mian,2021.2.3,60.113132916122204,
,,,,,,0,0,pic/flanker6.png,pic/flanker2.png,a,l,pic/AffRest1.png,,,,,,,,,,,,,,,,,,,,,,,,,0,0,0,0,0,63,63,1,,,,727.7642640999998,None,726.5807959999997,727.7810506000001,a,1,堵塞,l,1,0.5987430000000131,0.3504988999998204,gjy,f,20,2024_Apr_10_1102,mian,2021.2.3,60.113132916122204,
,,,,,,0,0,pic/flanker5.png,pic/flanker1.png,s,l,pic/AffRest1.png,,,,,,,,,,,,,,,,,,,,,,,,,0,0,0,0,0,64,64,75,,,,730.6475458999998,None,729.4638215999998,730.6641952,s,1,孤单,l,1,0.62249649999967,0.332933800000319,gjy,f,20,2024_Apr_10_1102,mian,2021.2.3,60.113132916122204,
,,,,,,0,0,pic/flanker5.png,pic/flanker1.png,s,l,pic/AffRest1.png,,,,,,,,,,,,,,,,,,,,,,,,,0,0,0,0,0,65,65,67,,,,733.5305647,None,732.3473906999998,733.5472543000001,s,1,黑暗,l,1,0.6008288999996694,0.41204100000004473,gjy,f,20,2024_Apr_10_1102,mian,2021.2.3,60.113132916122204,
,,,,,,0,1,pic/flanker6.png,pic/flanker2.png,a,k,pic/AffRest1.png,,,,,,,,,,,,,,,,,,,,,,,,,0,0,0,0,0,66,66,34,,,,736.51341,None,735.3307670999998,736.5300422999999,a,1,顽强,k,1,0.5820856999998796,0.38347780000003695,gjy,f,20,2024_Apr_10_1102,mian,2021.2.3,60.113132916122204,
,,,,,,0,1,pic/flanker6.png,pic/flanker2.png,a,k,pic/AffRest1.png,,,,,,,,,,,,,,,,,,,,,,,,,0,0,0,0,0,67,67,26,,,,739.5472593999998,None,738.3638542999997,739.5639010999998,a,1,如愿,k,1,0.5777155000000675,0.3456274999998641,gjy,f,20,2024_Apr_10_1102,mian,2021.2.3,60.113132916122204,
,,,,,,0,0,pic/flanker6.png,pic/flanker2.png,a,l,pic/AffRest1.png,,,,,,,,,,,,,,,,,,,,,,,,,0,0,0,0,0,68,68,33,,,,742.2973177999997,None,741.1141361999998,742.3138958999998,a,1,伤心,l,1,0.5821081999997659,0.34748679999984233,gjy,f,20,2024_Apr_10_1102,mian,2021.2.3,60.113132916122204,
,,,,,,1,0,pic/flanker6.png,pic/flanker4.png,s,l,pic/AffRest1.png,,,,,,,,,,,,,,,,,,,,,,,,,0,0,0,0,0,69,69,37,,,,745.0305768999997,None,743.8471912,745.0472535999997,s,1,慌忙,l,1,0.8083771000001434,0.44078750000016953,gjy,f,20,2024_Apr_10_1102,mian,2021.2.3,60.113132916122204,
,,,,,,1,0,pic/flanker5.png,pic/flanker3.png,a,l,pic/AffRest1.png,,,,,,,,,,,,,,,,,,,,,,,,,0,0,0,0,0,70,70,55,,,,748.1305701000001,None,746.9471490000001,748.1472134999999,a,1,撒谎,l,1,0.4966807999999219,0.42540720000033616,gjy,f,20,2024_Apr_10_1102,mian,2021.2.3,60.113132916122204,
,,,,,,1,0,pic/flanker5.png,pic/flanker3.png,a,l,pic/AffRest1.png,,,,,,,,,,,,,,,,,,,,,,,,,0,0,0,0,0,71,71,79,,,,750.8967751999999,None,749.7132229999997,750.9134779000001,a,1,心慌,l,1,0.6242522000002282,0.4800555000001623,gjy,f,20,2024_Apr_10_1102,mian,2021.2.3,60.113132916122204,
,,,,,,1,0,pic/flanker6.png,pic/flanker4.png,s,l,pic/AffRest1.png,,,,,,,,,,,,,,,,,,,,,,,,,0,0,0,0,0,72,72,61,,,,753.8141661,None,752.6307025000001,753.8309859999999,s,1,闷热,l,1,0.5323311000001922,0.4552437000002101,gjy,f,20,2024_Apr_10_1102,mian,2021.2.3,60.113132916122204,
,,,,,,1,1,pic/flanker5.png,pic/flanker3.png,a,k,pic/AffRest1.png,,,,,,,,,,,,,,,,,,,,,,,,,0,0,0,0,0,73,73,28,,,,756.7806032999997,None,755.5971903999998,756.7975169000001,a,1,卓越,k,1,0.6253501000001052,0.4301765999998679,gjy,f,20,2024_Apr_10_1102,mian,2021.2.3,60.113132916122204,
,,,,,,1,0,pic/flanker6.png,pic/flanker4.png,s,l,pic/AffRest1.png,,,,,,,,,,,,,,,,,,,,,,,,,0,0,0,0,0,74,74,69,,,,759.8305888999998,None,758.6472057000001,759.8472087999999,s,1,争吵,l,1,0.5937035000001742,0.42293149999977686,gjy,f,20,2024_Apr_10_1102,mian,2021.2.3,60.113132916122204,
,,,,,,1,1,pic/flanker5.png,pic/flanker3.png,a,k,pic/AffRest1.png,,,,,,,,,,,,,,,,,,,,,,,,,0,0,0,0,0,75,75,68,,,,762.7972439,None,761.6142341,762.8139123000001,a,1,优雅,k,1,0.549346499999956,0.43426099999987855,gjy,f,20,2024_Apr_10_1102,mian,2021.2.3,60.113132916122204,
,,,,,,1,0,pic/flanker6.png,pic/flanker4.png,s,l,pic/AffRest1.png,,,,,,,,,,,,,,,,,,,,,,,,,0,0,0,0,0,76,76,77,,,,765.6639258999999,None,764.4805499999998,765.680593,s,1,丢失,l,1,0.5228939000003265,0.4360962999999174,gjy,f,20,2024_Apr_10_1102,mian,2021.2.3,60.113132916122204,
,,,,,,0,1,pic/flanker6.png,pic/flanker2.png,a,k,pic/AffRest1.png,,,,,,,,,,,,,,,,,,,,,,,,,0,0,0,0,0,77,77,74,,,,768.6641442,None,767.4805154000001,768.6808311,a,1,精致,k,1,0.5379600000001119,0.4687782999999399,gjy,f,20,2024_Apr_10_1102,mian,2021.2.3,60.113132916122204,
,,,,,,0,1,pic/flanker5.png,pic/flanker1.png,s,k,pic/AffRest1.png,,,,,,,,,,,,,,,,,,,,,,,,,0,0,0,0,0,78,78,32,,,,771.6135285999999,None,770.4306378000001,771.6308273999998,s,1,鲜艳,k,1,0.4907868000000235,0.38509019999992233,gjy,f,20,2024_Apr_10_1102,mian,2021.2.3,60.113132916122204,
,,,,,,0,1,pic/flanker5.png,pic/flanker1.png,s,k,pic/AffRest1.png,,,,,,,,,,,,,,,,,,,,,,,,,0,0,0,0,0,79,79,64,,,,774.3306048,None,773.1472288999998,774.3472337999997,s,1,畅销,k,1,0.6234056999996938,0.3674858999997923,gjy,f,20,2024_Apr_10_1102,mian,2021.2.3,60.113132916122204,
,,,,,,,,,,,,pic/AffRest1.png,,,,,,,,,,,,,,,,,,,,,,,,,0,0,0,0,,,,,,,,,,,,,,,,,,,gjy,f,20,2024_Apr_10_1102,mian,2021.2.3,60.113132916122204,
,,,,,,1,0,pic/flanker5.png,pic/flanker3.png,a,l,pic/AffRest2.png,,,,,,,,,,,,,,,,,,,,,,,,,0,1,1,1,0,0,0,71,,,,796.2472050000001,None,795.052087,796.2638963999998,a,1,忧虑,l,1,0.5483730999999352,0.4498339000001579,gjy,f,20,2024_Apr_10_1102,mian,2021.2.3,60.113132916122204,
,,,,,,1,0,pic/flanker6.png,pic/flanker4.png,s,l,pic/AffRest2.png,,,,,,,,,,,,,,,,,,,,,,,,,0,1,1,1,0,1,1,45,,,,799.0973031999997,None,797.9139124999997,799.1139629999998,s,1,争吵,l,1,0.691877800000384,0.4130003000000215,gjy,f,20,2024_Apr_10_1102,mian,2021.2.3,60.113132916122204,
,,,,,,1,0,pic/flanker6.png,pic/flanker4.png,s,l,pic/AffRest2.png,,,,,,,,,,,,,,,,,,,,,,,,,0,1,1,1,0,2,2,77,,,,802.0301119000001,None,800.8472360000001,802.0467742000001,s,1,伤心,l,1,0.4976108999999269,0.4391849999997248,gjy,f,20,2024_Apr_10_1102,mian,2021.2.3,60.113132916122204,
,,,,,,0,1,pic/flanker6.png,pic/flanker2.png,a,k,pic/AffRest2.png,,,,,,,,,,,,,,,,,,,,,,,,,0,1,1,1,0,3,3,58,,,,804.9973114,None,803.8134194999998,805.0140191999999,a,1,敬佩,k,1,0.6280406000000767,0.40278570000009495,gjy,f,20,2024_Apr_10_1102,mian,2021.2.3,60.113132916122204,
,,,,,,1,1,pic/flanker6.png,pic/flanker4.png,s,k,pic/AffRest2.png,,,,,,,,,,,,,,,,,,,,,,,,,0,1,1,1,0,4,4,46,,,,807.9139442000001,None,806.7305922999999,807.9306474999998,s,1,豪放,k,1,0.5271568000002844,0.4788275999999314,gjy,f,20,2024_Apr_10_1102,mian,2021.2.3,60.113132916122204,
,,,,,,1,0,pic/flanker6.png,pic/flanker4.png,s,l,pic/AffRest2.png,,,,,,,,,,,,,,,,,,,,,,,,,0,1,1,1,0,5,5,69,,,,810.7805920000001,None,809.5972407999998,810.7972285999999,s,1,缺乏,l,1,0.4422030000000632,0.3943944999996347,gjy,f,20,2024_Apr_10_1102,mian,2021.2.3,60.113132916122204,
,,,,,,0,0,pic/flanker5.png,pic/flanker1.png,s,l,pic/AffRest2.png,,,,,,,,,,,,,,,,,,,,,,,,,0,1,1,1,0,6,6,67,,,,813.5973058,None,812.4138653,813.6133973999999,s,1,冷笑,l,1,0.5722484999996595,0.3196413999999095,gjy,f,20,2024_Apr_10_1102,mian,2021.2.3,60.113132916122204,
,,,,,,0,0,pic/flanker5.png,pic/flanker1.png,s,l,pic/AffRest2.png,,,,,,,,,,,,,,,,,,,,,,,,,0,1,1,1,0,7,7,43,,,,816.4806669999998,None,815.2973125999997,816.497363,s,1,鲁莽,l,1,0.6629115999999158,0.3763902999999118,gjy,f,20,2024_Apr_10_1102,mian,2021.2.3,60.113132916122204,
,,,,,,0,0,pic/flanker6.png,pic/flanker2.png,a,l,pic/AffRest2.png,,,,,,,,,,,,,,,,,,,,,,,,,0,1,1,1,0,8,8,65,,,,819.3470153999997,None,818.1634077999997,819.3636812,a,1,懒惰,l,1,0.536117799999829,0.37973209999972823,gjy,f,20,2024_Apr_10_1102,mian,2021.2.3,60.113132916122204,
,,,,,,1,0,pic/flanker6.png,pic/flanker4.png,s,l,pic/AffRest2.png,,,,,,,,,,,,,,,,,,,,,,,,,0,1,1,1,0,9,9,5,,,,822.2973563,None,821.113934,822.3140118000001,s,1,怀疑,l,1,0.6278417000003174,0.4220959999997831,gjy,f,20,2024_Apr_10_1102,mian,2021.2.3,60.113132916122204,
,,,,,,1,1,pic/flanker5.png,pic/flanker3.png,a,k,pic/AffRest2.png,,,,,,,,,,,,,,,,,,,,,,,,,0,1,1,1,0,10,10,12,,,,825.3134995,None,824.1305775999999,825.3301813999997,a,1,永恒,k,1,0.5871138000002247,0.4691115999999056,gjy,f,20,2024_Apr_10_1102,mian,2021.2.3,60.113132916122204,
,,,,,,0,0,pic/flanker5.png,pic/flanker1.png,s,l,pic/AffRest2.png,,,,,,,,,,,,,,,,,,,,,,,,,0,1,1,1,0,11,11,11,,,,828.2138043,None,827.0300477999999,828.2304414,s,1,落后,l,1,0.5389464999998381,0.393065100000058,gjy,f,20,2024_Apr_10_1102,mian,2021.2.3,60.113132916122204,
,,,,,,1,0,pic/flanker5.png,pic/flanker3.png,a,l,pic/AffRest2.png,,,,,,,,,,,,,,,,,,,,,,,,,0,1,1,1,0,12,12,39,,,,831.0806413,None,829.8972722999997,831.0973095999998,a,1,轻率,l,1,0.5890021000000161,0.49285490000011123,gjy,f,20,2024_Apr_10_1102,mian,2021.2.3,60.113132916122204,
,,,,,,0,1,pic/flanker6.png,pic/flanker2.png,a,k,pic/AffRest2.png,,,,,,,,,,,,,,,,,,,,,,,,,0,1,1,1,0,13,13,74,,,,834.0477182,None,832.8641738000001,834.0644001999999,a,1,如愿,k,1,0.598887200000263,0.34137539999983346,gjy,f,20,2024_Apr_10_1102,mian,2021.2.3,60.113132916122204,
,,,,,,0,0,pic/flanker6.png,pic/flanker2.png,a,l,pic/AffRest2.png,,,,,,,,,,,,,,,,,,,,,,,,,0,1,1,1,0,14,14,25,,,,836.9474486999998,None,835.7641952999998,836.9641941,a,1,闷热,l,1,0.6488193000000138,0.3556532000002335,gjy,f,20,2024_Apr_10_1102,mian,2021.2.3,60.113132916122204,
,,,,,,0,1,pic/flanker6.png,pic/flanker2.png,a,k,pic/AffRest2.png,,,,,,,,,,,,,,,,,,,,,,,,,0,1,1,1,0,15,15,2,,,,839.8976702999998,None,838.7138977,839.9142892999998,a,1,奉献,k,1,0.5253113999997368,0.3543926000002102,gjy,f,20,2024_Apr_10_1102,mian,2021.2.3,60.113132916122204,
,,,,,,1,0,pic/flanker6.png,pic/flanker4.png,s,l,pic/AffRest2.png,,,,,,,,,,,,,,,,,,,,,,,,,0,1,1,1,0,16,16,29,,,,842.8310821,None,841.6473756999999,842.8477235999999,s,1,禁止,l,1,0.5991166999997404,0.430040100000042,gjy,f,20,2024_Apr_10_1102,mian,2021.2.3,60.113132916122204,
,,,,,,1,1,pic/flanker6.png,pic/flanker4.png,s,k,pic/AffRest2.png,,,,,,,,,,,,,,,,,,,,,,,,,0,1,1,1,0,17,17,54,,,,845.6975440000001,None,844.5142805,845.7143332,s,1,振作,k,1,0.700042399999802,0.4394247999998697,gjy,f,20,2024_Apr_10_1102,mian,2021.2.3,60.113132916122204,
,,,,,,0,0,pic/flanker5.png,pic/flanker1.png,s,l,pic/AffRest2.png,,,,,,,,,,,,,,,,,,,,,,,,,0,1,1,1,0,18,18,59,,,,848.7808798000001,None,847.5975960999999,848.7976061999998,s,1,烦恼,l,1,0.5592084999998406,0.32817590000013297,gjy,f,20,2024_Apr_10_1102,mian,2021.2.3,60.113132916122204,
,,,,,,1,0,pic/flanker5.png,pic/flanker3.png,a,l,pic/AffRest2.png,,,,,,,,,,,,,,,,,,,,,,,,,0,1,1,1,0,19,19,47,,,,851.5641840999997,None,850.3809266999997,851.5807910999997,a,1,悲观,l,1,0.5508402999998907,0.432731700000204,gjy,f,20,2024_Apr_10_1102,mian,2021.2.3,60.113132916122204,
,,,,,,1,0,pic/flanker5.png,pic/flanker3.png,a,l,pic/AffRest2.png,,,,,,,,,,,,,,,,,,,,,,,,,0,1,1,1,0,20,20,79,,,,854.4308570999997,None,853.2475507999998,854.4475744000001,a,1,黑暗,l,1,0.7200167000000874,0.5751134000001912,gjy,f,20,2024_Apr_10_1102,mian,2021.2.3,60.113132916122204,
,,,,,,0,0,pic/flanker6.png,pic/flanker2.png,a,l,pic/AffRest2.png,,,,,,,,,,,,,,,,,,,,,,,,,0,1,1,1,0,21,21,1,,,,857.5808843999998,None,856.3975649999998,857.5975961999998,a,1,孤单,l,1,0.5526649999997062,0.3957604000001993,gjy,f,20,2024_Apr_10_1102,mian,2021.2.3,60.113132916122204,
,,,,,,0,1,pic/flanker5.png,pic/flanker1.png,s,k,pic/AffRest2.png,,,,,,,,,,,,,,,,,,,,,,,,,0,1,1,1,0,22,22,64,,,,860.4475843,None,859.2641789999998,860.4643031,s,1,生动,k,1,0.5753718999999364,0.24396029999979874,gjy,f,20,2024_Apr_10_1102,mian,2021.2.3,60.113132916122204,
,,,,,,1,0,pic/flanker5.png,pic/flanker3.png,a,l,pic/AffRest2.png,,,,,,,,,,,,,,,,,,,,,,,,,0,1,1,1,0,23,23,15,,,,863.2975784999999,None,862.1142239999999,863.3142610999998,a,1,穷苦,l,1,0.5366346999999223,0.46062819999997373,gjy,f,20,2024_Apr_10_1102,mian,2021.2.3,60.113132916122204,
,,,,,,1,1,pic/flanker6.png,pic/flanker4.png,s,k,pic/AffRest2.png,,,,,,,,,,,,,,,,,,,,,,,,,0,1,1,1,0,24,24,38,,,,866.2977649999998,None,865.1143996000001,866.3144291999997,s,1,丰满,k,1,0.651628200000232,0.42805249999992157,gjy,f,20,2024_Apr_10_1102,mian,2021.2.3,60.113132916122204,
,,,,,,0,0,pic/flanker5.png,pic/flanker1.png,s,l,pic/AffRest2.png,,,,,,,,,,,,,,,,,,,,,,,,,0,1,1,1,0,25,25,3,,,,869.4475517999999,None,868.2642351999998,869.4643519000001,s,1,堵塞,l,1,0.5884618999998565,0.5915991000001668,gjy,f,20,2024_Apr_10_1102,mian,2021.2.3,60.113132916122204,
,,,,,,0,1,pic/flanker6.png,pic/flanker2.png,a,k,pic/AffRest2.png,,,,,,,,,,,,,,,,,,,,,,,,,0,1,1,1,0,26,26,50,,,,872.6809568999997,None,871.4975211999999,872.6976074999998,a,1,充裕,k,1,0.6546370000000934,0.36296549999997296,gjy,f,20,2024_Apr_10_1102,mian,2021.2.3,60.113132916122204,
,,,,,,0,0,pic/flanker6.png,pic/flanker2.png,a,l,pic/AffRest2.png,,,,,,,,,,,,,,,,,,,,,,,,,0,1,1,1,0,27,27,57,,,,875.5477281999997,None,874.3641213000001,875.5644287,a,1,胡涂,l,1,0.578473799999756,0.3647643999997854,gjy,f,20,2024_Apr_10_1102,mian,2021.2.3,60.113132916122204,
,,,,,,1,1,pic/flanker5.png,pic/flanker3.png,a,k,pic/AffRest2.png,,,,,,,,,,,,,,,,,,,,,,,,,0,1,1,1,0,28,28,52,,,,878.4975571,None,877.3143298999998,878.5143095999997,a,1,雄厚,k,1,0.628644500000064,0.4874697999998716,gjy,f,20,2024_Apr_10_1102,mian,2021.2.3,60.113132916122204,
,,,,,,1,1,pic/flanker6.png,pic/flanker4.png,s,k,pic/AffRest2.png,,,,,,,,,,,,,,,,,,,,,,,,,0,1,1,1,0,29,29,30,,,,881.6810339999997,None,880.4976633000001,881.6977041999999,s,1,瑰丽,k,1,0.6054432000000816,0.4425906000001305,gjy,f,20,2024_Apr_10_1102,mian,2021.2.3,60.113132916122204,
,,,,,,0,0,pic/flanker6.png,pic/flanker2.png,a,l,pic/AffRest2.png,,,,,,,,,,,,,,,,,,,,,,,,,0,1,1,1,0,30,30,49,,,,884.7644458999998,None,883.5803926999997,884.7811412000001,a,1,嘲笑,l,1,0.7941496000003099,0.3333858999999393,gjy,f,20,2024_Apr_10_1102,mian,2021.2.3,60.113132916122204,
,,,,,,1,1,pic/flanker6.png,pic/flanker4.png,s,k,pic/AffRest2.png,,,,,,,,,,,,,,,,,,,,,,,,,0,1,1,1,0,31,31,6,,,,887.9809167999997,None,886.7976321000001,887.9975875,s,1,珍藏,k,1,0.5588318999998592,0.42106909999984055,gjy,f,20,2024_Apr_10_1102,mian,2021.2.3,60.113132916122204,
,,,,,,0,0,pic/flanker6.png,pic/flanker2.png,a,l,pic/AffRest2.png,,,,,,,,,,,,,,,,,,,,,,,,,0,1,1,1,0,32,32,33,,,,890.9642887,None,889.7807932999999,890.9808825,a,1,失意,l,1,0.5428139999999075,0.33713449999959266,gjy,f,20,2024_Apr_10_1102,mian,2021.2.3,60.113132916122204,
,,,,,,0,0,pic/flanker6.png,pic/flanker2.png,a,l,pic/AffRest2.png,,,,,,,,,,,,,,,,,,,,,,,,,0,1,1,1,0,33,33,73,,,,893.7808308999997,None,892.5971439999998,893.7974027,a,1,郁闷,l,1,0.6261133999996673,0.3561133000002883,gjy,f,20,2024_Apr_10_1102,mian,2021.2.3,60.113132916122204,
,,,,,,0,1,pic/flanker6.png,pic/flanker2.png,a,k,pic/AffRest2.png,,,,,,,,,,,,,,,,,,,,,,,,,0,1,1,1,0,34,34,26,,,,896.6477965999998,None,895.4644011999999,896.6644109999997,a,1,公平,k,1,0.6513568000000305,0.3390175000004092,gjy,f,20,2024_Apr_10_1102,mian,2021.2.3,60.113132916122204,
,,,,,,1,0,pic/flanker5.png,pic/flanker3.png,a,l,pic/AffRest2.png,,,,,,,,,,,,,,,,,,,,,,,,,0,1,1,1,0,35,35,7,,,,899.6643420999999,None,898.4811062999997,899.6809914,a,1,焦躁,l,1,0.6347949000000881,0.5645808999997826,gjy,f,20,2024_Apr_10_1102,mian,2021.2.3,60.113132916122204,
,,,,,,1,1,pic/flanker5.png,pic/flanker3.png,a,k,pic/AffRest2.png,,,,,,,,,,,,,,,,,,,,,,,,,0,1,1,1,0,36,36,20,,,,902.7142306000001,None,901.5310881999999,902.7309065,a,1,精致,k,1,0.5425347999998849,0.490438499999982,gjy,f,20,2024_Apr_10_1102,mian,2021.2.3,60.113132916122204,
,,,,,,0,0,pic/flanker5.png,pic/flanker1.png,s,l,pic/AffRest2.png,,,,,,,,,,,,,,,,,,,,,,,,,0,1,1,1,0,37,37,51,,,,905.7639632999999,None,904.5806318999998,905.780694,s,1,处罚,l,1,0.56574640000008,0.40888100000029226,gjy,f,20,2024_Apr_10_1102,mian,2021.2.3,60.113132916122204,
,,,,,,1,1,pic/flanker5.png,pic/flanker3.png,a,k,pic/AffRest2.png,,,,,,,,,,,,,,,,,,,,,,,,,0,1,1,1,0,38,38,76,,,,908.5810186999997,None,907.3977451000001,908.5976436000001,a,1,俊秀,k,1,1.0614654999999402,0.4486112999998113,gjy,f,20,2024_Apr_10_1102,mian,2021.2.3,60.113132916122204,
,,,,,,1,0,pic/flanker6.png,pic/flanker4.png,s,l,pic/AffRest2.png,,,,,,,,,,,,,,,,,,,,,,,,,0,1,1,1,0,39,39,21,,,,911.9310618999998,None,910.7476569999999,911.9476998,s,1,消沉,l,1,0.5414295999999013,0.42668470000035086,gjy,f,20,2024_Apr_10_1102,mian,2021.2.3,60.113132916122204,
,,,,,,0,1,pic/flanker5.png,pic/flanker1.png,s,k,pic/AffRest2.png,,,,,,,,,,,,,,,,,,,,,,,,,0,1,1,1,0,40,40,56,,,,914.9644021999998,None,913.7806215,914.9810752999997,s,1,典雅,k,1,0.5784943999997267,0.3886827999999696,gjy,f,20,2024_Apr_10_1102,mian,2021.2.3,60.113132916122204,
,,,,,,1,1,pic/flanker6.png,pic/flanker4.png,s,k,pic/AffRest2.png,,,,,,,,,,,,,,,,,,,,,,,,,0,1,1,1,0,41,41,14,,,,917.7809742999998,None,916.5977460999998,917.7976725999997,s,1,旺盛,k,1,0.6457672000001367,0.4823535999998967,gjy,f,20,2024_Apr_10_1102,mian,2021.2.3,60.113132916122204,
,,,,,,0,1,pic/flanker6.png,pic/flanker2.png,a,k,pic/AffRest2.png,,,,,,,,,,,,,,,,,,,,,,,,,0,1,1,1,0,42,42,42,,,,920.7478179,None,919.5644695999999,920.7644596,a,1,有利,k,1,0.5687108000001899,0.29250599999977567,gjy,f,20,2024_Apr_10_1102,mian,2021.2.3,60.113132916122204,
,,,,,,0,0,pic/flanker6.png,pic/flanker2.png,a,l,pic/AffRest2.png,,,,,,,,,,,,,,,,,,,,,,,,,0,1,1,1,0,43,43,41,,,,923.4976690999997,None,922.3144394000001,923.5144052,a,1,逃避,l,1,0.5302962000000662,0.327665799999977,gjy,f,20,2024_Apr_10_1102,mian,2021.2.3,60.113132916122204,
,,,,,,0,1,pic/flanker5.png,pic/flanker1.png,s,k,pic/AffRest2.png,,,,,,,,,,,,,,,,,,,,,,,,,0,1,1,1,0,44,44,24,,,,926.3476800999997,None,925.1644151,926.3642941999997,s,1,赞成,k,1,0.5346428999996533,0.3608883000001697,gjy,f,20,2024_Apr_10_1102,mian,2021.2.3,60.113132916122204,
,,,,,,0,1,pic/flanker5.png,pic/flanker1.png,s,k,pic/AffRest2.png,,,,,,,,,,,,,,,,,,,,,,,,,0,1,1,1,0,45,45,40,,,,929.0806714999999,None,927.8977826,929.097796,s,1,正直,k,1,0.5921582000000853,0.3069292000000132,gjy,f,20,2024_Apr_10_1102,mian,2021.2.3,60.113132916122204,
,,,,,,1,1,pic/flanker6.png,pic/flanker4.png,s,k,pic/AffRest2.png,,,,,,,,,,,,,,,,,,,,,,,,,0,1,1,1,0,46,46,62,,,,931.9145285999998,None,930.7307691999999,931.9306363000001,s,1,爽朗,k,1,0.7283532999999807,0.4388601999999082,gjy,f,20,2024_Apr_10_1102,mian,2021.2.3,60.113132916122204,
,,,,,,0,1,pic/flanker5.png,pic/flanker1.png,s,k,pic/AffRest2.png,,,,,,,,,,,,,,,,,,,,,,,,,0,1,1,1,0,47,47,72,,,,934.9475278,None,933.7638597,934.9641979999997,s,1,清秀,k,1,0.7643153000003622,0.3690262000000075,gjy,f,20,2024_Apr_10_1102,mian,2021.2.3,60.113132916122204,
,,,,,,0,0,pic/flanker5.png,pic/flanker1.png,s,l,pic/AffRest2.png,,,,,,,,,,,,,,,,,,,,,,,,,0,1,1,1,0,48,48,35,,,,938.0971353,None,936.9144044,938.1137567000001,s,1,心慌,l,1,0.5506991000002017,0.3320690000000468,gjy,f,20,2024_Apr_10_1102,mian,2021.2.3,60.113132916122204,
,,,,,,1,0,pic/flanker5.png,pic/flanker3.png,a,l,pic/AffRest2.png,,,,,,,,,,,,,,,,,,,,,,,,,0,1,1,1,0,49,49,63,,,,940.8808549,None,939.6973896999998,940.8974997,a,1,沮丧,l,1,0.6048362000001362,0.4596430000001419,gjy,f,20,2024_Apr_10_1102,mian,2021.2.3,60.113132916122204,
,,,,,,0,1,pic/flanker5.png,pic/flanker1.png,s,k,pic/AffRest2.png,,,,,,,,,,,,,,,,,,,,,,,,,0,1,1,1,0,50,50,48,,,,943.9310313000001,None,942.7478268999998,943.9475779999998,s,1,优雅,k,1,0.5864759999999478,0.34091209999996863,gjy,f,20,2024_Apr_10_1102,mian,2021.2.3,60.113132916122204,
,,,,,,0,1,pic/flanker6.png,pic/flanker2.png,a,k,pic/AffRest2.png,,,,,,,,,,,,,,,,,,,,,,,,,0,1,1,1,0,51,51,34,,,,946.8476056999998,None,945.6645115000001,946.8644352000001,a,1,圣洁,k,1,0.5701735000002373,0.3485219999997753,gjy,f,20,2024_Apr_10_1102,mian,2021.2.3,60.113132916122204,
,,,,,,1,0,pic/flanker6.png,pic/flanker4.png,s,l,pic/AffRest2.png,,,,,,,,,,,,,,,,,,,,,,,,,0,1,1,1,0,52,52,37,,,,949.7144829999997,None,948.5305509,949.7311467999998,s,1,慌忙,l,1,0.4845930999999837,0.4862843000000794,gjy,f,20,2024_Apr_10_1102,mian,2021.2.3,60.113132916122204,
,,,,,,1,0,pic/flanker6.png,pic/flanker4.png,s,l,pic/AffRest2.png,,,,,,,,,,,,,,,,,,,,,,,,,0,1,1,1,0,53,53,13,,,,952.7143240999999,None,951.5309044,952.7310359999997,s,1,厌恶,l,1,0.53542170000037,0.448609800000213,gjy,f,20,2024_Apr_10_1102,mian,2021.2.3,60.113132916122204,
,,,,,,1,1,pic/flanker5.png,pic/flanker3.png,a,k,pic/AffRest2.png,,,,,,,,,,,,,,,,,,,,,,,,,0,1,1,1,0,54,54,28,,,,955.7478311,None,954.5645264999998,955.7644995,a,1,羡慕,k,1,0.6324519999998302,0.44274200000018027,gjy,f,20,2024_Apr_10_1102,mian,2021.2.3,60.113132916122204,
,,,,,,0,0,pic/flanker6.png,pic/flanker2.png,a,l,pic/AffRest2.png,,,,,,,,,,,,,,,,,,,,,,,,,0,1,1,1,0,55,55,9,,,,958.7478501999999,None,957.5643012999999,958.7645309999998,a,1,自卑,l,1,0.5873864999998659,0.3558640999999625,gjy,f,20,2024_Apr_10_1102,mian,2021.2.3,60.113132916122204,
,,,,,,0,0,pic/flanker5.png,pic/flanker1.png,s,l,pic/AffRest2.png,,,,,,,,,,,,,,,,,,,,,,,,,0,1,1,1,0,56,56,27,,,,961.7645628999999,None,960.5805175999999,961.7812054000001,s,1,排斥,l,1,0.5542746999999508,0.3797204999996211,gjy,f,20,2024_Apr_10_1102,mian,2021.2.3,60.113132916122204,
,,,,,,1,1,pic/flanker5.png,pic/flanker3.png,a,k,pic/AffRest2.png,,,,,,,,,,,,,,,,,,,,,,,,,0,1,1,1,0,57,57,4,,,,964.647809,None,963.4644429999998,964.6644953,a,1,富足,k,1,0.6058309000000008,0.4964647000001605,gjy,f,20,2024_Apr_10_1102,mian,2021.2.3,60.113132916122204,
,,,,,,1,1,pic/flanker5.png,pic/flanker3.png,a,k,pic/AffRest2.png,,,,,,,,,,,,,,,,,,,,,,,,,0,1,1,1,0,58,58,60,,,,967.7145456999997,None,966.5310587999998,967.7311835,a,1,顽强,k,1,0.6366816999998264,0.491389799999979,gjy,f,20,2024_Apr_10_1102,mian,2021.2.3,60.113132916122204,
,,,,,,0,1,pic/flanker5.png,pic/flanker1.png,s,k,pic/AffRest2.png,,,,,,,,,,,,,,,,,,,,,,,,,0,1,1,1,0,59,59,32,,,,970.8643892999999,None,969.6811149,970.8804864999997,s,1,留恋,k,1,0.6088214000001244,0.34136949999992794,gjy,f,20,2024_Apr_10_1102,mian,2021.2.3,60.113132916122204,
,,,,,,0,0,pic/flanker5.png,pic/flanker1.png,s,l,pic/AffRest2.png,,,,,,,,,,,,,,,,,,,,,,,,,0,1,1,1,0,60,60,75,,,,973.7978582999999,None,972.6145406999999,973.8145237999997,s,1,损害,l,1,0.48386789999995017,0.3477131999998164,gjy,f,20,2024_Apr_10_1102,mian,2021.2.3,60.113132916122204,
,,,,,,1,1,pic/flanker6.png,pic/flanker4.png,s,k,pic/AffRest2.png,,,,,,,,,,,,,,,,,,,,,,,,,0,1,1,1,0,61,61,22,,,,976.6478619,None,975.4644036,976.6645224999997,s,1,富丽,k,1,0.6140269000002263,0.4648634000000129,gjy,f,20,2024_Apr_10_1102,mian,2021.2.3,60.113132916122204,
,,,,,,1,0,pic/flanker6.png,pic/flanker4.png,s,l,pic/AffRest2.png,,,,,,,,,,,,,,,,,,,,,,,,,0,1,1,1,0,62,62,61,,,,979.5810523999999,None,978.3973063999997,979.5976637999997,s,1,杂乱,l,1,0.4968675999998595,0.43828069999972286,gjy,f,20,2024_Apr_10_1102,mian,2021.2.3,60.113132916122204,
,,,,,,1,0,pic/flanker5.png,pic/flanker3.png,a,l,pic/AffRest2.png,,,,,,,,,,,,,,,,,,,,,,,,,0,1,1,1,0,63,63,55,,,,982.5478174,None,981.3643564999998,982.5645254000001,a,1,假冒,l,1,0.5055225999999493,0.40981319999991683,gjy,f,20,2024_Apr_10_1102,mian,2021.2.3,60.113132916122204,
,,,,,,1,0,pic/flanker6.png,pic/flanker4.png,s,l,pic/AffRest2.png,,,,,,,,,,,,,,,,,,,,,,,,,0,1,1,1,0,64,64,53,,,,985.4478595,None,984.2645044999999,985.4645292999999,s,1,丢失,l,1,0.4679078999997728,0.4725877999999284,gjy,f,20,2024_Apr_10_1102,mian,2021.2.3,60.113132916122204,
,,,,,,1,0,pic/flanker5.png,pic/flanker3.png,a,l,pic/AffRest2.png,,,,,,,,,,,,,,,,,,,,,,,,,0,1,1,1,0,65,65,31,,,,988.4478847999999,None,987.2644212999999,988.4645353999999,a,1,撒谎,l,1,0.515586600000006,0.42350020000003497,gjy,f,20,2024_Apr_10_1102,mian,2021.2.3,60.113132916122204,
,,,,,,0,1,pic/flanker5.png,pic/flanker1.png,s,k,pic/AffRest2.png,,,,,,,,,,,,,,,,,,,,,,,,,0,1,1,1,0,66,66,0,,,,991.2977289999999,None,990.1143437000001,991.3143497000001,s,1,卓越,k,1,0.5676472000000103,0.3649153000001206,gjy,f,20,2024_Apr_10_1102,mian,2021.2.3,60.113132916122204,
,,,,,,0,1,pic/flanker6.png,pic/flanker2.png,a,k,pic/AffRest2.png,,,,,,,,,,,,,,,,,,,,,,,,,0,1,1,1,0,67,67,18,,,,994.1978789,None,993.0143549,994.2145473,a,1,诚恳,k,1,0.5260299999999916,0.39150659999995696,gjy,f,20,2024_Apr_10_1102,mian,2021.2.3,60.113132916122204,
,,,,,,1,1,pic/flanker5.png,pic/flanker3.png,a,k,pic/AffRest2.png,,,,,,,,,,,,,,,,,,,,,,,,,0,1,1,1,0,68,68,44,,,,997.0812323,None,995.8977295,997.0979585,a,1,秀丽,k,1,0.5249366000002738,0.4551722000001064,gjy,f,20,2024_Apr_10_1102,mian,2021.2.3,60.113132916122204,
,,,,,,0,1,pic/flanker6.png,pic/flanker2.png,a,k,pic/AffRest2.png,,,,,,,,,,,,,,,,,,,,,,,,,0,1,1,1,0,69,69,10,,,,1000.0811027999998,None,998.8976239999997,1000.0976622999997,a,1,前进,k,1,0.5634968000003937,0.43023089999996955,gjy,f,20,2024_Apr_10_1102,mian,2021.2.3,60.113132916122204,
,,,,,,1,1,pic/flanker6.png,pic/flanker4.png,s,k,pic/AffRest2.png,,,,,,,,,,,,,,,,,,,,,,,,,0,1,1,1,0,70,70,70,,,,1003.0311588999998,None,1001.8476719999999,1003.0477510999999,s,1,鲜艳,k,1,0.5783334000002469,0.4610413000000335,gjy,f,20,2024_Apr_10_1102,mian,2021.2.3,60.113132916122204,
,,,,,,1,1,pic/flanker5.png,pic/flanker3.png,a,k,pic/AffRest2.png,,,,,,,,,,,,,,,,,,,,,,,,,0,1,1,1,0,71,71,68,,,,1006.0478599999997,None,1004.8644525,1006.0645589000001,a,1,享受,k,1,0.5615079999997761,0.4279252000001179,gjy,f,20,2024_Apr_10_1102,mian,2021.2.3,60.113132916122204,
,,,,,,0,1,pic/flanker6.png,pic/flanker2.png,a,k,pic/AffRest2.png,,,,,,,,,,,,,,,,,,,,,,,,,0,1,1,1,0,72,72,66,,,,1009.0477372,None,1007.8642839999998,1009.0643814,a,1,热切,k,1,0.5362855000003037,0.36283080000021073,gjy,f,20,2024_Apr_10_1102,mian,2021.2.3,60.113132916122204,
,,,,,,0,1,pic/flanker5.png,pic/flanker1.png,s,k,pic/AffRest2.png,,,,,,,,,,,,,,,,,,,,,,,,,0,1,1,1,0,73,73,16,,,,1011.9812188000001,None,1010.7978021999998,1011.997969,s,1,吉祥,k,1,0.5827214999999342,0.33545230000027004,gjy,f,20,2024_Apr_10_1102,mian,2021.2.3,60.113132916122204,
,,,,,,0,0,pic/flanker5.png,pic/flanker1.png,s,l,pic/AffRest2.png,,,,,,,,,,,,,,,,,,,,,,,,,0,1,1,1,0,74,74,19,,,,1014.7810798999999,None,1013.5977143999999,1014.7977609999998,s,1,浪费,l,1,0.6191948000000593,0.38886790000015026,gjy,f,20,2024_Apr_10_1102,mian,2021.2.3,60.113132916122204,
,,,,,,1,1,pic/flanker5.png,pic/flanker3.png,a,k,pic/AffRest2.png,,,,,,,,,,,,,,,,,,,,,,,,,0,1,1,1,0,75,75,36,,,,1017.6976549000001,None,1016.5144379999997,1017.7141630000001,a,1,廉洁,k,1,0.6287432000003719,0.40520580000020345,gjy,f,20,2024_Apr_10_1102,mian,2021.2.3,60.113132916122204,
,,,,,,1,0,pic/flanker5.png,pic/flanker3.png,a,l,pic/AffRest2.png,,,,,,,,,,,,,,,,,,,,,,,,,0,1,1,1,0,76,76,23,,,,1020.6311123,None,1019.4476133999997,1020.6477388999997,a,1,别扭,l,1,0.5737699000001157,0.4479519999999866,gjy,f,20,2024_Apr_10_1102,mian,2021.2.3,60.113132916122204,
,,,,,,0,1,pic/flanker5.png,pic/flanker1.png,s,k,pic/AffRest2.png,,,,,,,,,,,,,,,,,,,,,,,,,0,1,1,1,0,77,77,8,,,,1023.5309588999999,None,1022.3477315,1023.5476939,s,1,畅销,k,1,0.5436264999998457,0.3274376999997912,gjy,f,20,2024_Apr_10_1102,mian,2021.2.3,60.113132916122204,
,,,,,,0,0,pic/flanker6.png,pic/flanker2.png,a,l,pic/AffRest2.png,,,,,,,,,,,,,,,,,,,,,,,,,0,1,1,1,0,78,78,17,,,,1026.280533,None,1025.0976958,1026.2976863999997,a,1,罚款,l,1,0.4950878999998167,0.31808300000011513,gjy,f,20,2024_Apr_10_1102,mian,2021.2.3,60.113132916122204,
,,,,,,1,1,pic/flanker6.png,pic/flanker4.png,s,k,pic/AffRest2.png,,,,,,,,,,,,,,,,,,,,,,,,,0,1,1,1,0,79,79,78,,,,1029.1143643,None,1027.9310029999997,1029.1310963,s,1,舒畅,k,1,0.4949658000000454,0.4382882000004429,gjy,f,20,2024_Apr_10_1102,mian,2021.2.3,60.113132916122204,
,,,,,,,,,,,,pic/AffRest2.png,,,,,,,,,,,,,,,,,,,,,,,,,0,1,1,1,,,,,,,,,,,,,,,,,,,gjy,f,20,2024_Apr_10_1102,mian,2021.2.3,60.113132916122204,
,,,,,,0,1,pic/flanker6.png,pic/flanker2.png,a,k,pic/AffRest3.png,,,,,,,,,,,,,,,,,,,,,,,,,0,2,2,2,0,0,0,10,,,,1053.6979259999998,None,1052.4977768999997,1053.6979259999998,a,1,豪放,k,1,0.5508574999998928,0.31481570000005377,gjy,f,20,2024_Apr_10_1102,mian,2021.2.3,60.113132916122204,
,,,,,,0,1,pic/flanker5.png,pic/flanker1.png,s,k,pic/AffRest3.png,,,,,,,,,,,,,,,,,,,,,,,,,0,2,2,2,0,1,1,48,,,,1056.6311382999997,None,1055.4477987,1056.647789,s,1,舒畅,k,1,0.56579899999997,0.23947009999983493,gjy,f,20,2024_Apr_10_1102,mian,2021.2.3,60.113132916122204,
,,,,,,1,0,pic/flanker6.png,pic/flanker4.png,s,l,pic/AffRest3.png,,,,,,,,,,,,,,,,,,,,,,,,,0,2,2,2,0,2,2,77,,,,1059.3646541999997,None,1058.1811463999998,1059.3814103999998,s,1,假冒,l,1,0.480891100000008,0.46707859999969514,gjy,f,20,2024_Apr_10_1102,mian,2021.2.3,60.113132916122204,
,,,,,,1,0,pic/flanker6.png,pic/flanker4.png,s,l,pic/AffRest3.png,,,,,,,,,,,,,,,,,,,,,,,,,0,2,2,2,0,3,3,21,,,,1062.2477309,None,1061.06432,1062.2644544999998,s,1,胡涂,l,1,0.4741186999999627,0.41615340000043943,gjy,f,20,2024_Apr_10_1102,mian,2021.2.3,60.113132916122204,
,,,,,,0,0,pic/flanker5.png,pic/flanker1.png,s,l,pic/AffRest3.png,,,,,,,,,,,,,,,,,,,,,,,,,0,2,2,2,0,4,4,51,,,,1065.0976611,None,1063.9143808999997,1065.1143883,s,1,失意,l,1,0.507064000000355,0.3376002999998491,gjy,f,20,2024_Apr_10_1102,mian,2021.2.3,60.113132916122204,
,,,,,,1,0,pic/flanker6.png,pic/flanker4.png,s,l,pic/AffRest3.png,,,,,,,,,,,,,,,,,,,,,,,,,0,2,2,2,0,5,5,29,,,,1067.7810571999999,None,1066.5978139,1067.7978224999997,a,0,忧虑,l,1,0.6252366999997321,0.2567521000000852,gjy,f,20,2024_Apr_10_1102,mian,2021.2.3,60.113132916122204,
,,,,,,1,1,pic/flanker5.png,pic/flanker3.png,a,k,pic/AffRest3.png,,,,,,,,,,,,,,,,,,,,,,,,,0,2,2,2,0,6,6,68,,,,1070.7145249999999,None,1069.5310792,1070.7311289999998,s,0,富丽,k,1,0.6943098000001555,0.24822390000008454,gjy,f,20,2024_Apr_10_1102,mian,2021.2.3,60.113132916122204,
,,,,,,0,0,pic/flanker6.png,pic/flanker2.png,a,l,pic/AffRest3.png,,,,,,,,,,,,,,,,,,,,,,,,,0,2,2,2,0,7,7,33,,,,1073.5313078999998,None,1072.3478184,1073.5479252,a,1,撒谎,l,1,0.5372519000002285,0.4154084000001603,gjy,f,20,2024_Apr_10_1102,mian,2021.2.3,60.113132916122204,
,,,,,,1,1,pic/flanker5.png,pic/flanker3.png,a,k,pic/AffRest3.png,,,,,,,,,,,,,,,,,,,,,,,,,0,2,2,2,0,8,8,20,,,,1076.4646035,None,1075.2811517999999,1076.4812865999997,a,1,生动,k,1,0.558282799999688,0.4519181999999091,gjy,f,20,2024_Apr_10_1102,mian,2021.2.3,60.113132916122204,
,,,,,,1,1,pic/flanker5.png,pic/flanker3.png,a,k,pic/AffRest3.png,,,,,,,,,,,,,,,,,,,,,,,,,0,2,2,2,0,9,9,44,,,,1079.3478067,None,1078.1644744999999,1079.3644644,a,1,雄厚,k,1,0.6999476999999388,0.452694000000065,gjy,f,20,2024_Apr_10_1102,mian,2021.2.3,60.113132916122204,
,,,,,,0,1,pic/flanker5.png,pic/flanker1.png,s,k,pic/AffRest3.png,,,,,,,,,,,,,,,,,,,,,,,,,0,2,2,2,0,10,10,40,,,,1082.4978011999997,None,1081.3144907,1082.5145703999997,s,1,富足,k,1,0.5748743999997714,0.332143200000246,gjy,f,20,2024_Apr_10_1102,mian,2021.2.3,60.113132916122204,
,,,,,,1,0,pic/flanker6.png,pic/flanker4.png,s,l,pic/AffRest3.png,,,,,,,,,,,,,,,,,,,,,,,,,0,2,2,2,0,11,11,45,,,,1085.3478419999997,None,1084.1643869999998,1085.3644910999997,s,1,沮丧,l,1,0.5942526000003454,0.4288034000001062,gjy,f,20,2024_Apr_10_1102,mian,2021.2.3,60.113132916122204,
,,,,,,0,0,pic/flanker5.png,pic/flanker1.png,s,l,pic/AffRest3.png,,,,,,,,,,,,,,,,,,,,,,,,,0,2,2,2,0,12,12,27,,,,1088.2475571999998,None,1087.0644804999997,1088.2646344,s,1,禁止,l,1,0.5056736999999885,0.3404485000000932,gjy,f,20,2024_Apr_10_1102,mian,2021.2.3,60.113132916122204,
,,,,,,0,0,pic/flanker6.png,pic/flanker2.png,a,l,pic/AffRest3.png,,,,,,,,,,,,,,,,,,,,,,,,,0,2,2,2,0,13,13,57,,,,1091.0144043,None,1089.8311267999998,1091.0310743999999,a,1,伤心,l,1,0.5447564000000966,0.41812209999989136,gjy,f,20,2024_Apr_10_1102,mian,2021.2.3,60.113132916122204,
,,,,,,0,1,pic/flanker5.png,pic/flanker1.png,s,k,pic/AffRest3.png,,,,,,,,,,,,,,,,,,,,,,,,,0,2,2,2,0,14,14,8,,,,1093.8312093999998,None,1092.6474807,1093.8477884999998,s,1,典雅,k,1,0.5432851999999002,0.3258528000001206,gjy,f,20,2024_Apr_10_1102,mian,2021.2.3,60.113132916122204,
,,,,,,1,1,pic/flanker6.png,pic/flanker4.png,s,k,pic/AffRest3.png,,,,,,,,,,,,,,,,,,,,,,,,,0,2,2,2,0,15,15,54,,,,1096.7306645999997,None,1095.5481212,1096.7472343,s,1,振作,k,1,0.6985200999997687,0.42766260000007605,gjy,f,20,2024_Apr_10_1102,mian,2021.2.3,60.113132916122204,
,,,,,,1,1,pic/flanker5.png,pic/flanker3.png,a,k,pic/AffRest3.png,,,,,,,,,,,,,,,,,,,,,,,,,0,2,2,2,0,16,16,28,,,,1099.7310481,None,1098.5477953999998,1099.7477819,a,1,敬佩,k,1,0.525005400000282,0.43869549999999435,gjy,f,20,2024_Apr_10_1102,mian,2021.2.3,60.113132916122204,
,,,,,,0,1,pic/flanker6.png,pic/flanker2.png,a,k,pic/AffRest3.png,,,,,,,,,,,,,,,,,,,,,,,,,0,2,2,2,0,17,17,18,,,,1102.6477276,None,1101.4645313,1102.6644137999997,a,1,俊秀,k,1,0.5564561000001049,0.3828083999997034,gjy,f,20,2024_Apr_10_1102,mian,2021.2.3,60.113132916122204,
,,,,,,1,0,pic/flanker6.png,pic/flanker4.png,s,l,pic/AffRest3.png,,,,,,,,,,,,,,,,,,,,,,,,,0,2,2,2,0,18,18,37,,,,1105.5478211999998,None,1104.3646386,1105.5645136999997,s,1,焦躁,l,1,0.5004844000000048,0.4254114999998819,gjy,f,20,2024_Apr_10_1102,mian,2021.2.3,60.113132916122204,
,,,,,,0,1,pic/flanker6.png,pic/flanker2.png,a,k,pic/AffRest3.png,,,,,,,,,,,,,,,,,,,,,,,,,0,2,2,2,0,19,19,58,,,,1108.3478998,None,1107.1643144,1108.3645318999997,a,1,珍藏,k,1,0.7733689000001505,0.36706020000019635,gjy,f,20,2024_Apr_10_1102,mian,2021.2.3,60.113132916122204,
,,,,,,0,1,pic/flanker5.png,pic/flanker1.png,s,k,pic/AffRest3.png,,,,,,,,,,,,,,,,,,,,,,,,,0,2,2,2,0,20,20,16,,,,1111.3480181999998,None,1110.1646625999997,1111.3647191999999,s,1,廉洁,k,1,0.8625583000002734,0.29298919999973805,gjy,f,20,2024_Apr_10_1102,mian,2021.2.3,60.113132916122204,
,,,,,,0,0,pic/flanker6.png,pic/flanker2.png,a,l,pic/AffRest3.png,,,,,,,,,,,,,,,,,,,,,,,,,0,2,2,2,0,21,21,65,,,,1114.4312056999997,None,1113.2474554,1114.4475201,a,1,处罚,l,1,0.4675115000000005,0.3103808000000754,gjy,f,20,2024_Apr_10_1102,mian,2021.2.3,60.113132916122204,
,,,,,,1,1,pic/flanker6.png,pic/flanker4.png,s,k,pic/AffRest3.png,,,,,,,,,,,,,,,,,,,,,,,,,0,2,2,2,0,22,22,62,,,,1117.2644707,None,1116.0807092,1117.2811383999997,s,1,永恒,k,1,0.6300572999998622,0.46119009999983973,gjy,f,20,2024_Apr_10_1102,mian,2021.2.3,60.113132916122204,
,,,,,,0,0,pic/flanker5.png,pic/flanker1.png,s,l,pic/AffRest3.png,,,,,,,,,,,,,,,,,,,,,,,,,0,2,2,2,0,23,23,35,,,,1120.3813762999998,None,1119.1979808,1120.3980555999997,s,1,厌恶,l,1,0.5028037000001859,0.31082980000019234,gjy,f,20,2024_Apr_10_1102,mian,2021.2.3,60.113132916122204,
,,,,,,0,0,pic/flanker6.png,pic/flanker2.png,a,l,pic/AffRest3.png,,,,,,,,,,,,,,,,,,,,,,,,,0,2,2,2,0,24,24,9,,,,1123.0645617,None,1121.8812614999997,1123.0811547999997,a,1,自卑,l,1,0.4526458999998795,0.37022320000005493,gjy,f,20,2024_Apr_10_1102,mian,2021.2.3,60.113132916122204,
,,,,,,0,1,pic/flanker6.png,pic/flanker2.png,a,k,pic/AffRest3.png,,,,,,,,,,,,,,,,,,,,,,,,,0,2,2,2,0,25,25,66,,,,1125.7478372,None,1124.5644579999998,1125.7645358999998,a,1,顽强,k,1,0.7619743000000199,0.35306709999986197,gjy,f,20,2024_Apr_10_1102,mian,2021.2.3,60.113132916122204,
,,,,,,1,0,pic/flanker5.png,pic/flanker3.png,a,l,pic/AffRest3.png,,,,,,,,,,,,,,,,,,,,,,,,,0,2,2,2,0,26,26,23,,,,1128.8145741999997,None,1127.6312917,1128.8309848,a,1,慌忙,l,1,0.6043586000000687,0.4293195000000196,gjy,f,20,2024_Apr_10_1102,mian,2021.2.3,60.113132916122204,
,,,,,,1,0,pic/flanker5.png,pic/flanker3.png,a,l,pic/AffRest3.png,,,,,,,,,,,,,,,,,,,,,,,,,0,2,2,2,0,27,27,63,,,,1131.7480238999997,None,1130.5644678999997,1131.7646894,a,1,怀疑,l,1,0.5810237999999117,0.47296219999998357,gjy,f,20,2024_Apr_10_1102,mian,2021.2.3,60.113132916122204,
,,,,,,1,1,pic/flanker6.png,pic/flanker4.png,s,k,pic/AffRest3.png,,,,,,,,,,,,,,,,,,,,,,,,,0,2,2,2,0,28,28,46,,,,1134.6474109,None,1133.4645348,1134.6645281,a,0,吉祥,k,1,0.5840856999998323,0.27426100000002407,gjy,f,20,2024_Apr_10_1102,mian,2021.2.3,60.113132916122204,
,,,,,,0,0,pic/flanker5.png,pic/flanker1.png,s,l,pic/AffRest3.png,,,,,,,,,,,,,,,,,,,,,,,,,0,2,2,2,0,29,29,11,,,,1137.4813159,None,1136.2973745,1137.4980468999997,s,1,别扭,l,1,0.5258521000000655,0.2840606999998272,gjy,f,20,2024_Apr_10_1102,mian,2021.2.3,60.113132916122204,
,,,,,,1,1,pic/flanker6.png,pic/flanker4.png,s,k,pic/AffRest3.png,,,,,,,,,,,,,,,,,,,,,,,,,0,2,2,2,0,30,30,30,,,,1140.2645391,None,1139.0810053999999,1140.281167,a,0,充裕,k,1,0.6192353000001276,0.25725099999999657,gjy,f,20,2024_Apr_10_1102,mian,2021.2.3,60.113132916122204,
,,,,,,0,0,pic/flanker6.png,pic/flanker2.png,a,l,pic/AffRest3.png,,,,,,,,,,,,,,,,,,,,,,,,,0,2,2,2,0,31,31,73,,,,1143.1978543999999,None,1142.0144805999998,1143.2145099,a,1,浪费,l,1,0.6107898999998724,0.36684109999987413,gjy,f,20,2024_Apr_10_1102,mian,2021.2.3,60.113132916122204,
,,,,,,1,1,pic/flanker5.png,pic/flanker3.png,a,k,pic/AffRest3.png,,,,,,,,,,,,,,,,,,,,,,,,,0,2,2,2,0,32,32,12,,,,1146.081342,None,1144.8973169,1146.0980089,a,1,诚恳,k,1,0.790624900000239,0.7424167999997735,gjy,f,20,2024_Apr_10_1102,mian,2021.2.3,60.113132916122204,
,,,,,,0,0,pic/flanker6.png,pic/flanker2.png,a,l,pic/AffRest3.png,,,,,,,,,,,,,,,,,,,,,,,,,0,2,2,2,0,33,33,49,,,,1149.514646,None,1148.3311875,1149.5311733999997,a,1,堵塞,l,1,0.576836700000058,0.37518420000014885,gjy,f,20,2024_Apr_10_1102,mian,2021.2.3,60.113132916122204,
,,,,,,0,1,pic/flanker6.png,pic/flanker2.png,a,k,pic/AffRest3.png,,,,,,,,,,,,,,,,,,,,,,,,,0,2,2,2,0,34,34,50,,,,1152.3980296,None,1151.2144591,1152.4147380999998,a,1,精致,k,1,0.6068383000001631,0.32339530000035666,gjy,f,20,2024_Apr_10_1102,mian,2021.2.3,60.113132916122204,
,,,,,,0,1,pic/flanker6.png,pic/flanker2.png,a,k,pic/AffRest3.png,,,,,,,,,,,,,,,,,,,,,,,,,0,2,2,2,0,35,35,74,,,,1155.1812049999999,None,1153.9979199999998,1155.1979640999998,a,1,圣洁,k,1,0.5423365999999987,0.4092961999999716,gjy,f,20,2024_Apr_10_1102,mian,2021.2.3,60.113132916122204,
,,,,,,0,0,pic/flanker5.png,pic/flanker1.png,s,l,pic/AffRest3.png,,,,,,,,,,,,,,,,,,,,,,,,,0,2,2,2,0,36,36,19,,,,1158.0647329999997,None,1156.8809146999997,1158.0813936999998,s,1,黑暗,l,1,0.5526181000000179,0.3704597000000831,gjy,f,20,2024_Apr_10_1102,mian,2021.2.3,60.113132916122204,
,,,,,,1,1,pic/flanker5.png,pic/flanker3.png,a,k,pic/AffRest3.png,,,,,,,,,,,,,,,,,,,,,,,,,0,2,2,2,0,37,37,4,,,,1161.0146378,None,1159.8311208999999,1161.0311207,a,1,热切,k,1,0.5842317999999977,0.5615671999998995,gjy,f,20,2024_Apr_10_1102,mian,2021.2.3,60.113132916122204,
,,,,,,1,1,pic/flanker5.png,pic/flanker3.png,a,k,pic/AffRest3.png,,,,,,,,,,,,,,,,,,,,,,,,,0,2,2,2,0,38,38,36,,,,1164.1146074999997,None,1162.9313666999997,1164.1311197,a,1,清秀,k,1,0.5327870999999504,0.4813273999998273,gjy,f,20,2024_Apr_10_1102,mian,2021.2.3,60.113132916122204,
,,,,,,1,1,pic/flanker6.png,pic/flanker4.png,s,k,pic/AffRest3.png,,,,,,,,,,,,,,,,,,,,,,,,,0,2,2,2,0,39,39,70,,,,1167.1145361999997,None,1165.9311693999998,1167.1311359000001,s,1,秀丽,k,1,0.5456455000003189,0.3928502000003391,gjy,f,20,2024_Apr_10_1102,mian,2021.2.3,60.113132916122204,
,,,,,,1,1,pic/flanker5.png,pic/flanker3.png,a,k,pic/AffRest3.png,,,,,,,,,,,,,,,,,,,,,,,,,0,2,2,2,0,40,40,60,,,,1170.0813773999998,None,1168.897386,1170.0980529999997,a,1,瑰丽,k,1,0.529207900000074,0.42295940000030896,gjy,f,20,2024_Apr_10_1102,mian,2021.2.3,60.113132916122204,
,,,,,,0,0,pic/flanker6.png,pic/flanker2.png,a,l,pic/AffRest3.png,,,,,,,,,,,,,,,,,,,,,,,,,0,2,2,2,0,41,41,17,,,,1173.0983551999998,None,1171.9154107999998,1173.1147487999997,a,1,烦恼,l,1,0.5687176999999792,0.3392942000000403,gjy,f,20,2024_Apr_10_1102,mian,2021.2.3,60.113132916122204,
,,,,,,1,1,pic/flanker5.png,pic/flanker3.png,a,k,pic/AffRest3.png,,,,,,,,,,,,,,,,,,,,,,,,,0,2,2,2,0,42,42,76,,,,1175.9979058,None,1174.8145059999997,1176.0145859999998,a,1,爽朗,k,1,0.5114211000000068,0.43399490000001606,gjy,f,20,2024_Apr_10_1102,mian,2021.2.3,60.113132916122204,
,,,,,,0,0,pic/flanker5.png,pic/flanker1.png,s,l,pic/AffRest3.png,,,,,,,,,,,,,,,,,,,,,,,,,0,2,2,2,0,43,43,59,,,,1178.8311804,None,1177.6473437,1178.847914,s,1,冷笑,l,1,0.5262202999997498,0.34338690000004135,gjy,f,20,2024_Apr_10_1102,mian,2021.2.3,60.113132916122204,
,,,,,,0,0,pic/flanker6.png,pic/flanker2.png,a,l,pic/AffRest3.png,,,,,,,,,,,,,,,,,,,,,,,,,0,2,2,2,0,44,44,1,,,,1181.6812519999999,None,1180.4978843999997,1181.6981001999998,a,1,穷苦,l,1,0.6186230999996951,0.32965680000006614,gjy,f,20,2024_Apr_10_1102,mian,2021.2.3,60.113132916122204,
,,,,,,1,0,pic/flanker5.png,pic/flanker3.png,a,l,pic/AffRest3.png,,,,,,,,,,,,,,,,,,,,,,,,,0,2,2,2,0,45,45,47,,,,1184.5809221999998,None,1183.3972233,1184.5976025,a,1,损害,l,1,0.6645998000003601,0.4499001000003773,gjy,f,20,2024_Apr_10_1102,mian,2021.2.3,60.113132916122204,
,,,,,,1,1,pic/flanker6.png,pic/flanker4.png,s,k,pic/AffRest3.png,,,,,,,,,,,,,,,,,,,,,,,,,0,2,2,2,0,46,46,14,,,,1187.7314203,None,1186.5478663999997,1187.7481299,s,1,赞成,k,1,0.5410124999998516,0.43437939999967057,gjy,f,20,2024_Apr_10_1102,mian,2021.2.3,60.113132916122204,
,,,,,,1,0,pic/flanker5.png,pic/flanker3.png,a,l,pic/AffRest3.png,,,,,,,,,,,,,,,,,,,,,,,,,0,2,2,2,0,47,47,7,,,,1190.5807759,None,1189.3980778,1190.5974038999998,a,1,嘲笑,l,1,0.5961240999999973,0.4346660000001066,gjy,f,20,2024_Apr_10_1102,mian,2021.2.3,60.113132916122204,
,,,,,,1,1,pic/flanker6.png,pic/flanker4.png,s,k,pic/AffRest3.png,,,,,,,,,,,,,,,,,,,,,,,,,0,2,2,2,0,48,48,78,,,,1193.5645658999997,None,1192.3815006999998,1193.5812290999997,s,1,有利,k,1,0.5533498999998301,0.4551837999997588,gjy,f,20,2024_Apr_10_1102,mian,2021.2.3,60.113132916122204,
,,,,,,0,1,pic/flanker6.png,pic/flanker2.png,a,k,pic/AffRest3.png,,,,,,,,,,,,,,,,,,,,,,,,,0,2,2,2,0,49,49,42,,,,1196.4145890999998,None,1195.2312699999998,1196.4312912999999,a,1,正直,k,1,0.6073519999999917,0.3640717000002951,gjy,f,20,2024_Apr_10_1102,mian,2021.2.3,60.113132916122204,
,,,,,,1,0,pic/flanker5.png,pic/flanker3.png,a,l,pic/AffRest3.png,,,,,,,,,,,,,,,,,,,,,,,,,0,2,2,2,0,50,50,39,,,,1199.3646544999997,None,1198.1813505,1199.3812386,a,1,郁闷,l,1,0.642836399999851,0.5246885000001384,gjy,f,20,2024_Apr_10_1102,mian,2021.2.3,60.113132916122204,
,,,,,,1,0,pic/flanker6.png,pic/flanker4.png,s,l,pic/AffRest3.png,,,,,,,,,,,,,,,,,,,,,,,,,0,2,2,2,0,51,51,61,,,,1202.4314497999999,None,1201.2479583999998,1202.4481221,s,1,争吵,l,1,0.5915651000000253,0.3921543000001293,gjy,f,20,2024_Apr_10_1102,mian,2021.2.3,60.113132916122204,
,,,,,,0,0,pic/flanker6.png,pic/flanker2.png,a,l,pic/AffRest3.png,,,,,,,,,,,,,,,,,,,,,,,,,0,2,2,2,0,52,52,25,,,,1205.3480977999998,None,1204.1645792999998,1205.3647676,a,1,逃避,l,1,0.5443566999997529,0.3428228000002491,gjy,f,20,2024_Apr_10_1102,mian,2021.2.3,60.113132916122204,
,,,,,,1,1,pic/flanker6.png,pic/flanker4.png,s,k,pic/AffRest3.png,,,,,,,,,,,,,,,,,,,,,,,,,0,2,2,2,0,53,53,22,,,,1208.2479507999997,None,1207.0642924999997,1208.2646507999998,s,1,奉献,k,1,0.4957590999997592,0.4091757000001053,gjy,f,20,2024_Apr_10_1102,mian,2021.2.3,60.113132916122204,
,,,,,,1,0,pic/flanker5.png,pic/flanker3.png,a,l,pic/AffRest3.png,,,,,,,,,,,,,,,,,,,,,,,,,0,2,2,2,0,54,54,15,,,,1211.0648038999998,None,1209.8812789999997,1211.0814541999998,a,1,消沉,l,1,0.49507709999988947,0.43898029999991195,gjy,f,20,2024_Apr_10_1102,mian,2021.2.3,60.113132916122204,
,,,,,,1,0,pic/flanker6.png,pic/flanker4.png,s,l,pic/AffRest3.png,,,,,,,,,,,,,,,,,,,,,,,,,0,2,2,2,0,55,55,5,,,,1213.9479382,None,1212.7646264999998,1213.9645894999999,s,1,排斥,l,1,0.5206261999996968,0.3870999999999185,gjy,f,20,2024_Apr_10_1102,mian,2021.2.3,60.113132916122204,
,,,,,,0,0,pic/flanker5.png,pic/flanker1.png,s,l,pic/AffRest3.png,,,,,,,,,,,,,,,,,,,,,,,,,0,2,2,2,0,56,56,75,,,,1216.9312973,None,1215.7481058999997,1216.9480174999999,s,1,闷热,l,1,0.6083462999999938,0.3980612000000292,gjy,f,20,2024_Apr_10_1102,mian,2021.2.3,60.113132916122204,
,,,,,,0,1,pic/flanker5.png,pic/flanker1.png,s,k,pic/AffRest3.png,,,,,,,,,,,,,,,,,,,,,,,,,0,2,2,2,0,57,57,32,,,,1219.9646779999998,None,1218.7811314,1219.9813120999997,s,1,丰满,k,1,0.5365372000001116,0.33904690000008486,gjy,f,20,2024_Apr_10_1102,mian,2021.2.3,60.113132916122204,
,,,,,,1,0,pic/flanker6.png,pic/flanker4.png,s,l,pic/AffRest3.png,,,,,,,,,,,,,,,,,,,,,,,,,0,2,2,2,0,58,58,13,,,,1222.7480101,None,1221.5646114,1222.7646046,s,1,悲观,l,1,0.6448013000003812,0.4747186999998121,gjy,f,20,2024_Apr_10_1102,mian,2021.2.3,60.113132916122204,
,,,,,,1,0,pic/flanker6.png,pic/flanker4.png,s,l,pic/AffRest3.png,,,,,,,,,,,,,,,,,,,,,,,,,0,2,2,2,0,59,59,53,,,,1225.7646360999997,None,1224.5812255,1225.7812629,s,1,落后,l,1,0.6652727000000596,0.4709434000001238,gjy,f,20,2024_Apr_10_1102,mian,2021.2.3,60.113132916122204,
,,,,,,1,0,pic/flanker5.png,pic/flanker3.png,a,l,pic/AffRest3.png,,,,,,,,,,,,,,,,,,,,,,,,,0,2,2,2,0,60,60,31,,,,1228.7481082,None,1227.5646346999997,1228.7647425,a,1,丢失,l,1,0.6584776999998212,0.4405196999996406,gjy,f,20,2024_Apr_10_1102,mian,2021.2.3,60.113132916122204,
,,,,,,0,0,pic/flanker5.png,pic/flanker1.png,s,l,pic/AffRest3.png,,,,,,,,,,,,,,,,,,,,,,,,,0,2,2,2,0,61,61,3,,,,1231.6812725,None,1230.4979835,1231.6979609,s,1,孤单,l,1,0.6907201999997596,0.35706070000014734,gjy,f,20,2024_Apr_10_1102,mian,2021.2.3,60.113132916122204,
,,,,,,1,0,pic/flanker5.png,pic/flanker3.png,a,l,pic/AffRest3.png,,,,,,,,,,,,,,,,,,,,,,,,,0,2,2,2,0,62,62,55,,,,1234.6146632999998,None,1233.4312403999998,1234.6312985999998,a,1,轻率,l,1,0.5813476000002993,0.45575200000030236,gjy,f,20,2024_Apr_10_1102,mian,2021.2.3,60.113132916122204,
,,,,,,0,1,pic/flanker6.png,pic/flanker2.png,a,k,pic/AffRest3.png,,,,,,,,,,,,,,,,,,,,,,,,,0,2,2,2,0,63,63,26,,,,1237.681477,None,1236.4979364,1237.6981517999998,a,1,旺盛,k,1,0.5121385000002192,0.374069800000143,gjy,f,20,2024_Apr_10_1102,mian,2021.2.3,60.113132916122204,
,,,,,,0,1,pic/flanker6.png,pic/flanker2.png,a,k,pic/AffRest3.png,,,,,,,,,,,,,,,,,,,,,,,,,0,2,2,2,0,64,64,34,,,,1240.4979057,None,1239.3145187,1240.5145066,a,1,优雅,k,1,0.5634936000001289,0.2772930000000997,gjy,f,20,2024_Apr_10_1102,mian,2021.2.3,60.113132916122204,
,,,,,,1,0,pic/flanker6.png,pic/flanker4.png,s,l,pic/AffRest3.png,,,,,,,,,,,,,,,,,,,,,,,,,0,2,2,2,0,65,65,69,,,,1243.3646706999998,None,1242.1814489999997,1243.3812942999998,a,0,懒惰,l,1,0.7836147000002711,0.2543688000000657,gjy,f,20,2024_Apr_10_1102,mian,2021.2.3,60.113132916122204,
,,,,,,0,0,pic/flanker6.png,pic/flanker2.png,a,l,pic/AffRest3.png,,,,,,,,,,,,,,,,,,,,,,,,,0,2,2,2,0,66,66,41,,,,1246.3813301,None,1245.198022,1246.3980038,a,1,罚款,l,1,0.6079181999998582,0.32494469999983266,gjy,f,20,2024_Apr_10_1102,mian,2021.2.3,60.113132916122204,
,,,,,,0,1,pic/flanker5.png,pic/flanker1.png,s,k,pic/AffRest3.png,,,,,,,,,,,,,,,,,,,,,,,,,0,2,2,2,0,67,67,64,,,,1249.3313049999997,None,1248.1480907,1249.3480326,s,1,前进,k,1,0.6424048999997467,0.3265532999998868,gjy,f,20,2024_Apr_10_1102,mian,2021.2.3,60.113132916122204,
,,,,,,1,1,pic/flanker5.png,pic/flanker3.png,a,k,pic/AffRest3.png,,,,,,,,,,,,,,,,,,,,,,,,,0,2,2,2,0,68,68,52,,,,1252.2813176,None,1251.0979957999998,1252.2979520999997,a,1,如愿,k,1,0.8143602000000101,0.47290920000023107,gjy,f,20,2024_Apr_10_1102,mian,2021.2.3,60.113132916122204,
,,,,,,0,1,pic/flanker5.png,pic/flanker1.png,s,k,pic/AffRest3.png,,,,,,,,,,,,,,,,,,,,,,,,,0,2,2,2,0,69,69,24,,,,1255.5481396999999,None,1254.3646694999998,1255.5648124,s,1,留恋,k,1,0.5552939999997761,0.3683470999999372,gjy,f,20,2024_Apr_10_1102,mian,2021.2.3,60.113132916122204,
,,,,,,1,0,pic/flanker5.png,pic/flanker3.png,a,l,pic/AffRest3.png,,,,,,,,,,,,,,,,,,,,,,,,,0,2,2,2,0,70,70,79,,,,1258.5141909,None,1257.3308142,1258.5308562999999,a,1,缺乏,l,1,0.5721819999998843,0.4150873999997202,gjy,f,20,2024_Apr_10_1102,mian,2021.2.3,60.113132916122204,
,,,,,,1,1,pic/flanker6.png,pic/flanker4.png,s,k,pic/AffRest3.png,,,,,,,,,,,,,,,,,,,,,,,,,0,2,2,2,0,71,71,38,,,,1261.4647108,None,1260.2812994,1261.4813442999998,s,1,卓越,k,1,0.7673947999996926,0.44943719999992027,gjy,f,20,2024_Apr_10_1102,mian,2021.2.3,60.113132916122204,
,,,,,,0,0,pic/flanker5.png,pic/flanker1.png,s,l,pic/AffRest3.png,,,,,,,,,,,,,,,,,,,,,,,,,0,2,2,2,0,72,72,43,,,,1264.5980587999998,None,1263.4146560999998,1264.614645,s,1,杂乱,l,1,0.5362737000000379,0.3555169000001115,gjy,f,20,2024_Apr_10_1102,mian,2021.2.3,60.113132916122204,
,,,,,,0,1,pic/flanker6.png,pic/flanker2.png,a,k,pic/AffRest3.png,,,,,,,,,,,,,,,,,,,,,,,,,0,2,2,2,0,73,73,2,,,,1267.3980977,None,1266.2146813999998,1267.4146551999997,a,1,公平,k,1,0.6254587999997057,0.2675595999999132,gjy,f,20,2024_Apr_10_1102,mian,2021.2.3,60.113132916122204,
,,,,,,1,0,pic/flanker5.png,pic/flanker3.png,a,l,pic/AffRest3.png,,,,,,,,,,,,,,,,,,,,,,,,,0,2,2,2,0,74,74,71,,,,1270.2310527,None,1269.0481267,1270.2478539999997,a,1,心慌,l,1,0.5484506999996484,0.47067459999971106,gjy,f,20,2024_Apr_10_1102,mian,2021.2.3,60.113132916122204,
