target,反应类型,条件,truetarget,CorAns,Position,congruency,AffValue,flankerPic,targetPic,corAnsF,corAnsA,RestPic,returnPractice.thisRepN,returnPractice.thisTrialN,returnPractice.thisN,returnPractice.thisIndex,pracNum.thisRepN,pracNum.thisTrialN,pracNum.thisN,pracNum.thisIndex,NumBlock1.thisRepN,NumBlock1.thisTrialN,NumBlock1.thisN,NumBlock1.thisIndex,NumBlock2.thisRepN,NumBlock2.thisTrialN,NumBlock2.thisN,NumBlock2.thisIndex,returnPrac.thisRepN,returnPrac.thisTrialN,returnPrac.thisN,returnPrac.thisIndex,PracAff.thisRepN,PracAff.thisTrialN,PracAff.thisN,PracAff.thisIndex,AffBlocks.thisRepN,AffBlocks.thisTrialN,AffBlocks.thisN,AffBlocks.thisIndex,AffBlock1.thisRepN,AffBlock1.thisTrialN,AffBlock1.thisN,AffBlock1.thisIndex,respNum2word.keys,respNum2word.corr,respNum2word.rt,text.started,text.stopped,blank.started,blank.stopped,respFlanker.keys,respFlanker.corr,thisWord,respAffWord.keys,respAffWord.corr,respAffWord.rt,respFlanker.rt,姓名,性别,年龄（周岁）,date,expName,psychopyVersion,frameRate,
2A,1,1,A,a,"[0.2, 0.2]",,,,,,,,0,0,0,0,0,0,0,0,,,,,,,,,,,,,,,,,,,,,,,,,a,1,1.9787149999756366,,,,,,,,,,,,hcc,f,19,2024_Apr_17_1620,mian,2021.2.3,58.84024696626782,
A9,1,2,A,a,"[-0.2, 0.2]",,,,,,,,0,0,0,0,0,1,1,1,,,,,,,,,,,,,,,,,,,,,,,,,a,1,1.7879574999969918,,,,,,,,,,,,hcc,f,19,2024_Apr_17_1620,mian,2021.2.3,58.84024696626782,
7e,2,1,7.0,a,"[-0.2, -0.2]",,,,,,,,0,0,0,0,0,2,2,2,,,,,,,,,,,,,,,,,,,,,,,,,a,1,1.94413939997321,,,,,,,,,,,,hcc,f,19,2024_Apr_17_1620,mian,2021.2.3,58.84024696626782,
9H,2,2,9.0,a,"[0.2, -0.2]",,,,,,,,0,0,0,0,0,3,3,3,,,,,,,,,,,,,,,,,,,,,,,,,a,1,1.821202599996468,,,,,,,,,,,,hcc,f,19,2024_Apr_17_1620,mian,2021.2.3,58.84024696626782,
h4,1,1,h,l,"[0.2, 0.2]",,,,,,,,0,0,0,0,0,4,4,4,,,,,,,,,,,,,,,,,,,,,,,,,l,1,1.3899767999828327,,,,,,,,,,,,hcc,f,19,2024_Apr_17_1620,mian,2021.2.3,58.84024696626782,
4H,1,2,H,a,"[-0.2, 0.2]",,,,,,,,0,0,0,0,0,5,5,5,,,,,,,,,,,,,,,,,,,,,,,,,a,1,1.0149355999892578,,,,,,,,,,,,hcc,f,19,2024_Apr_17_1620,mian,2021.2.3,58.84024696626782,
F8,2,1,8.0,l,"[-0.2, -0.2]",,,,,,,,0,0,0,0,0,6,6,6,,,,,,,,,,,,,,,,,,,,,,,,,l,1,1.332185400009621,,,,,,,,,,,,hcc,f,19,2024_Apr_17_1620,mian,2021.2.3,58.84024696626782,
h7,2,2,7.0,a,"[0.2, -0.2]",,,,,,,,0,0,0,0,0,7,7,7,,,,,,,,,,,,,,,,,,,,,,,,,a,1,0.8293346999853384,,,,,,,,,,,,hcc,f,19,2024_Apr_17_1620,mian,2021.2.3,58.84024696626782,
5e,1,1,e,l,"[0.2, 0.2]",,,,,,,,0,0,0,0,0,8,8,8,,,,,,,,,,,,,,,,,,,,,,,,,l,1,1.1528753000020515,,,,,,,,,,,,hcc,f,19,2024_Apr_17_1620,mian,2021.2.3,58.84024696626782,
e8,1,2,e,l,"[-0.2, 0.2]",,,,,,,,0,0,0,0,0,9,9,9,,,,,,,,,,,,,,,,,,,,,,,,,l,1,1.52294249998522,,,,,,,,,,,,hcc,f,19,2024_Apr_17_1620,mian,2021.2.3,58.84024696626782,
4E,2,1,4.0,l,"[-0.2, -0.2]",,,,,,,,0,0,0,0,0,10,10,10,,,,,,,,,,,,,,,,,,,,,,,,,l,1,1.4378352999920025,,,,,,,,,,,,hcc,f,19,2024_Apr_17_1620,mian,2021.2.3,58.84024696626782,
5H,2,2,5.0,a,"[0.2, -0.2]",,,,,,,,0,0,0,0,0,11,11,11,,,,,,,,,,,,,,,,,,,,,,,,,a,1,0.7634457000240218,,,,,,,,,,,,hcc,f,19,2024_Apr_17_1620,mian,2021.2.3,58.84024696626782,
9E,1,1,E,a,"[0.2, 0.2]",,,,,,,,0,0,0,0,0,12,12,12,,,,,,,,,,,,,,,,,,,,,,,,,a,1,0.7838894999877084,,,,,,,,,,,,hcc,f,19,2024_Apr_17_1620,mian,2021.2.3,58.84024696626782,
h9,1,2,h,l,"[-0.2, 0.2]",,,,,,,,0,0,0,0,0,13,13,13,,,,,,,,,,,,,,,,,,,,,,,,,l,1,0.9896599000203423,,,,,,,,,,,,hcc,f,19,2024_Apr_17_1620,mian,2021.2.3,58.84024696626782,
2a,2,1,2.0,l,"[-0.2, -0.2]",,,,,,,,0,0,0,0,0,14,14,14,,,,,,,,,,,,,,,,,,,,,,,,,l,1,1.266876300011063,,,,,,,,,,,,hcc,f,19,2024_Apr_17_1620,mian,2021.2.3,58.84024696626782,
e5,2,2,5.0,a,"[0.2, -0.2]",,,,,,,,0,0,0,0,0,15,15,15,,,,,,,,,,,,,,,,,,,,,,,,,a,1,0.7378830999950878,,,,,,,,,,,,hcc,f,19,2024_Apr_17_1620,mian,2021.2.3,58.84024696626782,
A5,1,1,A,a,"[0.2, 0.2]",,,,,,,,0,0,0,0,0,16,16,16,,,,,,,,,,,,,,,,,,,,,,,,,a,1,1.083854299999075,,,,,,,,,,,,hcc,f,19,2024_Apr_17_1620,mian,2021.2.3,58.84024696626782,
a6,1,2,a,l,"[-0.2, 0.2]",,,,,,,,0,0,0,0,0,17,17,17,,,,,,,,,,,,,,,,,,,,,,,,,l,1,1.034001799998805,,,,,,,,,,,,hcc,f,19,2024_Apr_17_1620,mian,2021.2.3,58.84024696626782,
2F,2,1,2.0,l,"[-0.2, -0.2]",,,,,,,,0,0,0,0,0,18,18,18,,,,,,,,,,,,,,,,,,,,,,,,,l,1,1.017890199989779,,,,,,,,,,,,hcc,f,19,2024_Apr_17_1620,mian,2021.2.3,58.84024696626782,
e4,2,2,4.0,l,"[0.2, -0.2]",,,,,,,,0,0,0,0,0,19,19,19,,,,,,,,,,,,,,,,,,,,,,,,,l,1,1.0519256000116002,,,,,,,,,,,,hcc,f,19,2024_Apr_17_1620,mian,2021.2.3,58.84024696626782,
,,,,,,,,,,,,,0,0,0,0,,,,,,,,,,,,,,,,,,,,,,,,,,,,,,,,,,,,,,,,,,,hcc,f,19,2024_Apr_17_1620,mian,2021.2.3,58.84024696626782,
7h,1,1,h,l,"[0.2, 0.2]",,,,,,,,,,,,,,,,0,0,0,0,,,,,,,,,,,,,,,,,,,,,l,1,0.9199049000162631,,,,,,,,,,,,hcc,f,19,2024_Apr_17_1620,mian,2021.2.3,58.84024696626782,
8F,1,2,F,a,"[-0.2, 0.2]",,,,,,,,,,,,,,,,0,1,1,1,,,,,,,,,,,,,,,,,,,,,a,1,0.9761371999920812,,,,,,,,,,,,hcc,f,19,2024_Apr_17_1620,mian,2021.2.3,58.84024696626782,
8h,2,1,8.0,l,"[-0.2, -0.2]",,,,,,,,,,,,,,,,0,2,2,2,,,,,,,,,,,,,,,,,,,,,l,1,1.065733800001908,,,,,,,,,,,,hcc,f,19,2024_Apr_17_1620,mian,2021.2.3,58.84024696626782,
a2,2,2,2.0,l,"[0.2, -0.2]",,,,,,,,,,,,,,,,0,3,3,3,,,,,,,,,,,,,,,,,,,,,l,1,0.716530400008196,,,,,,,,,,,,hcc,f,19,2024_Apr_17_1620,mian,2021.2.3,58.84024696626782,
8f,1,1,f,l,"[0.2, 0.2]",,,,,,,,,,,,,,,,0,4,4,4,,,,,,,,,,,,,,,,,,,,,l,1,1.1503764999797568,,,,,,,,,,,,hcc,f,19,2024_Apr_17_1620,mian,2021.2.3,58.84024696626782,
6a,1,2,a,l,"[-0.2, 0.2]",,,,,,,,,,,,,,,,0,5,5,5,,,,,,,,,,,,,,,,,,,,,l,1,0.7837132999848109,,,,,,,,,,,,hcc,f,19,2024_Apr_17_1620,mian,2021.2.3,58.84024696626782,
h6,2,1,6.0,l,"[-0.2, -0.2]",,,,,,,,,,,,,,,,0,6,6,6,,,,,,,,,,,,,,,,,,,,,l,1,1.1307896999933291,,,,,,,,,,,,hcc,f,19,2024_Apr_17_1620,mian,2021.2.3,58.84024696626782,
f9,2,2,9.0,a,"[0.2, -0.2]",,,,,,,,,,,,,,,,0,7,7,7,,,,,,,,,,,,,,,,,,,,,a,1,0.6328036000195425,,,,,,,,,,,,hcc,f,19,2024_Apr_17_1620,mian,2021.2.3,58.84024696626782,
E4,1,1,E,a,"[0.2, 0.2]",,,,,,,,,,,,,,,,0,8,8,8,,,,,,,,,,,,,,,,,,,,,a,1,1.025976200005971,,,,,,,,,,,,hcc,f,19,2024_Apr_17_1620,mian,2021.2.3,58.84024696626782,
6e,1,2,e,l,"[-0.2, 0.2]",,,,,,,,,,,,,,,,0,9,9,9,,,,,,,,,,,,,,,,,,,,,l,1,1.0479406999947969,,,,,,,,,,,,hcc,f,19,2024_Apr_17_1620,mian,2021.2.3,58.84024696626782,
5G,2,1,5.0,a,"[-0.2, -0.2]",,,,,,,,,,,,,,,,0,10,10,10,,,,,,,,,,,,,,,,,,,,,a,1,0.9541284000151791,,,,,,,,,,,,hcc,f,19,2024_Apr_17_1620,mian,2021.2.3,58.84024696626782,
h3,2,2,3.0,a,"[0.2, -0.2]",,,,,,,,,,,,,,,,0,11,11,11,,,,,,,,,,,,,,,,,,,,,a,1,1.9087838999985252,,,,,,,,,,,,hcc,f,19,2024_Apr_17_1620,mian,2021.2.3,58.84024696626782,
9e,1,1,e,l,"[0.2, 0.2]",,,,,,,,,,,,,,,,0,12,12,12,,,,,,,,,,,,,,,,,,,,,l,1,1.010078400024213,,,,,,,,,,,,hcc,f,19,2024_Apr_17_1620,mian,2021.2.3,58.84024696626782,
a8,1,2,a,l,"[-0.2, 0.2]",,,,,,,,,,,,,,,,0,13,13,13,,,,,,,,,,,,,,,,,,,,,l,1,0.7408692000026349,,,,,,,,,,,,hcc,f,19,2024_Apr_17_1620,mian,2021.2.3,58.84024696626782,
e8,2,1,8.0,l,"[-0.2, -0.2]",,,,,,,,,,,,,,,,0,14,14,14,,,,,,,,,,,,,,,,,,,,,l,1,0.8273323999892455,,,,,,,,,,,,hcc,f,19,2024_Apr_17_1620,mian,2021.2.3,58.84024696626782,
3f,2,2,3.0,a,"[0.2, -0.2]",,,,,,,,,,,,,,,,0,15,15,15,,,,,,,,,,,,,,,,,,,,,a,1,0.5583957000053488,,,,,,,,,,,,hcc,f,19,2024_Apr_17_1620,mian,2021.2.3,58.84024696626782,
7f,1,1,f,l,"[0.2, 0.2]",,,,,,,,,,,,,,,,0,16,16,16,,,,,,,,,,,,,,,,,,,,,l,1,0.9304689000127837,,,,,,,,,,,,hcc,f,19,2024_Apr_17_1620,mian,2021.2.3,58.84024696626782,
a7,1,2,a,l,"[-0.2, 0.2]",,,,,,,,,,,,,,,,0,17,17,17,,,,,,,,,,,,,,,,,,,,,l,1,0.906827600003453,,,,,,,,,,,,hcc,f,19,2024_Apr_17_1620,mian,2021.2.3,58.84024696626782,
5A,2,1,5.0,a,"[-0.2, -0.2]",,,,,,,,,,,,,,,,0,18,18,18,,,,,,,,,,,,,,,,,,,,,a,1,1.0607527999964077,,,,,,,,,,,,hcc,f,19,2024_Apr_17_1620,mian,2021.2.3,58.84024696626782,
8g,2,2,8.0,l,"[0.2, -0.2]",,,,,,,,,,,,,,,,0,19,19,19,,,,,,,,,,,,,,,,,,,,,l,1,1.5567264999845065,,,,,,,,,,,,hcc,f,19,2024_Apr_17_1620,mian,2021.2.3,58.84024696626782,
9a,1,1,a,l,"[0.2, 0.2]",,,,,,,,,,,,,,,,0,20,20,20,,,,,,,,,,,,,,,,,,,,,l,1,0.7357969000004232,,,,,,,,,,,,hcc,f,19,2024_Apr_17_1620,mian,2021.2.3,58.84024696626782,
f7,1,2,f,l,"[-0.2, 0.2]",,,,,,,,,,,,,,,,0,21,21,21,,,,,,,,,,,,,,,,,,,,,l,1,0.7794855000101961,,,,,,,,,,,,hcc,f,19,2024_Apr_17_1620,mian,2021.2.3,58.84024696626782,
g9,2,1,9.0,a,"[-0.2, -0.2]",,,,,,,,,,,,,,,,0,22,22,22,,,,,,,,,,,,,,,,,,,,,a,1,1.19503679999616,,,,,,,,,,,,hcc,f,19,2024_Apr_17_1620,mian,2021.2.3,58.84024696626782,
3h,2,2,3.0,a,"[0.2, -0.2]",,,,,,,,,,,,,,,,0,23,23,23,,,,,,,,,,,,,,,,,,,,,a,1,0.5703767999948468,,,,,,,,,,,,hcc,f,19,2024_Apr_17_1620,mian,2021.2.3,58.84024696626782,
E6,1,1,E,a,"[0.2, 0.2]",,,,,,,,,,,,,,,,0,24,24,24,,,,,,,,,,,,,,,,,,,,,a,1,0.610989700013306,,,,,,,,,,,,hcc,f,19,2024_Apr_17_1620,mian,2021.2.3,58.84024696626782,
F6,1,2,F,a,"[-0.2, 0.2]",,,,,,,,,,,,,,,,0,25,25,25,,,,,,,,,,,,,,,,,,,,,a,1,0.5571165000146721,,,,,,,,,,,,hcc,f,19,2024_Apr_17_1620,mian,2021.2.3,58.84024696626782,
3A,2,1,3.0,a,"[-0.2, -0.2]",,,,,,,,,,,,,,,,0,26,26,26,,,,,,,,,,,,,,,,,,,,,a,1,1.2664051000028849,,,,,,,,,,,,hcc,f,19,2024_Apr_17_1620,mian,2021.2.3,58.84024696626782,
8H,2,2,8.0,l,"[0.2, -0.2]",,,,,,,,,,,,,,,,0,27,27,27,,,,,,,,,,,,,,,,,,,,,l,1,0.8778049999964423,,,,,,,,,,,,hcc,f,19,2024_Apr_17_1620,mian,2021.2.3,58.84024696626782,
5a,1,1,a,l,"[0.2, 0.2]",,,,,,,,,,,,,,,,0,28,28,28,,,,,,,,,,,,,,,,,,,,,l,1,1.1066846000030637,,,,,,,,,,,,hcc,f,19,2024_Apr_17_1620,mian,2021.2.3,58.84024696626782,
2h,1,2,h,l,"[-0.2, 0.2]",,,,,,,,,,,,,,,,0,29,29,29,,,,,,,,,,,,,,,,,,,,,l,1,0.9671995000098832,,,,,,,,,,,,hcc,f,19,2024_Apr_17_1620,mian,2021.2.3,58.84024696626782,
e5,2,1,5.0,a,"[-0.2, -0.2]",,,,,,,,,,,,,,,,0,30,30,30,,,,,,,,,,,,,,,,,,,,,a,1,0.9793420000059996,,,,,,,,,,,,hcc,f,19,2024_Apr_17_1620,mian,2021.2.3,58.84024696626782,
a3,2,2,3.0,a,"[0.2, -0.2]",,,,,,,,,,,,,,,,0,31,31,31,,,,,,,,,,,,,,,,,,,,,a,1,1.3957248000078835,,,,,,,,,,,,hcc,f,19,2024_Apr_17_1620,mian,2021.2.3,58.84024696626782,
f3,1,1,f,l,"[0.2, 0.2]",,,,,,,,,,,,,,,,0,32,32,32,,,,,,,,,,,,,,,,,,,,,l,1,1.4704158999957144,,,,,,,,,,,,hcc,f,19,2024_Apr_17_1620,mian,2021.2.3,58.84024696626782,
2E,1,2,E,a,"[-0.2, 0.2]",,,,,,,,,,,,,,,,0,33,33,33,,,,,,,,,,,,,,,,,,,,,a,1,0.6814211000164505,,,,,,,,,,,,hcc,f,19,2024_Apr_17_1620,mian,2021.2.3,58.84024696626782,
2H,2,1,2.0,l,"[-0.2, -0.2]",,,,,,,,,,,,,,,,0,34,34,34,,,,,,,,,,,,,,,,,,,,,l,1,1.1865600000019185,,,,,,,,,,,,hcc,f,19,2024_Apr_17_1620,mian,2021.2.3,58.84024696626782,
H8,2,2,8.0,l,"[0.2, -0.2]",,,,,,,,,,,,,,,,0,35,35,35,,,,,,,,,,,,,,,,,,,,,l,1,0.9560520999948494,,,,,,,,,,,,hcc,f,19,2024_Apr_17_1620,mian,2021.2.3,58.84024696626782,
9g,1,1,g,l,"[0.2, 0.2]",,,,,,,,,,,,,,,,0,36,36,36,,,,,,,,,,,,,,,,,,,,,l,1,1.2072270999778993,,,,,,,,,,,,hcc,f,19,2024_Apr_17_1620,mian,2021.2.3,58.84024696626782,
5h,1,2,h,l,"[-0.2, 0.2]",,,,,,,,,,,,,,,,0,37,37,37,,,,,,,,,,,,,,,,,,,,,l,1,1.8525440000230446,,,,,,,,,,,,hcc,f,19,2024_Apr_17_1620,mian,2021.2.3,58.84024696626782,
e4,2,1,4.0,l,"[-0.2, -0.2]",,,,,,,,,,,,,,,,0,38,38,38,,,,,,,,,,,,,,,,,,,,,l,1,1.4651467000076082,,,,,,,,,,,,hcc,f,19,2024_Apr_17_1620,mian,2021.2.3,58.84024696626782,
9h,2,2,9.0,a,"[0.2, -0.2]",,,,,,,,,,,,,,,,0,39,39,39,,,,,,,,,,,,,,,,,,,,,a,1,0.7237844000046607,,,,,,,,,,,,hcc,f,19,2024_Apr_17_1620,mian,2021.2.3,58.84024696626782,
G3,1,1,G,a,"[0.2, 0.2]",,,,,,,,,,,,,,,,0,40,40,40,,,,,,,,,,,,,,,,,,,,,a,1,0.7254169000079855,,,,,,,,,,,,hcc,f,19,2024_Apr_17_1620,mian,2021.2.3,58.84024696626782,
9A,1,2,A,a,"[-0.2, 0.2]",,,,,,,,,,,,,,,,0,41,41,41,,,,,,,,,,,,,,,,,,,,,a,1,0.664139200001955,,,,,,,,,,,,hcc,f,19,2024_Apr_17_1620,mian,2021.2.3,58.84024696626782,
H5,2,1,5.0,a,"[-0.2, -0.2]",,,,,,,,,,,,,,,,0,42,42,42,,,,,,,,,,,,,,,,,,,,,a,1,1.1999401999928523,,,,,,,,,,,,hcc,f,19,2024_Apr_17_1620,mian,2021.2.3,58.84024696626782,
4e,2,2,4.0,l,"[0.2, -0.2]",,,,,,,,,,,,,,,,0,43,43,43,,,,,,,,,,,,,,,,,,,,,l,1,1.8637150000140537,,,,,,,,,,,,hcc,f,19,2024_Apr_17_1620,mian,2021.2.3,58.84024696626782,
E2,1,1,E,a,"[0.2, 0.2]",,,,,,,,,,,,,,,,0,44,44,44,,,,,,,,,,,,,,,,,,,,,a,1,0.8155958999996074,,,,,,,,,,,,hcc,f,19,2024_Apr_17_1620,mian,2021.2.3,58.84024696626782,
A5,1,2,A,a,"[-0.2, 0.2]",,,,,,,,,,,,,,,,0,45,45,45,,,,,,,,,,,,,,,,,,,,,a,1,0.504987100022845,,,,,,,,,,,,hcc,f,19,2024_Apr_17_1620,mian,2021.2.3,58.84024696626782,
2A,2,1,2.0,l,"[-0.2, -0.2]",,,,,,,,,,,,,,,,0,46,46,46,,,,,,,,,,,,,,,,,,,,,l,1,1.0482383000198752,,,,,,,,,,,,hcc,f,19,2024_Apr_17_1620,mian,2021.2.3,58.84024696626782,
6G,2,2,6.0,l,"[0.2, -0.2]",,,,,,,,,,,,,,,,0,47,47,47,,,,,,,,,,,,,,,,,,,,,l,1,0.805209600017406,,,,,,,,,,,,hcc,f,19,2024_Apr_17_1620,mian,2021.2.3,58.84024696626782,
H3,1,1,H,a,"[0.2, 0.2]",,,,,,,,,,,,,,,,0,48,48,48,,,,,,,,,,,,,,,,,,,,,a,1,0.6546095000230707,,,,,,,,,,,,hcc,f,19,2024_Apr_17_1620,mian,2021.2.3,58.84024696626782,
H2,1,2,H,a,"[-0.2, 0.2]",,,,,,,,,,,,,,,,0,49,49,49,,,,,,,,,,,,,,,,,,,,,a,1,0.5149756000027992,,,,,,,,,,,,hcc,f,19,2024_Apr_17_1620,mian,2021.2.3,58.84024696626782,
e9,2,1,9.0,a,"[-0.2, -0.2]",,,,,,,,,,,,,,,,0,50,50,50,,,,,,,,,,,,,,,,,,,,,a,1,0.7472449999768287,,,,,,,,,,,,hcc,f,19,2024_Apr_17_1620,mian,2021.2.3,58.84024696626782,
2G,2,2,2.0,l,"[0.2, -0.2]",,,,,,,,,,,,,,,,0,51,51,51,,,,,,,,,,,,,,,,,,,,,l,1,1.3561077000049409,,,,,,,,,,,,hcc,f,19,2024_Apr_17_1620,mian,2021.2.3,58.84024696626782,
4f,1,1,f,l,"[0.2, 0.2]",,,,,,,,,,,,,,,,0,52,52,52,,,,,,,,,,,,,,,,,,,,,l,1,2.831214000005275,,,,,,,,,,,,hcc,f,19,2024_Apr_17_1620,mian,2021.2.3,58.84024696626782,
H6,1,2,H,a,"[-0.2, 0.2]",,,,,,,,,,,,,,,,0,53,53,53,,,,,,,,,,,,,,,,,,,,,a,1,0.7553400000033434,,,,,,,,,,,,hcc,f,19,2024_Apr_17_1620,mian,2021.2.3,58.84024696626782,
A4,2,1,4.0,l,"[-0.2, -0.2]",,,,,,,,,,,,,,,,0,54,54,54,,,,,,,,,,,,,,,,,,,,,l,1,2.444769100024132,,,,,,,,,,,,hcc,f,19,2024_Apr_17_1620,mian,2021.2.3,58.84024696626782,
3F,2,2,3.0,a,"[0.2, -0.2]",,,,,,,,,,,,,,,,0,55,55,55,,,,,,,,,,,,,,,,,,,,,a,1,0.7924011000141036,,,,,,,,,,,,hcc,f,19,2024_Apr_17_1620,mian,2021.2.3,58.84024696626782,
7e,1,1,e,l,"[0.2, 0.2]",,,,,,,,,,,,,,,,0,56,56,56,,,,,,,,,,,,,,,,,,,,,l,1,1.130927900027018,,,,,,,,,,,,hcc,f,19,2024_Apr_17_1620,mian,2021.2.3,58.84024696626782,
F9,1,2,F,a,"[-0.2, 0.2]",,,,,,,,,,,,,,,,0,57,57,57,,,,,,,,,,,,,,,,,,,,,a,1,0.8870689999894239,,,,,,,,,,,,hcc,f,19,2024_Apr_17_1620,mian,2021.2.3,58.84024696626782,
e2,2,1,2.0,l,"[-0.2, -0.2]",,,,,,,,,,,,,,,,0,58,58,58,,,,,,,,,,,,,,,,,,,,,l,1,0.7110751000000164,,,,,,,,,,,,hcc,f,19,2024_Apr_17_1620,mian,2021.2.3,58.84024696626782,
5F,2,2,5.0,a,"[0.2, -0.2]",,,,,,,,,,,,,,,,0,59,59,59,,,,,,,,,,,,,,,,,,,,,a,1,0.7598550000111572,,,,,,,,,,,,hcc,f,19,2024_Apr_17_1620,mian,2021.2.3,58.84024696626782,
f6,1,1,f,l,"[0.2, 0.2]",,,,,,,,,,,,,,,,0,60,60,60,,,,,,,,,,,,,,,,,,,,,l,1,1.5018978000152856,,,,,,,,,,,,hcc,f,19,2024_Apr_17_1620,mian,2021.2.3,58.84024696626782,
7G,1,2,G,a,"[-0.2, 0.2]",,,,,,,,,,,,,,,,0,61,61,61,,,,,,,,,,,,,,,,,,,,,a,1,0.7332491999841295,,,,,,,,,,,,hcc,f,19,2024_Apr_17_1620,mian,2021.2.3,58.84024696626782,
e6,2,1,6.0,l,"[-0.2, -0.2]",,,,,,,,,,,,,,,,0,62,62,62,,,,,,,,,,,,,,,,,,,,,l,1,1.1786539999884553,,,,,,,,,,,,hcc,f,19,2024_Apr_17_1620,mian,2021.2.3,58.84024696626782,
3G,2,2,3.0,a,"[0.2, -0.2]",,,,,,,,,,,,,,,,0,63,63,63,,,,,,,,,,,,,,,,,,,,,a,1,0.7548955999955069,,,,,,,,,,,,hcc,f,19,2024_Apr_17_1620,mian,2021.2.3,58.84024696626782,
5E,1,1,E,a,"[0.2, 0.2]",,,,,,,,,,,,,,,,0,64,64,64,,,,,,,,,,,,,,,,,,,,,a,1,0.9970978999917861,,,,,,,,,,,,hcc,f,19,2024_Apr_17_1620,mian,2021.2.3,58.84024696626782,
A6,1,2,A,a,"[-0.2, 0.2]",,,,,,,,,,,,,,,,0,65,65,65,,,,,,,,,,,,,,,,,,,,,a,1,0.6082441000035033,,,,,,,,,,,,hcc,f,19,2024_Apr_17_1620,mian,2021.2.3,58.84024696626782,
E3,2,1,3.0,a,"[-0.2, -0.2]",,,,,,,,,,,,,,,,0,66,66,66,,,,,,,,,,,,,,,,,,,,,a,1,1.2035387999785598,,,,,,,,,,,,hcc,f,19,2024_Apr_17_1620,mian,2021.2.3,58.84024696626782,
2f,2,2,2.0,l,"[0.2, -0.2]",,,,,,,,,,,,,,,,0,67,67,67,,,,,,,,,,,,,,,,,,,,,l,1,0.8041063999990001,,,,,,,,,,,,hcc,f,19,2024_Apr_17_1620,mian,2021.2.3,58.84024696626782,
g3,1,1,g,l,"[0.2, 0.2]",,,,,,,,,,,,,,,,0,68,68,68,,,,,,,,,,,,,,,,,,,,,l,1,1.357961500005331,,,,,,,,,,,,hcc,f,19,2024_Apr_17_1620,mian,2021.2.3,58.84024696626782,
E8,1,2,E,a,"[-0.2, 0.2]",,,,,,,,,,,,,,,,0,69,69,69,,,,,,,,,,,,,,,,,,,,,a,1,0.8305951000074856,,,,,,,,,,,,hcc,f,19,2024_Apr_17_1620,mian,2021.2.3,58.84024696626782,
6g,2,1,6.0,l,"[-0.2, -0.2]",,,,,,,,,,,,,,,,0,70,70,70,,,,,,,,,,,,,,,,,,,,,l,1,0.9243101000029128,,,,,,,,,,,,hcc,f,19,2024_Apr_17_1620,mian,2021.2.3,58.84024696626782,
5H,2,2,5.0,a,"[0.2, -0.2]",,,,,,,,,,,,,,,,0,71,71,71,,,,,,,,,,,,,,,,,,,,,a,1,0.6019540000124834,,,,,,,,,,,,hcc,f,19,2024_Apr_17_1620,mian,2021.2.3,58.84024696626782,
4A,1,1,A,a,"[0.2, 0.2]",,,,,,,,,,,,,,,,0,72,72,72,,,,,,,,,,,,,,,,,,,,,a,1,0.8796557000023313,,,,,,,,,,,,hcc,f,19,2024_Apr_17_1620,mian,2021.2.3,58.84024696626782,
7F,1,2,F,a,"[-0.2, 0.2]",,,,,,,,,,,,,,,,0,73,73,73,,,,,,,,,,,,,,,,,,,,,a,1,0.5342767999973148,,,,,,,,,,,,hcc,f,19,2024_Apr_17_1620,mian,2021.2.3,58.84024696626782,
6H,2,1,6.0,l,"[-0.2, -0.2]",,,,,,,,,,,,,,,,0,74,74,74,,,,,,,,,,,,,,,,,,,,,l,1,1.5564101999916602,,,,,,,,,,,,hcc,f,19,2024_Apr_17_1620,mian,2021.2.3,58.84024696626782,
3a,2,2,3.0,a,"[0.2, -0.2]",,,,,,,,,,,,,,,,0,75,75,75,,,,,,,,,,,,,,,,,,,,,a,1,2.2762453999894205,,,,,,,,,,,,hcc,f,19,2024_Apr_17_1620,mian,2021.2.3,58.84024696626782,
9F,1,1,F,a,"[0.2, 0.2]",,,,,,,,,,,,,,,,0,76,76,76,,,,,,,,,,,,,,,,,,,,,a,1,1.5576210000144783,,,,,,,,,,,,hcc,f,19,2024_Apr_17_1620,mian,2021.2.3,58.84024696626782,
G7,1,2,G,a,"[-0.2, 0.2]",,,,,,,,,,,,,,,,0,77,77,77,,,,,,,,,,,,,,,,,,,,,a,1,0.7594928999897093,,,,,,,,,,,,hcc,f,19,2024_Apr_17_1620,mian,2021.2.3,58.84024696626782,
a6,2,1,6.0,l,"[-0.2, -0.2]",,,,,,,,,,,,,,,,0,78,78,78,,,,,,,,,,,,,,,,,,,,,l,1,2.582170399982715,,,,,,,,,,,,hcc,f,19,2024_Apr_17_1620,mian,2021.2.3,58.84024696626782,
4h,2,2,4.0,l,"[0.2, -0.2]",,,,,,,,,,,,,,,,0,79,79,79,,,,,,,,,,,,,,,,,,,,,l,1,0.6993046999850776,,,,,,,,,,,,hcc,f,19,2024_Apr_17_1620,mian,2021.2.3,58.84024696626782,
6A,1,1,A,a,"[0.2, 0.2]",,,,,,,,,,,,,,,,,,,,0,0,0,0,,,,,,,,,,,,,,,,,a,1,1.1324026999936905,,,,,,,,,,,,hcc,f,19,2024_Apr_17_1620,mian,2021.2.3,58.84024696626782,
4H,1,2,H,a,"[-0.2, 0.2]",,,,,,,,,,,,,,,,,,,,0,1,1,1,,,,,,,,,,,,,,,,,a,1,0.5502443999866955,,,,,,,,,,,,hcc,f,19,2024_Apr_17_1620,mian,2021.2.3,58.84024696626782,
3H,2,1,3.0,a,"[-0.2, -0.2]",,,,,,,,,,,,,,,,,,,,0,2,2,2,,,,,,,,,,,,,,,,,a,1,0.7965889000042807,,,,,,,,,,,,hcc,f,19,2024_Apr_17_1620,mian,2021.2.3,58.84024696626782,
a9,2,2,9.0,a,"[0.2, -0.2]",,,,,,,,,,,,,,,,,,,,0,3,3,3,,,,,,,,,,,,,,,,,a,1,0.8902387999987695,,,,,,,,,,,,hcc,f,19,2024_Apr_17_1620,mian,2021.2.3,58.84024696626782,
E7,1,1,E,a,"[0.2, 0.2]",,,,,,,,,,,,,,,,,,,,0,4,4,4,,,,,,,,,,,,,,,,,a,1,0.7038903999782633,,,,,,,,,,,,hcc,f,19,2024_Apr_17_1620,mian,2021.2.3,58.84024696626782,
6h,1,2,h,l,"[-0.2, 0.2]",,,,,,,,,,,,,,,,,,,,0,5,5,5,,,,,,,,,,,,,,,,,l,1,0.8674041999911424,,,,,,,,,,,,hcc,f,19,2024_Apr_17_1620,mian,2021.2.3,58.84024696626782,
8A,2,1,8.0,l,"[-0.2, -0.2]",,,,,,,,,,,,,,,,,,,,0,6,6,6,,,,,,,,,,,,,,,,,l,1,1.2961265000049025,,,,,,,,,,,,hcc,f,19,2024_Apr_17_1620,mian,2021.2.3,58.84024696626782,
f5,2,2,5.0,a,"[0.2, -0.2]",,,,,,,,,,,,,,,,,,,,0,7,7,7,,,,,,,,,,,,,,,,,a,1,0.922020900005009,,,,,,,,,,,,hcc,f,19,2024_Apr_17_1620,mian,2021.2.3,58.84024696626782,
2a,1,1,a,l,"[0.2, 0.2]",,,,,,,,,,,,,,,,,,,,0,8,8,8,,,,,,,,,,,,,,,,,l,1,0.78502790001221,,,,,,,,,,,,hcc,f,19,2024_Apr_17_1620,mian,2021.2.3,58.84024696626782,
F7,1,2,F,a,"[-0.2, 0.2]",,,,,,,,,,,,,,,,,,,,0,9,9,9,,,,,,,,,,,,,,,,,a,1,0.6679897000140045,,,,,,,,,,,,hcc,f,19,2024_Apr_17_1620,mian,2021.2.3,58.84024696626782,
h2,2,1,2.0,l,"[-0.2, -0.2]",,,,,,,,,,,,,,,,,,,,0,10,10,10,,,,,,,,,,,,,,,,,l,1,1.091933700023219,,,,,,,,,,,,hcc,f,19,2024_Apr_17_1620,mian,2021.2.3,58.84024696626782,
F5,2,2,5.0,a,"[0.2, -0.2]",,,,,,,,,,,,,,,,,,,,0,11,11,11,,,,,,,,,,,,,,,,,a,1,1.3295599000121001,,,,,,,,,,,,hcc,f,19,2024_Apr_17_1620,mian,2021.2.3,58.84024696626782,
A9,1,1,A,a,"[0.2, 0.2]",,,,,,,,,,,,,,,,,,,,0,12,12,12,,,,,,,,,,,,,,,,,a,1,1.4056981999892741,,,,,,,,,,,,hcc,f,19,2024_Apr_17_1620,mian,2021.2.3,58.84024696626782,
3e,1,2,e,l,"[-0.2, 0.2]",,,,,,,,,,,,,,,,,,,,0,13,13,13,,,,,,,,,,,,,,,,,l,1,0.6291209000046365,,,,,,,,,,,,hcc,f,19,2024_Apr_17_1620,mian,2021.2.3,58.84024696626782,
f8,2,1,8.0,l,"[-0.2, -0.2]",,,,,,,,,,,,,,,,,,,,0,14,14,14,,,,,,,,,,,,,,,,,l,1,1.3855505999817979,,,,,,,,,,,,hcc,f,19,2024_Apr_17_1620,mian,2021.2.3,58.84024696626782,
G2,2,2,2.0,l,"[0.2, -0.2]",,,,,,,,,,,,,,,,,,,,0,15,15,15,,,,,,,,,,,,,,,,,l,1,0.5805772000167053,,,,,,,,,,,,hcc,f,19,2024_Apr_17_1620,mian,2021.2.3,58.84024696626782,
F2,1,1,F,a,"[0.2, 0.2]",,,,,,,,,,,,,,,,,,,,0,16,16,16,,,,,,,,,,,,,,,,,a,1,1.2011279999860562,,,,,,,,,,,,hcc,f,19,2024_Apr_17_1620,mian,2021.2.3,58.84024696626782,
5e,1,2,e,l,"[-0.2, 0.2]",,,,,,,,,,,,,,,,,,,,0,17,17,17,,,,,,,,,,,,,,,,,l,1,0.6776140000147279,,,,,,,,,,,,hcc,f,19,2024_Apr_17_1620,mian,2021.2.3,58.84024696626782,
A3,2,1,3.0,a,"[-0.2, -0.2]",,,,,,,,,,,,,,,,,,,,0,18,18,18,,,,,,,,,,,,,,,,,a,1,0.9475080999836791,,,,,,,,,,,,hcc,f,19,2024_Apr_17_1620,mian,2021.2.3,58.84024696626782,
4g,2,2,4.0,l,"[0.2, -0.2]",,,,,,,,,,,,,,,,,,,,0,19,19,19,,,,,,,,,,,,,,,,,l,1,0.8704593000002205,,,,,,,,,,,,hcc,f,19,2024_Apr_17_1620,mian,2021.2.3,58.84024696626782,
h7,1,1,h,l,"[0.2, 0.2]",,,,,,,,,,,,,,,,,,,,0,20,20,20,,,,,,,,,,,,,,,,,l,1,0.6716032999975141,,,,,,,,,,,,hcc,f,19,2024_Apr_17_1620,mian,2021.2.3,58.84024696626782,
3g,1,2,g,l,"[-0.2, 0.2]",,,,,,,,,,,,,,,,,,,,0,21,21,21,,,,,,,,,,,,,,,,,l,1,0.8459609000128694,,,,,,,,,,,,hcc,f,19,2024_Apr_17_1620,mian,2021.2.3,58.84024696626782,
8a,2,1,8.0,l,"[-0.2, -0.2]",,,,,,,,,,,,,,,,,,,,0,22,22,22,,,,,,,,,,,,,,,,,l,1,2.363049299980048,,,,,,,,,,,,hcc,f,19,2024_Apr_17_1620,mian,2021.2.3,58.84024696626782,
4E,2,2,4.0,l,"[0.2, -0.2]",,,,,,,,,,,,,,,,,,,,0,23,23,23,,,,,,,,,,,,,,,,,l,1,1.1786548999953084,,,,,,,,,,,,hcc,f,19,2024_Apr_17_1620,mian,2021.2.3,58.84024696626782,
E5,1,1,E,a,"[0.2, 0.2]",,,,,,,,,,,,,,,,,,,,0,24,24,24,,,,,,,,,,,,,,,,,a,1,0.666510000010021,,,,,,,,,,,,hcc,f,19,2024_Apr_17_1620,mian,2021.2.3,58.84024696626782,
g6,1,2,g,l,"[-0.2, 0.2]",,,,,,,,,,,,,,,,,,,,0,25,25,25,,,,,,,,,,,,,,,,,l,1,0.6289505000167992,,,,,,,,,,,,hcc,f,19,2024_Apr_17_1620,mian,2021.2.3,58.84024696626782,
2e,2,1,2.0,l,"[-0.2, -0.2]",,,,,,,,,,,,,,,,,,,,0,26,26,26,,,,,,,,,,,,,,,,,l,1,1.0751520000048913,,,,,,,,,,,,hcc,f,19,2024_Apr_17_1620,mian,2021.2.3,58.84024696626782,
h8,2,2,8.0,l,"[0.2, -0.2]",,,,,,,,,,,,,,,,,,,,0,27,27,27,,,,,,,,,,,,,,,,,l,1,0.6391980000189506,,,,,,,,,,,,hcc,f,19,2024_Apr_17_1620,mian,2021.2.3,58.84024696626782,
G6,1,1,G,a,"[0.2, 0.2]",,,,,,,,,,,,,,,,,,,,0,28,28,28,,,,,,,,,,,,,,,,,a,1,0.9485830000194255,,,,,,,,,,,,hcc,f,19,2024_Apr_17_1620,mian,2021.2.3,58.84024696626782,
a4,1,2,a,l,"[-0.2, 0.2]",,,,,,,,,,,,,,,,,,,,0,29,29,29,,,,,,,,,,,,,,,,,l,1,0.6328650000214111,,,,,,,,,,,,hcc,f,19,2024_Apr_17_1620,mian,2021.2.3,58.84024696626782,
9H,2,1,9.0,a,"[-0.2, -0.2]",,,,,,,,,,,,,,,,,,,,0,30,30,30,,,,,,,,,,,,,,,,,a,1,3.004047599999467,,,,,,,,,,,,hcc,f,19,2024_Apr_17_1620,mian,2021.2.3,58.84024696626782,
7H,2,2,7.0,a,"[0.2, -0.2]",,,,,,,,,,,,,,,,,,,,0,31,31,31,,,,,,,,,,,,,,,,,a,1,0.6187334999849554,,,,,,,,,,,,hcc,f,19,2024_Apr_17_1620,mian,2021.2.3,58.84024696626782,
9f,1,1,f,l,"[0.2, 0.2]",,,,,,,,,,,,,,,,,,,,0,32,32,32,,,,,,,,,,,,,,,,,l,1,1.455135700001847,,,,,,,,,,,,hcc,f,19,2024_Apr_17_1620,mian,2021.2.3,58.84024696626782,
8E,1,2,E,a,"[-0.2, 0.2]",,,,,,,,,,,,,,,,,,,,0,33,33,33,,,,,,,,,,,,,,,,,a,1,0.6331773999845609,,,,,,,,,,,,hcc,f,19,2024_Apr_17_1620,mian,2021.2.3,58.84024696626782,
A2,2,1,2.0,l,"[-0.2, -0.2]",,,,,,,,,,,,,,,,,,,,0,34,34,34,,,,,,,,,,,,,,,,,l,1,0.7845400999940466,,,,,,,,,,,,hcc,f,19,2024_Apr_17_1620,mian,2021.2.3,58.84024696626782,
H7,2,2,7.0,a,"[0.2, -0.2]",,,,,,,,,,,,,,,,,,,,0,35,35,35,,,,,,,,,,,,,,,,,a,1,2.2854524000140373,,,,,,,,,,,,hcc,f,19,2024_Apr_17_1620,mian,2021.2.3,58.84024696626782,
h9,1,1,h,l,"[0.2, 0.2]",,,,,,,,,,,,,,,,,,,,0,36,36,36,,,,,,,,,,,,,,,,,l,1,0.9369694000051823,,,,,,,,,,,,hcc,f,19,2024_Apr_17_1620,mian,2021.2.3,58.84024696626782,
8G,1,2,G,a,"[-0.2, 0.2]",,,,,,,,,,,,,,,,,,,,0,37,37,37,,,,,,,,,,,,,,,,,a,1,0.5844452000164893,,,,,,,,,,,,hcc,f,19,2024_Apr_17_1620,mian,2021.2.3,58.84024696626782,
H4,2,1,4.0,l,"[-0.2, -0.2]",,,,,,,,,,,,,,,,,,,,0,38,38,38,,,,,,,,,,,,,,,,,l,1,0.8658816000097431,,,,,,,,,,,,hcc,f,19,2024_Apr_17_1620,mian,2021.2.3,58.84024696626782,
A8,2,2,8.0,l,"[0.2, -0.2]",,,,,,,,,,,,,,,,,,,,0,39,39,39,,,,,,,,,,,,,,,,,l,1,1.0821448999922723,,,,,,,,,,,,hcc,f,19,2024_Apr_17_1620,mian,2021.2.3,58.84024696626782,
g7,1,1,g,l,"[0.2, 0.2]",,,,,,,,,,,,,,,,,,,,0,40,40,40,,,,,,,,,,,,,,,,,l,1,2.4351676999940537,,,,,,,,,,,,hcc,f,19,2024_Apr_17_1620,mian,2021.2.3,58.84024696626782,
H9,1,2,H,a,"[-0.2, 0.2]",,,,,,,,,,,,,,,,,,,,0,41,41,41,,,,,,,,,,,,,,,,,a,1,0.69432060001418,,,,,,,,,,,,hcc,f,19,2024_Apr_17_1620,mian,2021.2.3,58.84024696626782,
9E,2,1,9.0,a,"[-0.2, -0.2]",,,,,,,,,,,,,,,,,,,,0,42,42,42,,,,,,,,,,,,,,,,,a,1,0.9558244000072591,,,,,,,,,,,,hcc,f,19,2024_Apr_17_1620,mian,2021.2.3,58.84024696626782,
a5,2,2,5.0,a,"[0.2, -0.2]",,,,,,,,,,,,,,,,,,,,0,43,43,43,,,,,,,,,,,,,,,,,a,1,1.007578899996588,,,,,,,,,,,,hcc,f,19,2024_Apr_17_1620,mian,2021.2.3,58.84024696626782,
3E,1,1,E,a,"[0.2, 0.2]",,,,,,,,,,,,,,,,,,,,0,44,44,44,,,,,,,,,,,,,,,,,a,1,3.8733229000063147,,,,,,,,,,,,hcc,f,19,2024_Apr_17_1620,mian,2021.2.3,58.84024696626782,
6f,1,2,f,l,"[-0.2, 0.2]",,,,,,,,,,,,,,,,,,,,0,45,45,45,,,,,,,,,,,,,,,,,l,1,2.9675802999990992,,,,,,,,,,,,hcc,f,19,2024_Apr_17_1620,mian,2021.2.3,58.84024696626782,
g8,2,1,8.0,l,"[-0.2, -0.2]",,,,,,,,,,,,,,,,,,,,0,46,46,46,,,,,,,,,,,,,,,,,l,1,1.147426000010455,,,,,,,,,,,,hcc,f,19,2024_Apr_17_1620,mian,2021.2.3,58.84024696626782,
4F,2,2,4.0,l,"[0.2, -0.2]",,,,,,,,,,,,,,,,,,,,0,47,47,47,,,,,,,,,,,,,,,,,l,1,1.1922736999986228,,,,,,,,,,,,hcc,f,19,2024_Apr_17_1620,mian,2021.2.3,58.84024696626782,
4a,1,1,a,l,"[0.2, 0.2]",,,,,,,,,,,,,,,,,,,,0,48,48,48,,,,,,,,,,,,,,,,,l,1,0.9001943000184838,,,,,,,,,,,,hcc,f,19,2024_Apr_17_1620,mian,2021.2.3,58.84024696626782,
e3,1,2,e,l,"[-0.2, 0.2]",,,,,,,,,,,,,,,,,,,,0,49,49,49,,,,,,,,,,,,,,,,,l,1,0.4731644999992568,,,,,,,,,,,,hcc,f,19,2024_Apr_17_1620,mian,2021.2.3,58.84024696626782,
5g,2,1,5.0,a,"[-0.2, -0.2]",,,,,,,,,,,,,,,,,,,,0,50,50,50,,,,,,,,,,,,,,,,,a,1,0.6409014999808278,,,,,,,,,,,,hcc,f,19,2024_Apr_17_1620,mian,2021.2.3,58.84024696626782,
f4,2,2,4.0,l,"[0.2, -0.2]",,,,,,,,,,,,,,,,,,,,0,51,51,51,,,,,,,,,,,,,,,,,l,1,0.5315750999725424,,,,,,,,,,,,hcc,f,19,2024_Apr_17_1620,mian,2021.2.3,58.84024696626782,
6E,1,1,E,a,"[0.2, 0.2]",,,,,,,,,,,,,,,,,,,,0,52,52,52,,,,,,,,,,,,,,,,,a,1,0.7272464999987278,,,,,,,,,,,,hcc,f,19,2024_Apr_17_1620,mian,2021.2.3,58.84024696626782,
7A,1,2,A,a,"[-0.2, 0.2]",,,,,,,,,,,,,,,,,,,,0,53,53,53,,,,,,,,,,,,,,,,,a,1,0.4086805999977514,,,,,,,,,,,,hcc,f,19,2024_Apr_17_1620,mian,2021.2.3,58.84024696626782,
F4,2,1,4.0,l,"[-0.2, -0.2]",,,,,,,,,,,,,,,,,,,,0,54,54,54,,,,,,,,,,,,,,,,,l,1,0.6957357999926899,,,,,,,,,,,,hcc,f,19,2024_Apr_17_1620,mian,2021.2.3,58.84024696626782,
2g,2,2,2.0,l,"[0.2, -0.2]",,,,,,,,,,,,,,,,,,,,0,55,55,55,,,,,,,,,,,,,,,,,l,1,0.6989987000124529,,,,,,,,,,,,hcc,f,19,2024_Apr_17_1620,mian,2021.2.3,58.84024696626782,
7E,1,1,E,a,"[0.2, 0.2]",,,,,,,,,,,,,,,,,,,,0,56,56,56,,,,,,,,,,,,,,,,,a,1,1.256156799994642,,,,,,,,,,,,hcc,f,19,2024_Apr_17_1620,mian,2021.2.3,58.84024696626782,
G4,1,2,G,a,"[-0.2, 0.2]",,,,,,,,,,,,,,,,,,,,0,57,57,57,,,,,,,,,,,,,,,,,a,1,0.44638700000359677,,,,,,,,,,,,hcc,f,19,2024_Apr_17_1620,mian,2021.2.3,58.84024696626782,
2F,2,1,2.0,l,"[-0.2, -0.2]",,,,,,,,,,,,,,,,,,,,0,58,58,58,,,,,,,,,,,,,,,,,l,1,1.1558787999965716,,,,,,,,,,,,hcc,f,19,2024_Apr_17_1620,mian,2021.2.3,58.84024696626782,
E9,2,2,9.0,a,"[0.2, -0.2]",,,,,,,,,,,,,,,,,,,,0,59,59,59,,,,,,,,,,,,,,,,,a,1,1.6937928999832366,,,,,,,,,,,,hcc,f,19,2024_Apr_17_1620,mian,2021.2.3,58.84024696626782,
5f,1,1,f,l,"[0.2, 0.2]",,,,,,,,,,,,,,,,,,,,0,60,60,60,,,,,,,,,,,,,,,,,l,1,1.9958307000051718,,,,,,,,,,,,hcc,f,19,2024_Apr_17_1620,mian,2021.2.3,58.84024696626782,
e7,1,2,e,l,"[-0.2, 0.2]",,,,,,,,,,,,,,,,,,,,0,61,61,61,,,,,,,,,,,,,,,,,l,1,1.8632617999974173,,,,,,,,,,,,hcc,f,19,2024_Apr_17_1620,mian,2021.2.3,58.84024696626782,
f2,2,1,2.0,l,"[-0.2, -0.2]",,,,,,,,,,,,,,,,,,,,0,62,62,62,,,,,,,,,,,,,,,,,l,1,1.149173099984182,,,,,,,,,,,,hcc,f,19,2024_Apr_17_1620,mian,2021.2.3,58.84024696626782,
G9,2,2,9.0,a,"[0.2, -0.2]",,,,,,,,,,,,,,,,,,,,0,63,63,63,,,,,,,,,,,,,,,,,a,1,0.7668484000023454,,,,,,,,,,,,hcc,f,19,2024_Apr_17_1620,mian,2021.2.3,58.84024696626782,
7g,1,1,g,l,"[0.2, 0.2]",,,,,,,,,,,,,,,,,,,,0,64,64,64,,,,,,,,,,,,,,,,,l,1,0.8931992000143509,,,,,,,,,,,,hcc,f,19,2024_Apr_17_1620,mian,2021.2.3,58.84024696626782,
F8,1,2,F,a,"[-0.2, 0.2]",,,,,,,,,,,,,,,,,,,,0,65,65,65,,,,,,,,,,,,,,,,,a,1,1.593347200017888,,,,,,,,,,,,hcc,f,19,2024_Apr_17_1620,mian,2021.2.3,58.84024696626782,
A7,2,1,7.0,a,"[-0.2, -0.2]",,,,,,,,,,,,,,,,,,,,0,66,66,66,,,,,,,,,,,,,,,,,a,1,0.9985937000019476,,,,,,,,,,,,hcc,f,19,2024_Apr_17_1620,mian,2021.2.3,58.84024696626782,
4G,2,2,4.0,l,"[0.2, -0.2]",,,,,,,,,,,,,,,,,,,,0,67,67,67,,,,,,,,,,,,,,,,,l,1,1.8806129000149667,,,,,,,,,,,,hcc,f,19,2024_Apr_17_1620,mian,2021.2.3,58.84024696626782,
g2,1,1,g,l,"[0.2, 0.2]",,,,,,,,,,,,,,,,,,,,0,68,68,68,,,,,,,,,,,,,,,,,l,1,0.9214573999925051,,,,,,,,,,,,hcc,f,19,2024_Apr_17_1620,mian,2021.2.3,58.84024696626782,
g4,1,2,g,l,"[-0.2, 0.2]",,,,,,,,,,,,,,,,,,,,0,69,69,69,,,,,,,,,,,,,,,,,l,1,0.4495292000065092,,,,,,,,,,,,hcc,f,19,2024_Apr_17_1620,mian,2021.2.3,58.84024696626782,
7a,2,1,7.0,a,"[-0.2, -0.2]",,,,,,,,,,,,,,,,,,,,0,70,70,70,,,,,,,,,,,,,,,,,a,1,0.6640559999796096,,,,,,,,,,,,hcc,f,19,2024_Apr_17_1620,mian,2021.2.3,58.84024696626782,
8e,2,2,8.0,l,"[0.2, -0.2]",,,,,,,,,,,,,,,,,,,,0,71,71,71,,,,,,,,,,,,,,,,,l,1,0.6774348000180908,,,,,,,,,,,,hcc,f,19,2024_Apr_17_1620,mian,2021.2.3,58.84024696626782,
h4,1,1,h,l,"[0.2, 0.2]",,,,,,,,,,,,,,,,,,,,0,72,72,72,,,,,,,,,,,,,,,,,l,1,1.1239289999939501,,,,,,,,,,,,hcc,f,19,2024_Apr_17_1620,mian,2021.2.3,58.84024696626782,
G8,1,2,G,a,"[-0.2, 0.2]",,,,,,,,,,,,,,,,,,,,0,73,73,73,,,,,,,,,,,,,,,,,a,1,0.5059316999977455,,,,,,,,,,,,hcc,f,19,2024_Apr_17_1620,mian,2021.2.3,58.84024696626782,
6F,2,1,6.0,l,"[-0.2, -0.2]",,,,,,,,,,,,,,,,,,,,0,74,74,74,,,,,,,,,,,,,,,,,l,1,2.360279599990463,,,,,,,,,,,,hcc,f,19,2024_Apr_17_1620,mian,2021.2.3,58.84024696626782,
g5,2,2,5.0,a,"[0.2, -0.2]",,,,,,,,,,,,,,,,,,,,0,75,75,75,,,,,,,,,,,,,,,,,a,1,0.747591299994383,,,,,,,,,,,,hcc,f,19,2024_Apr_17_1620,mian,2021.2.3,58.84024696626782,
G5,1,1,G,a,"[0.2, 0.2]",,,,,,,,,,,,,,,,,,,,0,76,76,76,,,,,,,,,,,,,,,,,a,1,1.132446900010109,,,,,,,,,,,,hcc,f,19,2024_Apr_17_1620,mian,2021.2.3,58.84024696626782,
h5,1,2,h,l,"[-0.2, 0.2]",,,,,,,,,,,,,,,,,,,,0,77,77,77,,,,,,,,,,,,,,,,,l,1,0.6653820000065025,,,,,,,,,,,,hcc,f,19,2024_Apr_17_1620,mian,2021.2.3,58.84024696626782,
9G,2,1,9.0,a,"[-0.2, -0.2]",,,,,,,,,,,,,,,,,,,,0,78,78,78,,,,,,,,,,,,,,,,,a,1,1.2118276000255719,,,,,,,,,,,,hcc,f,19,2024_Apr_17_1620,mian,2021.2.3,58.84024696626782,
F3,2,2,3.0,a,"[0.2, -0.2]",,,,,,,,,,,,,,,,,,,,0,79,79,79,,,,,,,,,,,,,,,,,a,1,0.9986862000077963,,,,,,,,,,,,hcc,f,19,2024_Apr_17_1620,mian,2021.2.3,58.84024696626782,
,,,,,,0,0,pic/flanker5.png,pic/flanker1.png,s,l,,,,,,,,,,,,,,,,,,0,0,0,0,0,0,0,3,,,,,,,,,,,,514.743755500007,None,513.5577675999957,514.7604001,None,0,损害,l,1,1.1084505999751855,,hcc,f,19,2024_Apr_17_1620,mian,2021.2.3,58.84024696626782,
,,,,,,1,0,pic/flanker5.png,pic/flanker3.png,a,l,,,,,,,,,,,,,,,,,,0,0,0,0,0,1,1,7,,,,,,,,,,,,519.2628821000108,None,518.0791850000096,519.2800972000114,None,0,别扭,l,1,1.3904046999814454,,hcc,f,19,2024_Apr_17_1620,mian,2021.2.3,58.84024696626782,
,,,,,,1,1,pic/flanker5.png,pic/flanker3.png,a,k,,,,,,,,,,,,,,,,,,0,0,0,0,0,2,2,4,,,,,,,,,,,,523.9656231999979,None,522.781765599997,523.9819580000185,None,0,丰满,k,1,1.2124515999748837,,hcc,f,19,2024_Apr_17_1620,mian,2021.2.3,58.84024696626782,
,,,,,,0,1,pic/flanker6.png,pic/flanker2.png,a,k,,,,,,,,,,,,,,,,,,0,0,0,0,0,3,3,2,,,,,,,,,,,,528.4840934000094,None,527.3006291000056,528.5022506000241,a,1,珍藏,k,1,0.847786600003019,0.6428411000233609,hcc,f,19,2024_Apr_17_1620,mian,2021.2.3,58.84024696626782,
,,,,,,0,0,pic/flanker6.png,pic/flanker2.png,a,l,,,,,,,,,,,,,,,,,,0,0,0,0,0,4,4,1,,,,,,,,,,,,531.8693194000225,None,530.6854443000047,531.8869373000052,a,1,失意,l,1,0.8440174999996088,0.5379200000024866,hcc,f,19,2024_Apr_17_1620,mian,2021.2.3,58.84024696626782,
,,,,,,1,0,pic/flanker6.png,pic/flanker4.png,s,l,,,,,,,,,,,,,,,,,,0,0,0,0,0,5,5,5,,,,,,,,,,,,535.0880987000128,None,533.9042840000184,535.1049013000156,s,1,排斥,l,1,0.8058976999891456,0.5839870999916457,hcc,f,19,2024_Apr_17_1620,mian,2021.2.3,58.84024696626782,
,,,,,,0,1,pic/flanker5.png,pic/flanker1.png,s,k,,,,,,,,,,,,,,,,,,0,0,0,0,0,6,6,0,,,,,,,,,,,,538.4898336000042,None,537.3057222000207,538.5060688000231,s,1,充裕,k,1,0.6767227999807801,0.5894861000124365,hcc,f,19,2024_Apr_17_1620,mian,2021.2.3,58.84024696626782,
,,,,,,1,1,pic/flanker6.png,pic/flanker4.png,s,k,,,,,,,,,,,,,,,,,,0,0,0,0,0,7,7,6,,,,,,,,,,,,541.7913652000134,None,540.6077645000187,541.8081460999965,s,1,雄厚,k,1,0.7436085999943316,0.6759851000097115,hcc,f,19,2024_Apr_17_1620,mian,2021.2.3,58.84024696626782,
,,,,,,,,,,,,,,,,,,,,,,,,,,,,,0,0,0,0,,,,,,,,,,,,,,,,,,,,,,,,,,,hcc,f,19,2024_Apr_17_1620,mian,2021.2.3,58.84024696626782,
,,,,,,1,0,pic/flanker5.png,pic/flanker3.png,a,l,pic/AffRest1.png,,,,,,,,,,,,,,,,,,,,,,,,,0,0,0,0,0,0,0,39,,,,560.167073300021,None,558.9918140000082,560.2000821999973,a,1,心慌,l,1,0.7497883999894839,0.5905798000167124,hcc,f,19,2024_Apr_17_1620,mian,2021.2.3,58.84024696626782,
,,,,,,0,0,pic/flanker6.png,pic/flanker2.png,a,l,pic/AffRest1.png,,,,,,,,,,,,,,,,,,,,,,,,,0,0,0,0,0,1,1,33,,,,563.6191835000063,None,562.4347694000171,563.6358696000243,a,1,杂乱,l,1,0.6469913000182714,0.4980988999886904,hcc,f,19,2024_Apr_17_1620,mian,2021.2.3,58.84024696626782,
,,,,,,0,0,pic/flanker5.png,pic/flanker1.png,s,l,pic/AffRest1.png,,,,,,,,,,,,,,,,,,,,,,,,,0,0,0,0,0,2,2,19,,,,566.720326700015,None,565.5366724000196,566.737488600018,s,1,怀疑,l,1,0.6932049999886658,0.5045890999899711,hcc,f,19,2024_Apr_17_1620,mian,2021.2.3,58.84024696626782,
,,,,,,1,0,pic/flanker5.png,pic/flanker3.png,a,l,pic/AffRest1.png,,,,,,,,,,,,,,,,,,,,,,,,,0,0,0,0,0,3,3,55,,,,569.9561392000178,None,568.7718152000161,569.9729376000178,a,1,伤心,l,1,0.7075986999843735,0.5240914000023622,hcc,f,19,2024_Apr_17_1620,mian,2021.2.3,58.84024696626782,
,,,,,,1,1,pic/flanker6.png,pic/flanker4.png,s,k,pic/AffRest1.png,,,,,,,,,,,,,,,,,,,,,,,,,0,0,0,0,0,4,4,6,,,,573.0759735000029,None,571.8904046000098,573.0909872000047,s,1,敬佩,k,1,0.5928571000113152,0.5985404000093695,hcc,f,19,2024_Apr_17_1620,mian,2021.2.3,58.84024696626782,
,,,,,,1,1,pic/flanker5.png,pic/flanker3.png,a,k,pic/AffRest1.png,,,,,,,,,,,,,,,,,,,,,,,,,0,0,0,0,0,5,5,44,,,,576.1600794999977,None,574.9747638000117,576.1753954000014,a,1,热切,k,1,0.835492999991402,0.4758439999714028,hcc,f,19,2024_Apr_17_1620,mian,2021.2.3,58.84024696626782,
,,,,,,0,1,pic/flanker5.png,pic/flanker1.png,s,k,pic/AffRest1.png,,,,,,,,,,,,,,,,,,,,,,,,,0,0,0,0,0,6,6,16,,,,579.4606108000153,None,578.2768452000164,579.4764391000208,s,1,有利,k,1,0.6122621000104118,0.4345168999861926,hcc,f,19,2024_Apr_17_1620,mian,2021.2.3,58.84024696626782,
,,,,,,0,1,pic/flanker6.png,pic/flanker2.png,a,k,pic/AffRest1.png,,,,,,,,,,,,,,,,,,,,,,,,,0,0,0,0,0,7,7,66,,,,582.3616892000136,None,581.1781695999962,582.3789163000183,a,1,瑰丽,k,1,0.5717505000066012,0.39001879998249933,hcc,f,19,2024_Apr_17_1620,mian,2021.2.3,58.84024696626782,
,,,,,,0,0,pic/flanker5.png,pic/flanker1.png,s,l,pic/AffRest1.png,,,,,,,,,,,,,,,,,,,,,,,,,0,0,0,0,0,8,8,43,,,,585.1968315000122,None,584.0126729000185,585.2142042000196,s,1,胡涂,l,1,1.3578291999874637,0.4330564999836497,hcc,f,19,2024_Apr_17_1620,mian,2021.2.3,58.84024696626782,
,,,,,,0,0,pic/flanker6.png,pic/flanker2.png,a,l,pic/AffRest1.png,,,,,,,,,,,,,,,,,,,,,,,,,0,0,0,0,0,9,9,17,,,,588.8481925000087,None,587.6642734000052,588.8655237000203,a,1,落后,l,1,0.9864945999870542,0.47823959999368526,hcc,f,19,2024_Apr_17_1620,mian,2021.2.3,58.84024696626782,
,,,,,,0,0,pic/flanker6.png,pic/flanker2.png,a,l,pic/AffRest1.png,,,,,,,,,,,,,,,,,,,,,,,,,0,0,0,0,0,10,10,9,,,,592.2504230000195,None,591.066387400002,592.2663270000194,a,1,自卑,l,1,0.8650366999791004,0.40931849999469705,hcc,f,19,2024_Apr_17_1620,mian,2021.2.3,58.84024696626782,
,,,,,,0,1,pic/flanker5.png,pic/flanker1.png,s,k,pic/AffRest1.png,,,,,,,,,,,,,,,,,,,,,,,,,0,0,0,0,0,11,11,0,,,,595.3521944000095,None,594.1682296000072,595.3693665000028,s,1,精致,k,1,0.6462811999954283,0.4028186000068672,hcc,f,19,2024_Apr_17_1620,mian,2021.2.3,58.84024696626782,
,,,,,,0,1,pic/flanker6.png,pic/flanker2.png,a,k,pic/AffRest1.png,,,,,,,,,,,,,,,,,,,,,,,,,0,0,0,0,0,12,12,26,,,,598.4363323000143,None,597.2525575000036,598.4531514999981,a,1,豪放,k,1,1.5529627999931108,0.46509020001394674,hcc,f,19,2024_Apr_17_1620,mian,2021.2.3,58.84024696626782,
,,,,,,1,1,pic/flanker5.png,pic/flanker3.png,a,k,pic/AffRest1.png,,,,,,,,,,,,,,,,,,,,,,,,,0,0,0,0,0,13,13,28,,,,602.5057349000126,None,601.3215691000223,602.5223565000051,a,1,诚恳,k,1,0.5354128000035416,0.713501999998698,hcc,f,19,2024_Apr_17_1620,mian,2021.2.3,58.84024696626782,
,,,,,,1,1,pic/flanker5.png,pic/flanker3.png,a,k,pic/AffRest1.png,,,,,,,,,,,,,,,,,,,,,,,,,0,0,0,0,0,14,14,20,,,,605.7743055000028,None,604.5902381000051,605.7905620000092,a,1,富足,k,1,0.6181448999850545,0.5168317999923602,hcc,f,19,2024_Apr_17_1620,mian,2021.2.3,58.84024696626782,
,,,,,,1,1,pic/flanker6.png,pic/flanker4.png,s,k,pic/AffRest1.png,,,,,,,,,,,,,,,,,,,,,,,,,0,0,0,0,0,15,15,22,,,,608.7420792000194,None,607.5576907000213,608.7589567000105,s,1,丰满,k,1,0.6088026000070386,0.5294519999879412,hcc,f,19,2024_Apr_17_1620,mian,2021.2.3,58.84024696626782,
,,,,,,0,1,pic/flanker5.png,pic/flanker1.png,s,k,pic/AffRest1.png,,,,,,,,,,,,,,,,,,,,,,,,,0,0,0,0,0,16,16,48,,,,611.8444307000027,None,610.6591902000073,611.8605958000117,s,1,俊秀,k,1,0.5666511000017636,0.4438654000114184,hcc,f,19,2024_Apr_17_1620,mian,2021.2.3,58.84024696626782,
,,,,,,0,1,pic/flanker5.png,pic/flanker1.png,s,k,pic/AffRest1.png,,,,,,,,,,,,,,,,,,,,,,,,,0,0,0,0,0,17,17,64,,,,614.8784032000112,None,613.6950417000044,614.895053300017,s,1,优雅,k,1,0.5419336000049952,0.4748903000145219,hcc,f,19,2024_Apr_17_1620,mian,2021.2.3,58.84024696626782,
,,,,,,0,1,pic/flanker6.png,pic/flanker2.png,a,k,pic/AffRest1.png,,,,,,,,,,,,,,,,,,,,,,,,,0,0,0,0,0,18,18,18,,,,617.9129606000206,None,616.7295473999984,617.93009910002,a,1,秀丽,k,1,0.4958578000077978,0.5287572999950498,hcc,f,19,2024_Apr_17_1620,mian,2021.2.3,58.84024696626782,
,,,,,,1,0,pic/flanker5.png,pic/flanker3.png,a,l,pic/AffRest1.png,,,,,,,,,,,,,,,,,,,,,,,,,0,0,0,0,0,19,19,47,,,,620.7482116000028,None,619.5634132999985,620.7650485000049,a,1,堵塞,l,1,0.884632800007239,0.5736771999800112,hcc,f,19,2024_Apr_17_1620,mian,2021.2.3,58.84024696626782,
,,,,,,0,1,pic/flanker6.png,pic/flanker2.png,a,k,pic/AffRest1.png,,,,,,,,,,,,,,,,,,,,,,,,,0,0,0,0,0,20,20,2,,,,624.1329990000231,None,622.9492407000216,624.1500288000097,a,1,珍藏,k,1,0.5236213999742176,0.49279139999998733,hcc,f,19,2024_Apr_17_1620,mian,2021.2.3,58.84024696626782,
,,,,,,0,1,pic/flanker5.png,pic/flanker1.png,s,k,pic/AffRest1.png,,,,,,,,,,,,,,,,,,,,,,,,,0,0,0,0,0,21,21,56,,,,627.1677952000173,None,625.9835524000227,627.1841627999966,s,1,留恋,k,1,0.5805153000110295,0.48979680001502857,hcc,f,19,2024_Apr_17_1620,mian,2021.2.3,58.84024696626782,
,,,,,,1,1,pic/flanker5.png,pic/flanker3.png,a,k,pic/AffRest1.png,,,,,,,,,,,,,,,,,,,,,,,,,0,0,0,0,0,22,22,12,,,,630.2235724000202,None,629.0361208000104,630.2360815000138,a,1,享受,k,1,0.5440197999996599,0.44569749999209307,hcc,f,19,2024_Apr_17_1620,mian,2021.2.3,58.84024696626782,
,,,,,,1,0,pic/flanker6.png,pic/flanker4.png,s,l,pic/AffRest1.png,,,,,,,,,,,,,,,,,,,,,,,,,0,0,0,0,0,23,23,69,,,,633.2377723000245,None,632.0539089000085,633.254434500006,s,1,厌恶,l,1,0.5602153000072576,0.49913569999625906,hcc,f,19,2024_Apr_17_1620,mian,2021.2.3,58.84024696626782,
,,,,,,0,1,pic/flanker6.png,pic/flanker2.png,a,k,pic/AffRest1.png,,,,,,,,,,,,,,,,,,,,,,,,,0,0,0,0,0,24,24,50,,,,636.1234427000163,None,634.9398863000097,636.1400247999991,a,1,生动,k,1,0.6282291999959853,0.42579490001662634,hcc,f,19,2024_Apr_17_1620,mian,2021.2.3,58.84024696626782,
,,,,,,0,0,pic/flanker6.png,pic/flanker2.png,a,l,pic/AffRest1.png,,,,,,,,,,,,,,,,,,,,,,,,,0,0,0,0,0,25,25,49,,,,639.0575716000167,None,637.8727595000237,639.074683200015,a,1,闷热,l,1,1.2499347999983002,0.37887830002000555,hcc,f,19,2024_Apr_17_1620,mian,2021.2.3,58.84024696626782,
,,,,,,0,1,pic/flanker6.png,pic/flanker2.png,a,k,pic/AffRest1.png,,,,,,,,,,,,,,,,,,,,,,,,,0,0,0,0,0,26,26,58,,,,642.6089008999988,None,641.4249882000149,642.6257488999981,a,1,旺盛,k,1,0.5482486999826506,0.36379490001127124,hcc,f,19,2024_Apr_17_1620,mian,2021.2.3,58.84024696626782,
,,,,,,0,0,pic/flanker6.png,pic/flanker2.png,a,l,pic/AffRest1.png,,,,,,,,,,,,,,,,,,,,,,,,,0,0,0,0,0,27,27,57,,,,645.3783414000063,None,644.1930786000157,645.3948195000121,a,1,烦恼,l,1,0.7266395000042394,0.3855094999889843,hcc,f,19,2024_Apr_17_1620,mian,2021.2.3,58.84024696626782,
,,,,,,1,0,pic/flanker6.png,pic/flanker4.png,s,l,pic/AffRest1.png,,,,,,,,,,,,,,,,,,,,,,,,,0,0,0,0,0,28,28,21,,,,648.3623350000125,None,647.1777568999969,648.3792373000178,s,1,沮丧,l,1,0.6799672999768518,0.7145571000000928,hcc,f,19,2024_Apr_17_1620,mian,2021.2.3,58.84024696626782,
,,,,,,0,1,pic/flanker5.png,pic/flanker1.png,s,k,pic/AffRest1.png,,,,,,,,,,,,,,,,,,,,,,,,,0,0,0,0,0,29,29,32,,,,651.7472894000239,None,650.5626508000132,651.7633158000244,s,1,雄厚,k,1,0.5259716000000481,0.4700641999952495,hcc,f,19,2024_Apr_17_1620,mian,2021.2.3,58.84024696626782,
,,,,,,0,0,pic/flanker5.png,pic/flanker1.png,s,l,pic/AffRest1.png,,,,,,,,,,,,,,,,,,,,,,,,,0,0,0,0,0,30,30,35,,,,654.7816737999965,None,653.5975921000063,654.7985750000225,s,1,缺乏,l,1,0.9428223000140861,0.4224252999993041,hcc,f,19,2024_Apr_17_1620,mian,2021.2.3,58.84024696626782,
,,,,,,0,1,pic/flanker6.png,pic/flanker2.png,a,k,pic/AffRest1.png,,,,,,,,,,,,,,,,,,,,,,,,,0,0,0,0,0,31,31,74,,,,658.0181806000182,None,656.8329322000209,658.034744500008,a,1,振作,k,1,0.6867759999877308,0.5924649000226054,hcc,f,19,2024_Apr_17_1620,mian,2021.2.3,58.84024696626782,
,,,,,,0,0,pic/flanker6.png,pic/flanker2.png,a,l,pic/AffRest1.png,,,,,,,,,,,,,,,,,,,,,,,,,0,0,0,0,0,32,32,25,,,,661.3191116000235,None,660.1344110000064,661.3357239000034,a,1,消沉,l,1,0.801161300012609,0.3456546000088565,hcc,f,19,2024_Apr_17_1620,mian,2021.2.3,58.84024696626782,
,,,,,,0,1,pic/flanker6.png,pic/flanker2.png,a,k,pic/AffRest1.png,,,,,,,,,,,,,,,,,,,,,,,,,0,0,0,0,0,33,33,34,,,,664.4538638000085,None,663.2695271999983,664.470376000012,a,1,富丽,k,1,0.5368497000017669,0.35365099998307414,hcc,f,19,2024_Apr_17_1620,mian,2021.2.3,58.84024696626782,
,,,,,,1,1,pic/flanker5.png,pic/flanker3.png,a,k,pic/AffRest1.png,,,,,,,,,,,,,,,,,,,,,,,,,0,0,0,0,0,34,34,36,,,,667.3883392999996,None,666.2044479000033,667.4056119000015,a,1,奉献,k,1,0.5918407999852207,0.5238974000094458,hcc,f,19,2024_Apr_17_1620,mian,2021.2.3,58.84024696626782,
,,,,,,0,1,pic/flanker6.png,pic/flanker2.png,a,k,pic/AffRest1.png,,,,,,,,,,,,,,,,,,,,,,,,,0,0,0,0,0,35,35,10,,,,670.5232889000035,None,669.3397335000045,670.5396371000097,a,1,畅销,k,1,0.5823506999877281,0.3396096999931615,hcc,f,19,2024_Apr_17_1620,mian,2021.2.3,58.84024696626782,
,,,,,,1,1,pic/flanker5.png,pic/flanker3.png,a,k,pic/AffRest1.png,,,,,,,,,,,,,,,,,,,,,,,,,0,0,0,0,0,36,36,68,,,,673.4752231000166,None,672.2914257000084,673.4918873000133,a,1,正直,k,1,0.5046048999938648,0.5912953999941237,hcc,f,19,2024_Apr_17_1620,mian,2021.2.3,58.84024696626782,
,,,,,,1,0,pic/flanker6.png,pic/flanker4.png,s,l,pic/AffRest1.png,,,,,,,,,,,,,,,,,,,,,,,,,0,0,0,0,0,37,37,53,,,,676.4936699999962,None,675.3115124000178,676.5272856000229,s,1,别扭,l,1,0.9199331999989226,0.5605128000024706,hcc,f,19,2024_Apr_17_1620,mian,2021.2.3,58.84024696626782,
,,,,,,1,1,pic/flanker6.png,pic/flanker4.png,s,k,pic/AffRest1.png,,,,,,,,,,,,,,,,,,,,,,,,,0,0,0,0,0,38,38,38,,,,679.7951447000087,None,678.6101619999972,679.812061900011,s,1,公平,k,1,0.609785800013924,0.5933853999886196,hcc,f,19,2024_Apr_17_1620,mian,2021.2.3,58.84024696626782,
,,,,,,1,0,pic/flanker6.png,pic/flanker4.png,s,l,pic/AffRest1.png,,,,,,,,,,,,,,,,,,,,,,,,,0,0,0,0,0,39,39,61,,,,682.8633031000209,None,681.6798537000141,682.880090599996,s,1,禁止,l,1,1.8057113999966532,0.4981195000000298,hcc,f,19,2024_Apr_17_1620,mian,2021.2.3,58.84024696626782,
,,,,,,1,1,pic/flanker5.png,pic/flanker3.png,a,k,pic/AffRest1.png,,,,,,,,,,,,,,,,,,,,,,,,,0,0,0,0,0,40,40,60,,,,687.1487553000043,None,685.9652035000036,687.1654561000178,a,1,如愿,k,1,0.5216027999995276,0.49450589998741634,hcc,f,19,2024_Apr_17_1620,mian,2021.2.3,58.84024696626782,
,,,,,,0,1,pic/flanker5.png,pic/flanker1.png,s,k,pic/AffRest1.png,,,,,,,,,,,,,,,,,,,,,,,,,0,0,0,0,0,41,41,40,,,,690.1334812999994,None,688.949999000004,690.1500701000041,s,1,吉祥,k,1,0.5996995999885257,0.5542075000121258,hcc,f,19,2024_Apr_17_1620,mian,2021.2.3,58.84024696626782,
,,,,,,0,1,pic/flanker5.png,pic/flanker1.png,s,k,pic/AffRest1.png,,,,,,,,,,,,,,,,,,,,,,,,,0,0,0,0,0,42,42,72,,,,693.2185582000238,None,692.0344483000226,693.2359902000171,s,1,舒畅,k,1,0.48537899999064393,0.4685360000003129,hcc,f,19,2024_Apr_17_1620,mian,2021.2.3,58.84024696626782,
,,,,,,0,1,pic/flanker5.png,pic/flanker1.png,s,k,pic/AffRest1.png,,,,,,,,,,,,,,,,,,,,,,,,,0,0,0,0,0,43,43,8,,,,696.1542354999983,None,694.9694213000184,696.1709631000122,s,1,卓越,k,1,0.5037591999862343,0.35150859999703243,hcc,f,19,2024_Apr_17_1620,mian,2021.2.3,58.84024696626782,
,,,,,,1,0,pic/flanker6.png,pic/flanker4.png,s,l,pic/AffRest1.png,,,,,,,,,,,,,,,,,,,,,,,,,0,0,0,0,0,44,44,13,,,,699.0387938000204,None,697.853855000023,699.0558539000049,s,1,慌忙,l,1,0.5925586000084877,0.472560499998508,hcc,f,19,2024_Apr_17_1620,mian,2021.2.3,58.84024696626782,
,,,,,,1,1,pic/flanker5.png,pic/flanker3.png,a,k,pic/AffRest1.png,,,,,,,,,,,,,,,,,,,,,,,,,0,0,0,0,0,45,45,4,,,,701.9729362000071,None,700.7884439000045,701.9891500000085,a,1,爽朗,k,1,0.469504800013965,0.41925090001313947,hcc,f,19,2024_Apr_17_1620,mian,2021.2.3,58.84024696626782,
,,,,,,1,0,pic/flanker6.png,pic/flanker4.png,s,l,pic/AffRest1.png,,,,,,,,,,,,,,,,,,,,,,,,,0,0,0,0,0,46,46,45,,,,704.7905788000207,None,703.6065229000233,704.8073303000128,s,1,悲观,l,1,0.6138591999770142,0.5625775999797042,hcc,f,19,2024_Apr_17_1620,mian,2021.2.3,58.84024696626782,
,,,,,,1,1,pic/flanker6.png,pic/flanker4.png,s,k,pic/AffRest1.png,,,,,,,,,,,,,,,,,,,,,,,,,0,0,0,0,0,47,47,54,,,,707.9923430000199,None,706.8086107000127,708.0088610000093,s,1,鲜艳,k,1,0.5680900999868754,0.44985879998421296,hcc,f,19,2024_Apr_17_1620,mian,2021.2.3,58.84024696626782,
,,,,,,1,0,pic/flanker6.png,pic/flanker4.png,s,l,pic/AffRest1.png,,,,,,,,,,,,,,,,,,,,,,,,,0,0,0,0,0,48,48,5,,,,710.8934565000236,None,709.7097433000163,710.9113751999976,s,1,丢失,l,1,0.7318495000072289,0.4611637000052724,hcc,f,19,2024_Apr_17_1620,mian,2021.2.3,58.84024696626782,
,,,,,,0,0,pic/flanker6.png,pic/flanker2.png,a,l,pic/AffRest1.png,,,,,,,,,,,,,,,,,,,,,,,,,0,0,0,0,0,49,49,41,,,,714.0124985000002,None,712.8280902999977,714.0290253999992,a,1,穷苦,l,1,0.6263597999932244,0.4623932000249624,hcc,f,19,2024_Apr_17_1620,mian,2021.2.3,58.84024696626782,
,,,,,,1,0,pic/flanker5.png,pic/flanker3.png,a,l,pic/AffRest1.png,,,,,,,,,,,,,,,,,,,,,,,,,0,0,0,0,0,50,50,31,,,,717.0299685000209,None,715.8466068000125,717.0466990999994,a,1,罚款,l,1,0.6553139000025112,0.49520279999705963,hcc,f,19,2024_Apr_17_1620,mian,2021.2.3,58.84024696626782,
,,,,,,0,0,pic/flanker5.png,pic/flanker1.png,s,l,pic/AffRest1.png,,,,,,,,,,,,,,,,,,,,,,,,,0,0,0,0,0,51,51,59,,,,720.1997341999959,None,719.0151185000141,720.216310400021,s,1,忧虑,l,1,0.5674523999914527,0.5756262000068091,hcc,f,19,2024_Apr_17_1620,mian,2021.2.3,58.84024696626782,
,,,,,,1,0,pic/flanker5.png,pic/flanker3.png,a,l,pic/AffRest1.png,,,,,,,,,,,,,,,,,,,,,,,,,0,0,0,0,0,52,52,15,,,,723.366803300014,None,722.183027000021,723.3832700000203,a,1,逃避,l,1,0.6433402000111528,0.4885773000132758,hcc,f,19,2024_Apr_17_1620,mian,2021.2.3,58.84024696626782,
,,,,,,0,1,pic/flanker6.png,pic/flanker2.png,a,k,pic/AffRest1.png,,,,,,,,,,,,,,,,,,,,,,,,,0,0,0,0,0,53,53,42,,,,726.4182311000186,None,725.2342108000012,726.4349909000157,a,1,充裕,k,1,0.6271003999863751,0.3842427000054158,hcc,f,19,2024_Apr_17_1620,mian,2021.2.3,58.84024696626782,
,,,,,,0,1,pic/flanker5.png,pic/flanker1.png,s,k,pic/AffRest1.png,,,,,,,,,,,,,,,,,,,,,,,,,0,0,0,0,0,54,54,24,,,,729.4538479000039,None,728.269268700009,729.4709042000177,s,1,永恒,k,1,1.3935985999996774,0.44076170001062565,hcc,f,19,2024_Apr_17_1620,mian,2021.2.3,58.84024696626782,
,,,,,,1,0,pic/flanker5.png,pic/flanker3.png,a,l,pic/AffRest1.png,,,,,,,,,,,,,,,,,,,,,,,,,0,0,0,0,0,55,55,7,,,,733.1561097000085,None,731.9730261000223,733.1732542000245,a,1,郁闷,l,1,0.779624499991769,0.4691082000208553,hcc,f,19,2024_Apr_17_1620,mian,2021.2.3,58.84024696626782,
,,,,,,1,0,pic/flanker5.png,pic/flanker3.png,a,l,pic/AffRest1.png,,,,,,,,,,,,,,,,,,,,,,,,,0,0,0,0,0,56,56,79,,,,736.3405166000011,None,735.1606955000025,736.3747455000121,a,1,失意,l,1,0.7245496999821626,0.428430899977684,hcc,f,19,2024_Apr_17_1620,mian,2021.2.3,58.84024696626782,
,,,,,,1,0,pic/flanker5.png,pic/flanker3.png,a,l,pic/AffRest1.png,,,,,,,,,,,,,,,,,,,,,,,,,0,0,0,0,0,57,57,63,,,,739.4249839000113,None,738.241390900017,739.4420150000078,a,1,轻率,l,1,0.8024011000234168,0.4442166999797337,hcc,f,19,2024_Apr_17_1620,mian,2021.2.3,58.84024696626782,
,,,,,,1,1,pic/flanker6.png,pic/flanker4.png,s,k,pic/AffRest1.png,,,,,,,,,,,,,,,,,,,,,,,,,0,0,0,0,0,58,58,46,,,,742.6436343000096,None,741.4592462000146,742.6598722000199,s,1,清秀,k,1,0.5124218999990262,0.5197686999745201,hcc,f,19,2024_Apr_17_1620,mian,2021.2.3,58.84024696626782,
,,,,,,1,0,pic/flanker5.png,pic/flanker3.png,a,l,pic/AffRest1.png,,,,,,,,,,,,,,,,,,,,,,,,,0,0,0,0,0,59,59,71,,,,745.6620383000118,None,744.4809872000187,745.6949475000147,a,1,撒谎,l,1,0.7112807999947108,0.4199429999862332,hcc,f,19,2024_Apr_17_1620,mian,2021.2.3,58.84024696626782,
,,,,,,0,0,pic/flanker5.png,pic/flanker1.png,s,l,pic/AffRest1.png,,,,,,,,,,,,,,,,,,,,,,,,,0,0,0,0,0,60,60,27,,,,748.7975314000214,None,747.6125425000209,748.8142112000205,s,1,懒惰,l,1,0.6704765999747906,0.464192199986428,hcc,f,19,2024_Apr_17_1620,mian,2021.2.3,58.84024696626782,
,,,,,,0,0,pic/flanker5.png,pic/flanker1.png,s,l,pic/AffRest1.png,,,,,,,,,,,,,,,,,,,,,,,,,0,0,0,0,0,61,61,75,,,,751.8657829000149,None,750.6810861999984,751.8828016000043,s,1,假冒,l,1,0.5444308999867644,0.5198195000120904,hcc,f,19,2024_Apr_17_1620,mian,2021.2.3,58.84024696626782,
,,,,,,1,1,pic/flanker5.png,pic/flanker3.png,a,k,pic/AffRest1.png,,,,,,,,,,,,,,,,,,,,,,,,,0,0,0,0,0,62,62,76,,,,754.9000756000169,None,753.7158689000062,754.9181651000108,a,1,前进,k,1,0.526368699996965,0.4520571999892127,hcc,f,19,2024_Apr_17_1620,mian,2021.2.3,58.84024696626782,
,,,,,,0,0,pic/flanker6.png,pic/flanker2.png,a,l,pic/AffRest1.png,,,,,,,,,,,,,,,,,,,,,,,,,0,0,0,0,0,63,63,1,,,,757.7350594000018,None,756.5500852999976,757.7514622000162,a,1,争吵,l,1,0.5974663999804761,0.47114089998649433,hcc,f,19,2024_Apr_17_1620,mian,2021.2.3,58.84024696626782,
,,,,,,0,0,pic/flanker6.png,pic/flanker2.png,a,l,pic/AffRest1.png,,,,,,,,,,,,,,,,,,,,,,,,,0,0,0,0,0,64,64,65,,,,760.8360309000127,None,759.6513780000096,760.8530030999973,a,1,处罚,l,1,0.481117900024401,0.39181469997856766,hcc,f,19,2024_Apr_17_1620,mian,2021.2.3,58.84024696626782,
,,,,,,1,1,pic/flanker6.png,pic/flanker4.png,s,k,pic/AffRest1.png,,,,,,,,,,,,,,,,,,,,,,,,,0,0,0,0,0,65,65,14,,,,763.6872906000062,None,762.5037600000214,763.7041827000212,s,1,顽强,k,1,0.5675670999917202,0.49456049999571405,hcc,f,19,2024_Apr_17_1620,mian,2021.2.3,58.84024696626782,
,,,,,,0,0,pic/flanker5.png,pic/flanker1.png,s,l,pic/AffRest1.png,,,,,,,,,,,,,,,,,,,,,,,,,0,0,0,0,0,66,66,11,,,,766.5725033000053,None,765.3906736000208,766.6057323999994,s,1,浪费,l,1,1.5568091000022832,0.40780630000517704,hcc,f,19,2024_Apr_17_1620,mian,2021.2.3,58.84024696626782,
,,,,,,1,0,pic/flanker6.png,pic/flanker4.png,s,l,pic/AffRest1.png,,,,,,,,,,,,,,,,,,,,,,,,,0,0,0,0,0,67,67,77,,,,770.3573294000234,None,769.173692100012,770.374123400019,s,1,损害,l,1,0.6156714000098873,0.4755600000207778,hcc,f,19,2024_Apr_17_1620,mian,2021.2.3,58.84024696626782,
,,,,,,1,0,pic/flanker6.png,pic/flanker4.png,s,l,pic/AffRest1.png,,,,,,,,,,,,,,,,,,,,,,,,,0,0,0,0,0,68,68,29,,,,773.2761272000207,None,772.0921079000109,773.2927497000201,s,1,冷笑,l,1,1.128704300004756,0.425380500004394,hcc,f,19,2024_Apr_17_1620,mian,2021.2.3,58.84024696626782,
,,,,,,0,0,pic/flanker5.png,pic/flanker1.png,s,l,pic/AffRest1.png,,,,,,,,,,,,,,,,,,,,,,,,,0,0,0,0,0,69,69,67,,,,776.6605692000012,None,775.4766841000237,776.678436200018,s,1,鲁莽,l,1,0.614496499998495,0.3448246000043582,hcc,f,19,2024_Apr_17_1620,mian,2021.2.3,58.84024696626782,
,,,,,,1,1,pic/flanker6.png,pic/flanker4.png,s,k,pic/AffRest1.png,,,,,,,,,,,,,,,,,,,,,,,,,0,0,0,0,0,70,70,30,,,,779.5293411000166,None,778.34431700001,779.546073400008,s,1,典雅,k,1,0.5434142999874894,0.4226042999944184,hcc,f,19,2024_Apr_17_1620,mian,2021.2.3,58.84024696626782,
,,,,,,0,0,pic/flanker6.png,pic/flanker2.png,a,l,pic/AffRest1.png,,,,,,,,,,,,,,,,,,,,,,,,,0,0,0,0,0,71,71,73,,,,782.363634600013,None,781.1799161000235,782.3818815000122,a,1,焦躁,l,1,0.49264270000276156,0.5363329999963753,hcc,f,19,2024_Apr_17_1620,mian,2021.2.3,58.84024696626782,
,,,,,,1,0,pic/flanker6.png,pic/flanker4.png,s,l,pic/AffRest1.png,,,,,,,,,,,,,,,,,,,,,,,,,0,0,0,0,0,72,72,37,,,,785.2148034000129,None,784.030491100013,785.2321330000123,s,1,排斥,l,1,0.6434082000050694,0.4358328999951482,hcc,f,19,2024_Apr_17_1620,mian,2021.2.3,58.84024696626782,
,,,,,,1,0,pic/flanker5.png,pic/flanker3.png,a,l,pic/AffRest1.png,,,,,,,,,,,,,,,,,,,,,,,,,0,0,0,0,0,73,73,23,,,,788.1176879999985,None,786.932959800004,788.1341692999995,a,1,黑暗,l,1,0.6909520999761298,0.4213593000022229,hcc,f,19,2024_Apr_17_1620,mian,2021.2.3,58.84024696626782,
,,,,,,1,1,pic/flanker6.png,pic/flanker4.png,s,k,pic/AffRest1.png,,,,,,,,,,,,,,,,,,,,,,,,,0,0,0,0,0,74,74,70,,,,791.268395000021,None,790.0845551000093,791.2849380999978,s,1,赞成,k,1,0.7133933000150137,0.4640182000002824,hcc,f,19,2024_Apr_17_1620,mian,2021.2.3,58.84024696626782,
,,,,,,1,1,pic/flanker6.png,pic/flanker4.png,s,k,pic/AffRest1.png,,,,,,,,,,,,,,,,,,,,,,,,,0,0,0,0,0,75,75,78,,,,794.3361086000223,None,793.1521528000012,794.3526631999994,s,1,廉洁,l,0,1.147998699976597,0.4263362000056077,hcc,f,19,2024_Apr_17_1620,mian,2021.2.3,58.84024696626782,
,,,,,,0,0,pic/flanker5.png,pic/flanker1.png,s,l,pic/AffRest1.png,,,,,,,,,,,,,,,,,,,,,,,,,0,0,0,0,0,76,76,3,,,,797.7880302999984,None,796.6036106999964,797.8062958000228,s,1,孤单,l,1,0.7252377000113484,0.5287492999923415,hcc,f,19,2024_Apr_17_1620,mian,2021.2.3,58.84024696626782,
,,,,,,1,1,pic/flanker5.png,pic/flanker3.png,a,k,pic/AffRest1.png,,,,,,,,,,,,,,,,,,,,,,,,,0,0,0,0,0,77,77,52,,,,800.8731425000005,None,799.688537900016,800.8897676000197,a,1,羡慕,k,1,0.5127146999875549,0.484058100002585,hcc,f,19,2024_Apr_17_1620,mian,2021.2.3,58.84024696626782,
,,,,,,1,1,pic/flanker6.png,pic/flanker4.png,s,k,pic/AffRest1.png,,,,,,,,,,,,,,,,,,,,,,,,,0,0,0,0,0,78,78,62,,,,803.8079233000171,None,802.6231762000243,803.8241732000024,s,1,圣洁,k,1,0.5705976999888662,0.5083633000031114,hcc,f,19,2024_Apr_17_1620,mian,2021.2.3,58.84024696626782,
,,,,,,0,0,pic/flanker5.png,pic/flanker1.png,s,l,pic/AffRest1.png,,,,,,,,,,,,,,,,,,,,,,,,,0,0,0,0,0,79,79,51,,,,806.909667400003,None,805.7253533000185,806.9259140000213,s,1,嘲笑,l,1,1.826820799993584,0.4770311000174843,hcc,f,19,2024_Apr_17_1620,mian,2021.2.3,58.84024696626782,
,,,,,,,,,,,,pic/AffRest1.png,,,,,,,,,,,,,,,,,,,,,,,,,0,0,0,0,,,,,,,,,,,,,,,,,,,hcc,f,19,2024_Apr_17_1620,mian,2021.2.3,58.84024696626782,
,,,,,,1,1,pic/flanker5.png,pic/flanker3.png,a,k,pic/AffRest2.png,,,,,,,,,,,,,,,,,,,,,,,,,0,1,1,1,0,0,0,52,,,,838.9923031000071,None,837.8039033000241,839.0087867999973,a,1,富足,k,1,0.5579530000104569,0.5933429999859072,hcc,f,19,2024_Apr_17_1620,mian,2021.2.3,58.84024696626782,
,,,,,,0,1,pic/flanker6.png,pic/flanker2.png,a,k,pic/AffRest2.png,,,,,,,,,,,,,,,,,,,,,,,,,0,1,1,1,0,1,1,2,,,,842.1777216000191,None,840.9938451000198,842.1943192000035,a,1,顽强,k,1,0.6815223000012338,0.37337159999879077,hcc,f,19,2024_Apr_17_1620,mian,2021.2.3,58.84024696626782,
,,,,,,1,1,pic/flanker6.png,pic/flanker4.png,s,k,pic/AffRest2.png,,,,,,,,,,,,,,,,,,,,,,,,,0,1,1,1,0,2,2,30,,,,845.0626040000061,None,843.8777004000149,845.0785954000021,s,1,生动,k,1,0.5454916000016965,0.4994437999848742,hcc,f,19,2024_Apr_17_1620,mian,2021.2.3,58.84024696626782,
,,,,,,0,0,pic/flanker5.png,pic/flanker1.png,s,l,pic/AffRest2.png,,,,,,,,,,,,,,,,,,,,,,,,,0,1,1,1,0,3,3,3,,,,848.1467933999957,None,846.963218799996,848.1634269000206,s,1,郁闷,l,1,0.5570650000008754,0.3941497000050731,hcc,f,19,2024_Apr_17_1620,mian,2021.2.3,58.84024696626782,
,,,,,,0,1,pic/flanker5.png,pic/flanker1.png,s,k,pic/AffRest2.png,,,,,,,,,,,,,,,,,,,,,,,,,0,1,1,1,0,4,4,32,,,,850.9315498000069,None,849.7473379000148,850.948819400015,s,1,爽朗,k,1,0.5006182000215631,0.39157850001356564,hcc,f,19,2024_Apr_17_1620,mian,2021.2.3,58.84024696626782,
,,,,,,1,1,pic/flanker5.png,pic/flanker3.png,a,k,pic/AffRest2.png,,,,,,,,,,,,,,,,,,,,,,,,,0,1,1,1,0,5,5,20,,,,853.7511939000105,None,852.5664629999956,853.7672110999993,a,1,充裕,k,1,0.41469090001191944,0.5405237999802921,hcc,f,19,2024_Apr_17_1620,mian,2021.2.3,58.84024696626782,
,,,,,,0,0,pic/flanker5.png,pic/flanker1.png,s,l,pic/AffRest2.png,,,,,,,,,,,,,,,,,,,,,,,,,0,1,1,1,0,6,6,43,,,,856.6681482999993,None,855.484188500006,856.6844708000135,s,1,慌忙,l,1,0.635135899996385,0.38370750000467524,hcc,f,19,2024_Apr_17_1620,mian,2021.2.3,58.84024696626782,
,,,,,,1,0,pic/flanker5.png,pic/flanker3.png,a,l,pic/AffRest2.png,,,,,,,,,,,,,,,,,,,,,,,,,0,1,1,1,0,7,7,47,,,,859.7366464000079,None,858.5525452000147,859.7536959999998,a,1,鲁莽,l,1,0.6188629000098445,0.4868706999986898,hcc,f,19,2024_Apr_17_1620,mian,2021.2.3,58.84024696626782,
,,,,,,1,0,pic/flanker5.png,pic/flanker3.png,a,l,pic/AffRest2.png,,,,,,,,,,,,,,,,,,,,,,,,,0,1,1,1,0,8,8,31,,,,862.7240354999958,None,861.5375523999974,862.7382786000089,a,1,排斥,l,1,0.5269336000201292,0.4782591999974102,hcc,f,19,2024_Apr_17_1620,mian,2021.2.3,58.84024696626782,
,,,,,,1,1,pic/flanker6.png,pic/flanker4.png,s,k,pic/AffRest2.png,,,,,,,,,,,,,,,,,,,,,,,,,0,1,1,1,0,9,9,6,,,,865.5729900000151,None,864.3890839000233,865.5895602000237,s,1,享受,k,1,0.5097429000015836,0.5471997999993619,hcc,f,19,2024_Apr_17_1620,mian,2021.2.3,58.84024696626782,
,,,,,,0,1,pic/flanker6.png,pic/flanker2.png,a,k,pic/AffRest2.png,,,,,,,,,,,,,,,,,,,,,,,,,0,1,1,1,0,10,10,66,,,,868.4578298999986,None,867.2732956999971,868.4739391000185,a,1,优雅,k,1,0.5983399999968242,0.41233269998338073,hcc,f,19,2024_Apr_17_1620,mian,2021.2.3,58.84024696626782,
,,,,,,0,0,pic/flanker6.png,pic/flanker2.png,a,l,pic/AffRest2.png,,,,,,,,,,,,,,,,,,,,,,,,,0,1,1,1,0,11,11,1,,,,871.4759475000028,None,870.2929274000053,871.4921710000199,a,1,禁止,l,1,0.67313050001394,0.3749256000155583,hcc,f,19,2024_Apr_17_1620,mian,2021.2.3,58.84024696626782,
,,,,,,1,0,pic/flanker6.png,pic/flanker4.png,s,l,pic/AffRest2.png,,,,,,,,,,,,,,,,,,,,,,,,,0,1,1,1,0,12,12,29,,,,874.3941278000129,None,873.2098176,874.4108120000164,s,1,黑暗,l,1,0.5981597000209149,0.4821028000151273,hcc,f,19,2024_Apr_17_1620,mian,2021.2.3,58.84024696626782,
,,,,,,0,1,pic/flanker6.png,pic/flanker2.png,a,k,pic/AffRest2.png,,,,,,,,,,,,,,,,,,,,,,,,,0,1,1,1,0,13,13,58,,,,877.3619936000032,None,876.178605299996,877.3785404000082,a,1,热切,k,1,0.6827016999886837,0.3983363999868743,hcc,f,19,2024_Apr_17_1620,mian,2021.2.3,58.84024696626782,
,,,,,,1,1,pic/flanker6.png,pic/flanker4.png,s,k,pic/AffRest2.png,,,,,,,,,,,,,,,,,,,,,,,,,0,1,1,1,0,14,14,46,,,,880.3799996000016,None,879.1961028000223,880.3966989000037,s,1,豪放,k,1,0.6092496999772266,0.4890503000060562,hcc,f,19,2024_Apr_17_1620,mian,2021.2.3,58.84024696626782,
,,,,,,1,0,pic/flanker5.png,pic/flanker3.png,a,l,pic/AffRest2.png,,,,,,,,,,,,,,,,,,,,,,,,,0,1,1,1,0,15,15,55,,,,883.3480080000008,None,882.1641560000135,883.3649160000205,a,1,自卑,l,1,0.6796614000049885,0.46807600001920946,hcc,f,19,2024_Apr_17_1620,mian,2021.2.3,58.84024696626782,
,,,,,,0,0,pic/flanker5.png,pic/flanker1.png,s,l,pic/AffRest2.png,,,,,,,,,,,,,,,,,,,,,,,,,0,1,1,1,0,16,16,19,,,,886.316263500019,None,885.1324970000132,886.3334255000227,s,1,逃避,l,1,0.7241431000002194,0.5820301999920048,hcc,f,19,2024_Apr_17_1620,mian,2021.2.3,58.84024696626782,
,,,,,,1,0,pic/flanker6.png,pic/flanker4.png,s,l,pic/AffRest2.png,,,,,,,,,,,,,,,,,,,,,,,,,0,1,1,1,0,17,17,13,,,,889.4514082999958,None,888.2671453000221,889.469548699999,s,1,失意,l,1,0.6662492999748792,0.5195835999911651,hcc,f,19,2024_Apr_17_1620,mian,2021.2.3,58.84024696626782,
,,,,,,0,0,pic/flanker6.png,pic/flanker2.png,a,l,pic/AffRest2.png,,,,,,,,,,,,,,,,,,,,,,,,,0,1,1,1,0,18,18,73,,,,892.5201835000189,None,891.3358489000238,892.5369148000027,a,1,心慌,l,1,0.6555854000034742,0.4494313000177499,hcc,f,19,2024_Apr_17_1620,mian,2021.2.3,58.84024696626782,
,,,,,,1,1,pic/flanker6.png,pic/flanker4.png,s,k,pic/AffRest2.png,,,,,,,,,,,,,,,,,,,,,,,,,0,1,1,1,0,19,19,78,,,,895.5045158000139,None,894.3208591000002,895.5220091000083,s,1,羡慕,k,1,0.5224967999965884,0.47402779999538325,hcc,f,19,2024_Apr_17_1620,mian,2021.2.3,58.84024696626782,
,,,,,,0,1,pic/flanker6.png,pic/flanker2.png,a,k,pic/AffRest2.png,,,,,,,,,,,,,,,,,,,,,,,,,0,1,1,1,0,20,20,42,,,,898.4058703000192,None,897.2214141000004,898.4226108000148,a,1,秀丽,k,1,0.5150343000132125,0.36571270000422373,hcc,f,19,2024_Apr_17_1620,mian,2021.2.3,58.84024696626782,
,,,,,,1,1,pic/flanker6.png,pic/flanker4.png,s,k,pic/AffRest2.png,,,,,,,,,,,,,,,,,,,,,,,,,0,1,1,1,0,21,21,70,,,,901.2246449000086,None,900.0407242000219,901.241010800004,s,1,珍藏,k,1,0.5304941000067629,0.540146499988623,hcc,f,19,2024_Apr_17_1620,mian,2021.2.3,58.84024696626782,
,,,,,,1,1,pic/flanker6.png,pic/flanker4.png,s,k,pic/AffRest2.png,,,,,,,,,,,,,,,,,,,,,,,,,0,1,1,1,0,22,22,38,,,,904.1771739000105,None,902.9920283000101,904.1927897999994,s,1,卓越,k,1,0.4833517999795731,0.42394470001454465,hcc,f,19,2024_Apr_17_1620,mian,2021.2.3,58.84024696626782,
,,,,,,0,1,pic/flanker5.png,pic/flanker1.png,s,k,pic/AffRest2.png,,,,,,,,,,,,,,,,,,,,,,,,,0,1,1,1,0,23,23,0,,,,906.994376800023,None,905.8100744000112,907.0126477000013,s,1,振作,k,1,0.502024799992796,0.3903262999956496,hcc,f,19,2024_Apr_17_1620,mian,2021.2.3,58.84024696626782,
,,,,,,0,1,pic/flanker5.png,pic/flanker1.png,s,k,pic/AffRest2.png,,,,,,,,,,,,,,,,,,,,,,,,,0,1,1,1,0,24,24,24,,,,909.7634771000012,None,908.5782790000085,909.779513800022,s,1,清秀,k,1,0.424868800007971,0.412408600008348,hcc,f,19,2024_Apr_17_1620,mian,2021.2.3,58.84024696626782,
,,,,,,1,0,pic/flanker6.png,pic/flanker4.png,s,l,pic/AffRest2.png,,,,,,,,,,,,,,,,,,,,,,,,,0,1,1,1,0,25,25,61,,,,912.4990153000108,None,911.3124646000215,912.5128200000036,s,1,闷热,l,1,0.789332700020168,0.452600499993423,hcc,f,19,2024_Apr_17_1620,mian,2021.2.3,58.84024696626782,
,,,,,,0,1,pic/flanker5.png,pic/flanker1.png,s,k,pic/AffRest2.png,,,,,,,,,,,,,,,,,,,,,,,,,0,1,1,1,0,26,26,8,,,,915.6812543999986,None,914.4981772000028,915.6983987000131,s,1,正直,k,1,0.44097000002511777,0.32526929999585263,hcc,f,19,2024_Apr_17_1620,mian,2021.2.3,58.84024696626782,
,,,,,,1,1,pic/flanker5.png,pic/flanker3.png,a,k,pic/AffRest2.png,,,,,,,,,,,,,,,,,,,,,,,,,0,1,1,1,0,27,27,60,,,,918.2664851000009,None,917.0825038000185,918.2832347000076,a,1,有利,k,1,0.4345305000024382,0.4629830999765545,hcc,f,19,2024_Apr_17_1620,mian,2021.2.3,58.84024696626782,
,,,,,,1,0,pic/flanker6.png,pic/flanker4.png,s,l,pic/AffRest2.png,,,,,,,,,,,,,,,,,,,,,,,,,0,1,1,1,0,28,28,69,,,,921.2004872999969,None,920.01736540001,921.2179332000087,s,1,焦躁,l,1,0.5903632999979891,0.46369020000565797,hcc,f,19,2024_Apr_17_1620,mian,2021.2.3,58.84024696626782,
,,,,,,0,1,pic/flanker6.png,pic/flanker2.png,a,k,pic/AffRest2.png,,,,,,,,,,,,,,,,,,,,,,,,,0,1,1,1,0,29,29,10,,,,924.1860013999976,None,923.0023800000199,924.2032978000061,a,1,俊秀,k,1,0.5026922000106424,0.4277103999920655,hcc,f,19,2024_Apr_17_1620,mian,2021.2.3,58.84024696626782,
,,,,,,0,0,pic/flanker6.png,pic/flanker2.png,a,l,pic/AffRest2.png,,,,,,,,,,,,,,,,,,,,,,,,,0,1,1,1,0,30,30,33,,,,927.0542766000144,None,925.8705719000136,927.0708692000189,a,1,杂乱,l,1,0.8277667000074871,0.3857321999967098,hcc,f,19,2024_Apr_17_1620,mian,2021.2.3,58.84024696626782,
,,,,,,0,1,pic/flanker6.png,pic/flanker2.png,a,k,pic/AffRest2.png,,,,,,,,,,,,,,,,,,,,,,,,,0,1,1,1,0,31,31,26,,,,930.2596718000132,None,929.0765817000065,930.2724445000058,a,1,公平,k,1,0.47554429998854175,0.42424839999875985,hcc,f,19,2024_Apr_17_1620,mian,2021.2.3,58.84024696626782,
,,,,,,1,0,pic/flanker5.png,pic/flanker3.png,a,l,pic/AffRest2.png,,,,,,,,,,,,,,,,,,,,,,,,,0,1,1,1,0,32,32,39,,,,933.2065238000068,None,932.0235287999967,933.2232238000142,a,1,穷苦,l,1,0.557126600004267,0.5554715000034776,hcc,f,19,2024_Apr_17_1620,mian,2021.2.3,58.84024696626782,
,,,,,,0,1,pic/flanker6.png,pic/flanker2.png,a,k,pic/AffRest2.png,,,,,,,,,,,,,,,,,,,,,,,,,0,1,1,1,0,33,33,18,,,,936.2082480000099,None,935.024534199998,936.2249356000102,a,1,前进,k,1,0.4097575999912806,0.36313710000831634,hcc,f,19,2024_Apr_17_1620,mian,2021.2.3,58.84024696626782,
,,,,,,1,1,pic/flanker6.png,pic/flanker4.png,s,k,pic/AffRest2.png,,,,,,,,,,,,,,,,,,,,,,,,,0,1,1,1,0,34,34,54,,,,938.8105622000003,None,937.6254160999961,938.8271570000215,s,1,圣洁,k,1,0.5294051000091713,0.4924786999763455,hcc,f,19,2024_Apr_17_1620,mian,2021.2.3,58.84024696626782,
,,,,,,1,0,pic/flanker5.png,pic/flanker3.png,a,l,pic/AffRest2.png,,,,,,,,,,,,,,,,,,,,,,,,,0,1,1,1,0,35,35,63,,,,941.8619447000092,None,940.6779711999989,941.878182800021,a,1,悲观,l,1,0.5515214999904856,0.47309600000153296,hcc,f,19,2024_Apr_17_1620,mian,2021.2.3,58.84024696626782,
,,,,,,0,0,pic/flanker5.png,pic/flanker1.png,s,l,pic/AffRest2.png,,,,,,,,,,,,,,,,,,,,,,,,,0,1,1,1,0,36,36,75,,,,944.9144442999968,None,943.7293538000085,944.9303707000217,s,1,孤单,l,1,0.6755269000132103,0.6812411000137217,hcc,f,19,2024_Apr_17_1620,mian,2021.2.3,58.84024696626782,
,,,,,,0,0,pic/flanker6.png,pic/flanker2.png,a,l,pic/AffRest2.png,,,,,,,,,,,,,,,,,,,,,,,,,0,1,1,1,0,37,37,57,,,,948.2985786000208,None,947.1143240000238,948.3155265000241,a,1,罚款,l,1,0.6101658999978099,0.5386139999900479,hcc,f,19,2024_Apr_17_1620,mian,2021.2.3,58.84024696626782,
,,,,,,0,0,pic/flanker6.png,pic/flanker2.png,a,l,pic/AffRest2.png,,,,,,,,,,,,,,,,,,,,,,,,,0,1,1,1,0,38,38,17,,,,951.4667772999965,None,950.2824565000192,951.4833891000017,a,1,丢失,l,1,0.7948719999985769,0.34378819999983534,hcc,f,19,2024_Apr_17_1620,mian,2021.2.3,58.84024696626782,
,,,,,,1,0,pic/flanker5.png,pic/flanker3.png,a,l,pic/AffRest2.png,,,,,,,,,,,,,,,,,,,,,,,,,0,1,1,1,0,39,39,79,,,,954.4187989000056,None,953.2337957000127,954.4349504999991,a,1,浪费,l,1,0.9712353999784682,0.458131500025047,hcc,f,19,2024_Apr_17_1620,mian,2021.2.3,58.84024696626782,
,,,,,,0,0,pic/flanker5.png,pic/flanker1.png,s,l,pic/AffRest2.png,,,,,,,,,,,,,,,,,,,,,,,,,0,1,1,1,0,40,40,51,,,,957.7195956000069,None,956.5357712999976,957.7366772000096,s,1,烦恼,l,1,0.8568539000116289,0.4184897000086494,hcc,f,19,2024_Apr_17_1620,mian,2021.2.3,58.84024696626782,
,,,,,,0,1,pic/flanker5.png,pic/flanker1.png,s,k,pic/AffRest2.png,,,,,,,,,,,,,,,,,,,,,,,,,0,1,1,1,0,41,41,48,,,,960.8219550000213,None,959.6374910000013,960.8381132000068,s,1,舒畅,k,1,0.534423400007654,0.5029638000123668,hcc,f,19,2024_Apr_17_1620,mian,2021.2.3,58.84024696626782,
,,,,,,1,1,pic/flanker5.png,pic/flanker3.png,a,k,pic/AffRest2.png,,,,,,,,,,,,,,,,,,,,,,,,,0,1,1,1,0,42,42,68,,,,963.8902775000024,None,962.7057944000117,963.9074234,a,1,敬佩,k,1,1.286282899993239,0.4560623999859672,hcc,f,19,2024_Apr_17_1620,mian,2021.2.3,58.84024696626782,
,,,,,,1,0,pic/flanker6.png,pic/flanker4.png,s,l,pic/AffRest2.png,,,,,,,,,,,,,,,,,,,,,,,,,0,1,1,1,0,43,43,37,,,,967.5079618000018,None,966.3249829999986,967.5252204000135,s,1,缺乏,l,1,0.5438587999960873,0.4496453999890946,hcc,f,19,2024_Apr_17_1620,mian,2021.2.3,58.84024696626782,
,,,,,,0,0,pic/flanker6.png,pic/flanker2.png,a,l,pic/AffRest2.png,,,,,,,,,,,,,,,,,,,,,,,,,0,1,1,1,0,44,44,65,,,,970.4939322000137,None,969.3088133000128,970.5104116000002,a,1,胡涂,l,1,0.5547741000191309,0.3870240999967791,hcc,f,19,2024_Apr_17_1620,mian,2021.2.3,58.84024696626782,
,,,,,,1,1,pic/flanker5.png,pic/flanker3.png,a,k,pic/AffRest2.png,,,,,,,,,,,,,,,,,,,,,,,,,0,1,1,1,0,45,45,28,,,,973.3287508000212,None,972.1437640000076,973.3452259000042,a,1,丰满,k,1,0.9739711000001989,0.517398800002411,hcc,f,19,2024_Apr_17_1620,mian,2021.2.3,58.84024696626782,
,,,,,,1,0,pic/flanker5.png,pic/flanker3.png,a,l,pic/AffRest2.png,,,,,,,,,,,,,,,,,,,,,,,,,0,1,1,1,0,46,46,15,,,,976.7458475000167,None,975.5617083999969,976.7642466000107,a,1,落后,l,1,0.5043160000059288,0.4601300999929663,hcc,f,19,2024_Apr_17_1620,mian,2021.2.3,58.84024696626782,
,,,,,,1,0,pic/flanker5.png,pic/flanker3.png,a,l,pic/AffRest2.png,,,,,,,,,,,,,,,,,,,,,,,,,0,1,1,1,0,47,47,71,,,,979.7475233000005,None,978.5519070000155,979.7649129000201,a,1,处罚,l,1,0.5002913000062108,0.4601484999875538,hcc,f,19,2024_Apr_17_1620,mian,2021.2.3,58.84024696626782,
,,,,,,0,1,pic/flanker5.png,pic/flanker1.png,s,k,pic/AffRest2.png,,,,,,,,,,,,,,,,,,,,,,,,,0,1,1,1,0,48,48,16,,,,982.6993557000242,None,981.515542100009,982.715998300002,s,1,瑰丽,k,1,0.5516479999932926,0.6449800999835134,hcc,f,19,2024_Apr_17_1620,mian,2021.2.3,58.84024696626782,
,,,,,,0,0,pic/flanker5.png,pic/flanker1.png,s,l,pic/AffRest2.png,,,,,,,,,,,,,,,,,,,,,,,,,0,1,1,1,0,49,49,27,,,,985.867430000013,None,984.6841425000166,985.8845211000007,s,1,别扭,l,1,0.5472898000152782,0.7985210999904666,hcc,f,19,2024_Apr_17_1620,mian,2021.2.3,58.84024696626782,
,,,,,,1,0,pic/flanker6.png,pic/flanker4.png,s,l,pic/AffRest2.png,,,,,,,,,,,,,,,,,,,,,,,,,0,1,1,1,0,50,50,5,,,,989.102968799998,None,987.9203656000027,989.1191388000152,s,1,伤心,l,1,0.5282032999966759,0.49844799999846146,hcc,f,19,2024_Apr_17_1620,mian,2021.2.3,58.84024696626782,
,,,,,,0,1,pic/flanker6.png,pic/flanker2.png,a,k,pic/AffRest2.png,,,,,,,,,,,,,,,,,,,,,,,,,0,1,1,1,0,51,51,74,,,,992.0550483000115,None,990.8697097999975,992.0709706000052,a,1,典雅,k,1,0.5974941000167746,0.4229829999967478,hcc,f,19,2024_Apr_17_1620,mian,2021.2.3,58.84024696626782,
,,,,,,1,0,pic/flanker6.png,pic/flanker4.png,s,l,pic/AffRest2.png,,,,,,,,,,,,,,,,,,,,,,,,,0,1,1,1,0,52,52,77,,,,995.1223116000183,None,993.9385619999957,995.1390596000128,s,1,争吵,l,1,0.5138140000053681,0.4830833000014536,hcc,f,19,2024_Apr_17_1620,mian,2021.2.3,58.84024696626782,
,,,,,,0,0,pic/flanker6.png,pic/flanker2.png,a,l,pic/AffRest2.png,,,,,,,,,,,,,,,,,,,,,,,,,0,1,1,1,0,53,53,49,,,,998.0406683000037,None,996.8565629000077,998.0569954999955,a,1,撒谎,l,1,0.5277026999974623,0.6656463999825064,hcc,f,19,2024_Apr_17_1620,mian,2021.2.3,58.84024696626782,
,,,,,,1,1,pic/flanker5.png,pic/flanker3.png,a,k,pic/AffRest2.png,,,,,,,,,,,,,,,,,,,,,,,,,0,1,1,1,0,54,54,4,,,,1001.1923382000241,None,1000.0092918000009,1001.2089366000146,a,1,旺盛,k,1,0.6184195000096224,0.568075899995165,hcc,f,19,2024_Apr_17_1620,mian,2021.2.3,58.84024696626782,
,,,,,,0,1,pic/flanker5.png,pic/flanker1.png,s,k,pic/AffRest2.png,,,,,,,,,,,,,,,,,,,,,,,,,0,1,1,1,0,55,55,56,,,,1004.2103795000003,None,1003.0262645000184,1004.2271050999989,s,1,鲜艳,k,1,0.4762928000127431,0.5902605000010226,hcc,f,19,2024_Apr_17_1620,mian,2021.2.3,58.84024696626782,
,,,,,,1,1,pic/flanker5.png,pic/flanker3.png,a,k,pic/AffRest2.png,,,,,,,,,,,,,,,,,,,,,,,,,0,1,1,1,0,56,56,44,,,,1007.195334500022,None,1006.0112829999998,1007.2116743000224,a,1,如愿,k,1,1.1128558999917004,0.4860822000191547,hcc,f,19,2024_Apr_17_1620,mian,2021.2.3,58.84024696626782,
,,,,,,0,0,pic/flanker5.png,pic/flanker1.png,s,l,pic/AffRest2.png,,,,,,,,,,,,,,,,,,,,,,,,,0,1,1,1,0,57,57,11,,,,1010.7802646000055,None,1009.5959602000075,1010.7969100000046,s,1,冷笑,l,1,0.5808680000191089,0.5063518999959342,hcc,f,19,2024_Apr_17_1620,mian,2021.2.3,58.84024696626782,
,,,,,,1,0,pic/flanker5.png,pic/flanker3.png,a,l,pic/AffRest2.png,,,,,,,,,,,,,,,,,,,,,,,,,0,1,1,1,0,58,58,7,,,,1013.8979887000169,None,1012.7139241000114,1013.9150380000065,a,1,忧虑,l,1,0.54154059998109,0.4460452999919653,hcc,f,19,2024_Apr_17_1620,mian,2021.2.3,58.84024696626782,
,,,,,,0,0,pic/flanker6.png,pic/flanker2.png,a,l,pic/AffRest2.png,,,,,,,,,,,,,,,,,,,,,,,,,0,1,1,1,0,59,59,41,,,,1016.9209680000204,None,1015.7319811000198,1016.9328923000139,a,1,堵塞,l,1,0.6948748000140768,0.3481307000038214,hcc,f,19,2024_Apr_17_1620,mian,2021.2.3,58.84024696626782,
,,,,,,1,1,pic/flanker6.png,pic/flanker4.png,s,k,pic/AffRest2.png,,,,,,,,,,,,,,,,,,,,,,,,,0,1,1,1,0,60,60,22,,,,1019.9513654000184,None,1018.7669669000024,1019.9682880000037,s,1,富丽,k,1,0.48379319999367,0.44611049999366514,hcc,f,19,2024_Apr_17_1620,mian,2021.2.3,58.84024696626782,
,,,,,,1,1,pic/flanker6.png,pic/flanker4.png,s,k,pic/AffRest2.png,,,,,,,,,,,,,,,,,,,,,,,,,0,1,1,1,0,61,61,62,,,,1022.7189843000087,None,1021.5352783999988,1022.7356737000227,s,1,精致,k,1,0.4363897000148427,0.40310920000774786,hcc,f,19,2024_Apr_17_1620,mian,2021.2.3,58.84024696626782,
,,,,,,1,0,pic/flanker6.png,pic/flanker4.png,s,l,pic/AffRest2.png,,,,,,,,,,,,,,,,,,,,,,,,,0,1,1,1,0,62,62,21,,,,1025.537168800016,None,1024.3533310000203,1025.5540701000136,s,1,消沉,l,1,0.4773595000151545,0.3683951999992132,hcc,f,19,2024_Apr_17_1620,mian,2021.2.3,58.84024696626782,
,,,,,,1,1,pic/flanker6.png,pic/flanker4.png,s,k,pic/AffRest2.png,,,,,,,,,,,,,,,,,,,,,,,,,0,1,1,1,0,63,63,14,,,,1028.2057399000041,None,1027.021296699997,1028.222217100003,s,1,廉洁,k,1,0.5592214000062086,0.44799739998416044,hcc,f,19,2024_Apr_17_1620,mian,2021.2.3,58.84024696626782,
,,,,,,1,0,pic/flanker6.png,pic/flanker4.png,s,l,pic/AffRest2.png,,,,,,,,,,,,,,,,,,,,,,,,,0,1,1,1,0,64,64,53,,,,1031.157855700003,None,1029.9729269000236,1031.1780701000243,s,1,厌恶,l,1,0.5324291000142694,0.45584780001081526,hcc,f,19,2024_Apr_17_1620,mian,2021.2.3,58.84024696626782,
,,,,,,0,1,pic/flanker5.png,pic/flanker1.png,s,k,pic/AffRest2.png,,,,,,,,,,,,,,,,,,,,,,,,,0,1,1,1,0,65,65,64,,,,1034.0088820000237,None,1032.8248770000064,1034.0250077000237,s,1,畅销,k,1,0.5407998000155203,0.362368800007971,hcc,f,19,2024_Apr_17_1620,mian,2021.2.3,58.84024696626782,
,,,,,,0,0,pic/flanker6.png,pic/flanker2.png,a,l,pic/AffRest2.png,,,,,,,,,,,,,,,,,,,,,,,,,0,1,1,1,0,66,66,9,,,,1036.7430518000037,None,1035.5612332000164,1036.7767871000106,a,1,损害,l,1,0.5096665000019129,0.47010859998408705,hcc,f,19,2024_Apr_17_1620,mian,2021.2.3,58.84024696626782,
,,,,,,0,1,pic/flanker5.png,pic/flanker1.png,s,k,pic/AffRest2.png,,,,,,,,,,,,,,,,,,,,,,,,,0,1,1,1,0,67,67,40,,,,1039.5453232,None,1038.3605749999988,1039.5613278000092,s,1,永恒,k,1,0.4829271000053268,0.4025509999773931,hcc,f,19,2024_Apr_17_1620,mian,2021.2.3,58.84024696626782,
,,,,,,1,1,pic/flanker5.png,pic/flanker3.png,a,k,pic/AffRest2.png,,,,,,,,,,,,,,,,,,,,,,,,,0,1,1,1,0,68,68,36,,,,1042.262566999998,None,1041.0789577999967,1042.2799901000108,a,1,雄厚,k,1,0.599750800000038,0.46403790000476874,hcc,f,19,2024_Apr_17_1620,mian,2021.2.3,58.84024696626782,
,,,,,,0,0,pic/flanker5.png,pic/flanker1.png,s,l,pic/AffRest2.png,,,,,,,,,,,,,,,,,,,,,,,,,0,1,1,1,0,69,69,59,,,,1045.2639938000066,None,1044.0801807000244,1045.2812899000128,s,1,怀疑,k,0,0.5292592000041623,0.4437177000218071,hcc,f,19,2024_Apr_17_1620,mian,2021.2.3,58.84024696626782,
,,,,,,0,1,pic/flanker6.png,pic/flanker2.png,a,k,pic/AffRest2.png,,,,,,,,,,,,,,,,,,,,,,,,,0,1,1,1,0,70,70,34,,,,1048.2495009000122,None,1047.0649008000037,1048.2656143000058,a,1,留恋,k,1,0.600821600004565,0.40675130000454374,hcc,f,19,2024_Apr_17_1620,mian,2021.2.3,58.84024696626782,
,,,,,,0,1,pic/flanker6.png,pic/flanker2.png,a,k,pic/AffRest2.png,,,,,,,,,,,,,,,,,,,,,,,,,0,1,1,1,0,71,71,50,,,,1051.101274900022,None,1049.9164067000092,1051.1181959000241,a,1,赞成,k,1,0.47841650000191294,0.3621030999929644,hcc,f,19,2024_Apr_17_1620,mian,2021.2.3,58.84024696626782,
,,,,,,1,0,pic/flanker6.png,pic/flanker4.png,s,l,pic/AffRest2.png,,,,,,,,,,,,,,,,,,,,,,,,,0,1,1,1,0,72,72,45,,,,1053.7690400000138,None,1052.584313600004,1053.785658800014,s,1,懒惰,l,1,0.5999633999890648,0.5229126999911387,hcc,f,19,2024_Apr_17_1620,mian,2021.2.3,58.84024696626782,
,,,,,,1,0,pic/flanker5.png,pic/flanker3.png,a,l,pic/AffRest2.png,,,,,,,,,,,,,,,,,,,,,,,,,0,1,1,1,0,73,73,23,,,,1056.8198957999994,None,1055.6358861000044,1056.836382700014,a,1,嘲笑,l,1,0.6408361000067089,0.523168399988208,hcc,f,19,2024_Apr_17_1620,mian,2021.2.3,58.84024696626782,
,,,,,,1,1,pic/flanker5.png,pic/flanker3.png,a,k,pic/AffRest2.png,,,,,,,,,,,,,,,,,,,,,,,,,0,1,1,1,0,74,74,76,,,,1059.8214278000232,None,1058.636643100006,1059.8381895000057,a,1,奉献,k,1,0.5284500000125263,0.45700330002000555,hcc,f,19,2024_Apr_17_1620,mian,2021.2.3,58.84024696626782,
,,,,,,0,0,pic/flanker6.png,pic/flanker2.png,a,l,pic/AffRest2.png,,,,,,,,,,,,,,,,,,,,,,,,,0,1,1,1,0,75,75,25,,,,1062.6403003000014,None,1061.455548500002,1062.6560592000023,a,1,轻率,l,1,0.70496929998626,0.4246477000124287,hcc,f,19,2024_Apr_17_1620,mian,2021.2.3,58.84024696626782,
,,,,,,0,1,pic/flanker5.png,pic/flanker1.png,s,k,pic/AffRest2.png,,,,,,,,,,,,,,,,,,,,,,,,,0,1,1,1,0,76,76,72,,,,1065.7910464000015,None,1064.6075200000196,1065.807600900007,s,1,诚恳,k,1,0.5371069999819156,0.5095294000057038,hcc,f,19,2024_Apr_17_1620,mian,2021.2.3,58.84024696626782,
,,,,,,1,1,pic/flanker5.png,pic/flanker3.png,a,k,pic/AffRest2.png,,,,,,,,,,,,,,,,,,,,,,,,,0,1,1,1,0,77,77,12,,,,1068.6589931000199,None,1067.4753769000235,1068.6757532000192,a,1,吉祥,k,1,0.4896317000093404,0.4571303999982774,hcc,f,19,2024_Apr_17_1620,mian,2021.2.3,58.84024696626782,
,,,,,,0,0,pic/flanker5.png,pic/flanker1.png,s,l,pic/AffRest2.png,,,,,,,,,,,,,,,,,,,,,,,,,0,1,1,1,0,78,78,67,,,,1071.5778985000215,None,1070.3931174000027,1071.5947873000114,s,1,假冒,l,1,0.6981805000104941,0.44348590000299737,hcc,f,19,2024_Apr_17_1620,mian,2021.2.3,58.84024696626782,
,,,,,,0,0,pic/flanker5.png,pic/flanker1.png,s,l,pic/AffRest2.png,,,,,,,,,,,,,,,,,,,,,,,,,0,1,1,1,0,79,79,35,,,,1074.6798698000202,None,1073.4961011999985,1074.695478700014,s,1,沮丧,l,1,0.7965973999816924,0.5952641000039876,hcc,f,19,2024_Apr_17_1620,mian,2021.2.3,58.84024696626782,
,,,,,,,,,,,,pic/AffRest2.png,,,,,,,,,,,,,,,,,,,,,,,,,0,1,1,1,,,,,,,,,,,,,,,,,,,hcc,f,19,2024_Apr_17_1620,mian,2021.2.3,58.84024696626782,
,,,,,,0,0,pic/flanker5.png,pic/flanker1.png,s,l,pic/AffRest3.png,,,,,,,,,,,,,,,,,,,,,,,,,0,2,2,2,0,0,0,11,,,,1081.1999440000218,None,1080.008882299997,1081.216781199997,s,1,嘲笑,l,1,0.5830398000252899,0.38131569998222403,hcc,f,19,2024_Apr_17_1620,mian,2021.2.3,58.84024696626782,
,,,,,,1,0,pic/flanker6.png,pic/flanker4.png,s,l,pic/AffRest3.png,,,,,,,,,,,,,,,,,,,,,,,,,0,2,2,2,0,1,1,61,,,,1084.04979010002,None,1082.866483300022,1084.066861600004,s,1,轻率,l,1,0.6269767000048887,0.4937831000133883,hcc,f,19,2024_Apr_17_1620,mian,2021.2.3,58.84024696626782,
,,,,,,0,0,pic/flanker5.png,pic/flanker1.png,s,l,pic/AffRest3.png,,,,,,,,,,,,,,,,,,,,,,,,,0,2,2,2,0,2,2,19,,,,1086.985757700022,None,1085.8013744000054,1087.0023660000006,s,1,懒惰,l,1,0.6794606999901589,0.4574819999979809,hcc,f,19,2024_Apr_17_1620,mian,2021.2.3,58.84024696626782,
,,,,,,1,1,pic/flanker6.png,pic/flanker4.png,s,k,pic/AffRest3.png,,,,,,,,,,,,,,,,,,,,,,,,,0,2,2,2,0,3,3,70,,,,1089.9714771000145,None,1088.7861465000024,1089.9864879000233,s,1,敬佩,k,1,0.6650845000112895,0.4121067999803927,hcc,f,19,2024_Apr_17_1620,mian,2021.2.3,58.84024696626782,
,,,,,,1,0,pic/flanker6.png,pic/flanker4.png,s,l,pic/AffRest3.png,,,,,,,,,,,,,,,,,,,,,,,,,0,2,2,2,0,4,4,13,,,,1092.9387369000178,None,1091.754430800007,1092.9554802000057,s,1,消沉,l,1,0.5334090999967884,0.44793769999523647,hcc,f,19,2024_Apr_17_1620,mian,2021.2.3,58.84024696626782,
,,,,,,1,0,pic/flanker6.png,pic/flanker4.png,s,l,pic/AffRest3.png,,,,,,,,,,,,,,,,,,,,,,,,,0,2,2,2,0,5,5,21,,,,1095.8572989999957,None,1094.6725877000135,1095.8742481000081,s,1,悲观,l,1,0.6544880000001285,1.2999408000032417,hcc,f,19,2024_Apr_17_1620,mian,2021.2.3,58.84024696626782,
,,,,,,0,0,pic/flanker6.png,pic/flanker2.png,a,l,pic/AffRest3.png,,,,,,,,,,,,,,,,,,,,,,,,,0,2,2,2,0,6,6,73,,,,1099.7923604000243,None,1098.6076575000188,1099.8090483999986,a,1,厌恶,l,1,1.6518470000009984,0.6659627000044566,hcc,f,19,2024_Apr_17_1620,mian,2021.2.3,58.84024696626782,
,,,,,,1,0,pic/flanker5.png,pic/flanker3.png,a,l,pic/AffRest3.png,,,,,,,,,,,,,,,,,,,,,,,,,0,2,2,2,0,7,7,23,,,,1103.9941168000223,None,1102.8099560000119,1104.011309100024,a,1,闷热,l,1,0.8775681000261102,0.5208060999866575,hcc,f,19,2024_Apr_17_1620,mian,2021.2.3,58.84024696626782,
,,,,,,1,1,pic/flanker6.png,pic/flanker4.png,s,k,pic/AffRest3.png,,,,,,,,,,,,,,,,,,,,,,,,,0,2,2,2,0,8,8,46,,,,1107.212904200016,None,1106.0282333000214,1107.22954260002,s,1,永恒,k,1,0.6093497000110801,0.5990074999863282,hcc,f,19,2024_Apr_17_1620,mian,2021.2.3,58.84024696626782,
,,,,,,1,0,pic/flanker5.png,pic/flanker3.png,a,l,pic/AffRest3.png,,,,,,,,,,,,,,,,,,,,,,,,,0,2,2,2,0,9,9,71,,,,1110.397970799997,None,1109.2137599000125,1110.41428550001,a,1,禁止,l,1,0.872486200009007,0.5623614999931306,hcc,f,19,2024_Apr_17_1620,mian,2021.2.3,58.84024696626782,
,,,,,,1,1,pic/flanker6.png,pic/flanker4.png,s,k,pic/AffRest3.png,,,,,,,,,,,,,,,,,,,,,,,,,0,2,2,2,0,10,10,78,,,,1113.8655488000077,None,1112.6815744000196,1113.8822189000202,s,1,俊秀,k,1,0.5758341000182554,0.49104989998159,hcc,f,19,2024_Apr_17_1620,mian,2021.2.3,58.84024696626782,
,,,,,,1,0,pic/flanker6.png,pic/flanker4.png,s,l,pic/AffRest3.png,,,,,,,,,,,,,,,,,,,,,,,,,0,2,2,2,0,11,11,77,,,,1116.9006992000213,None,1115.7162928000034,1116.9173237000068,s,1,落后,l,1,0.5385942999855615,0.510621399997035,hcc,f,19,2024_Apr_17_1620,mian,2021.2.3,58.84024696626782,
,,,,,,0,0,pic/flanker6.png,pic/flanker2.png,a,l,pic/AffRest3.png,,,,,,,,,,,,,,,,,,,,,,,,,0,2,2,2,0,12,12,41,,,,1119.818675800023,None,1118.6339468000224,1119.8354757000052,a,1,穷苦,l,1,0.5396340999868698,0.7506323999841698,hcc,f,19,2024_Apr_17_1620,mian,2021.2.3,58.84024696626782,
,,,,,,1,1,pic/flanker6.png,pic/flanker4.png,s,k,pic/AffRest3.png,,,,,,,,,,,,,,,,,,,,,,,,,0,2,2,2,0,13,13,38,,,,1123.0865947999991,None,1121.9029643000104,1123.1038055000245,s,1,清秀,k,1,0.45151159999659285,0.4122569999890402,hcc,f,19,2024_Apr_17_1620,mian,2021.2.3,58.84024696626782,
,,,,,,1,0,pic/flanker5.png,pic/flanker3.png,a,l,pic/AffRest3.png,,,,,,,,,,,,,,,,,,,,,,,,,0,2,2,2,0,14,14,63,,,,1125.923332300008,None,1124.7375007000228,1125.9392965000006,a,1,丢失,l,1,0.5187727999873459,0.5999711999902502,hcc,f,19,2024_Apr_17_1620,mian,2021.2.3,58.84024696626782,
,,,,,,0,0,pic/flanker6.png,pic/flanker2.png,a,l,pic/AffRest3.png,,,,,,,,,,,,,,,,,,,,,,,,,0,2,2,2,0,15,15,65,,,,1129.0116939000145,None,1127.8237144000013,1129.023848700017,a,1,罚款,l,1,0.6663255000021309,0.43501889999606647,hcc,f,19,2024_Apr_17_1620,mian,2021.2.3,58.84024696626782,
,,,,,,0,0,pic/flanker6.png,pic/flanker2.png,a,l,pic/AffRest3.png,,,,,,,,,,,,,,,,,,,,,,,,,0,2,2,2,0,16,16,9,,,,1132.1583899999969,None,1130.9740807000198,1132.1749294000037,a,1,逃避,l,1,0.6214893999858759,0.37855570000829175,hcc,f,19,2024_Apr_17_1620,mian,2021.2.3,58.84024696626782,
,,,,,,1,0,pic/flanker6.png,pic/flanker4.png,s,l,pic/AffRest3.png,,,,,,,,,,,,,,,,,,,,,,,,,0,2,2,2,0,17,17,53,,,,1135.17718660002,None,1133.9918332000088,1135.193765700009,s,1,焦躁,l,1,0.5839892000076361,0.459644999995362,hcc,f,19,2024_Apr_17_1620,mian,2021.2.3,58.84024696626782,
,,,,,,1,0,pic/flanker5.png,pic/flanker3.png,a,l,pic/AffRest3.png,,,,,,,,,,,,,,,,,,,,,,,,,0,2,2,2,0,18,18,79,,,,1138.0950539000041,None,1136.9106943000224,1138.111485100002,a,1,撒谎,l,1,0.6155930999957491,0.4743836999987252,hcc,f,19,2024_Apr_17_1620,mian,2021.2.3,58.84024696626782,
,,,,,,0,1,pic/flanker6.png,pic/flanker2.png,a,k,pic/AffRest3.png,,,,,,,,,,,,,,,,,,,,,,,,,0,2,2,2,0,19,19,74,,,,1141.0633359000203,None,1139.878612600005,1141.0799265000096,a,1,雄厚,k,1,0.6232614000036847,0.36583269998664036,hcc,f,19,2024_Apr_17_1620,mian,2021.2.3,58.84024696626782,
,,,,,,1,1,pic/flanker5.png,pic/flanker3.png,a,k,pic/AffRest3.png,,,,,,,,,,,,,,,,,,,,,,,,,0,2,2,2,0,20,20,52,,,,1144.0316596000048,None,1142.8534396000032,1144.0653996000183,a,1,旺盛,k,1,0.5620945999980904,0.528607500018552,hcc,f,19,2024_Apr_17_1620,mian,2021.2.3,58.84024696626782,
,,,,,,0,0,pic/flanker6.png,pic/flanker2.png,a,l,pic/AffRest3.png,,,,,,,,,,,,,,,,,,,,,,,,,0,2,2,2,0,21,21,49,,,,1147.0827819000115,None,1145.8986383000156,1147.0998290000134,a,1,冷笑,l,1,0.5584944000001997,0.35565900002256967,hcc,f,19,2024_Apr_17_1620,mian,2021.2.3,58.84024696626782,
,,,,,,0,1,pic/flanker5.png,pic/flanker1.png,s,k,pic/AffRest3.png,,,,,,,,,,,,,,,,,,,,,,,,,0,2,2,2,0,22,22,8,,,,1150.0172596000193,None,1148.8332893000043,1150.0340056999994,s,1,吉祥,k,1,0.468303300003754,0.39115889999084175,hcc,f,19,2024_Apr_17_1620,mian,2021.2.3,58.84024696626782,
,,,,,,0,1,pic/flanker5.png,pic/flanker1.png,s,k,pic/AffRest3.png,,,,,,,,,,,,,,,,,,,,,,,,,0,2,2,2,0,23,23,16,,,,1152.7019621000218,None,1151.5188294000109,1152.719173999998,s,1,瑰丽,k,1,0.4858548000047449,0.4718185999954585,hcc,f,19,2024_Apr_17_1620,mian,2021.2.3,58.84024696626782,
,,,,,,0,0,pic/flanker5.png,pic/flanker1.png,s,l,pic/AffRest3.png,,,,,,,,,,,,,,,,,,,,,,,,,0,2,2,2,0,24,24,3,,,,1155.5046811000211,None,1154.3199783000164,1155.520827100001,s,1,自卑,l,1,0.7007620999938808,0.3769470000115689,hcc,f,19,2024_Apr_17_1620,mian,2021.2.3,58.84024696626782,
,,,,,,0,1,pic/flanker5.png,pic/flanker1.png,s,k,pic/AffRest3.png,,,,,,,,,,,,,,,,,,,,,,,,,0,2,2,2,0,25,25,48,,,,1158.505776200007,None,1157.3225276000157,1158.522703499999,s,1,爽朗,k,1,0.5051768999837805,0.4059244000236504,hcc,f,19,2024_Apr_17_1620,mian,2021.2.3,58.84024696626782,
,,,,,,1,1,pic/flanker5.png,pic/flanker3.png,a,k,pic/AffRest3.png,,,,,,,,,,,,,,,,,,,,,,,,,0,2,2,2,0,26,26,20,,,,1161.3403392000182,None,1160.1554608000151,1161.3570204999996,a,1,有利,k,1,0.5287403000111226,0.528594500006875,hcc,f,19,2024_Apr_17_1620,mian,2021.2.3,58.84024696626782,
,,,,,,0,0,pic/flanker6.png,pic/flanker2.png,a,l,pic/AffRest3.png,,,,,,,,,,,,,,,,,,,,,,,,,0,2,2,2,0,27,27,25,,,,1164.2580911999976,None,1163.0750770000159,1164.2748285999987,a,1,孤单,l,1,0.7049661999917589,0.2983883999986574,hcc,f,19,2024_Apr_17_1620,mian,2021.2.3,58.84024696626782,
,,,,,,0,1,pic/flanker6.png,pic/flanker2.png,a,k,pic/AffRest3.png,,,,,,,,,,,,,,,,,,,,,,,,,0,2,2,2,0,28,28,34,,,,1167.1932149000058,None,1166.0099544000113,1167.2099082000204,a,1,留恋,k,1,0.5990971999999601,0.3734429999894928,hcc,f,19,2024_Apr_17_1620,mian,2021.2.3,58.84024696626782,
,,,,,,1,1,pic/flanker6.png,pic/flanker4.png,s,k,pic/AffRest3.png,,,,,,,,,,,,,,,,,,,,,,,,,0,2,2,2,0,29,29,22,,,,1170.0453699000063,None,1168.8608160000003,1170.0616741999984,s,1,畅销,k,1,0.5875172000087332,0.5853263000026345,hcc,f,19,2024_Apr_17_1620,mian,2021.2.3,58.84024696626782,
,,,,,,1,1,pic/flanker6.png,pic/flanker4.png,s,k,pic/AffRest3.png,,,,,,,,,,,,,,,,,,,,,,,,,0,2,2,2,0,30,30,30,,,,1173.2458476000174,None,1172.0616596000036,1173.2626045000216,s,1,典雅,k,1,0.4470147999818437,1.1953453000169247,hcc,f,19,2024_Apr_17_1620,mian,2021.2.3,58.84024696626782,
,,,,,,1,0,pic/flanker6.png,pic/flanker4.png,s,l,pic/AffRest3.png,,,,,,,,,,,,,,,,,,,,,,,,,0,2,2,2,0,31,31,5,,,,1176.9154536999995,None,1175.7341867000214,1176.9490729000245,s,1,缺乏,l,1,0.6437451999809127,0.5111196000070777,hcc,f,19,2024_Apr_17_1620,mian,2021.2.3,58.84024696626782,
,,,,,,0,1,pic/flanker5.png,pic/flanker1.png,s,k,pic/AffRest3.png,,,,,,,,,,,,,,,,,,,,,,,,,0,2,2,2,0,32,32,56,,,,1180.0495287000085,None,1178.8654660000175,1180.0668842000014,s,1,顽强,k,1,0.4706426999764517,0.48367730001336895,hcc,f,19,2024_Apr_17_1620,mian,2021.2.3,58.84024696626782,
,,,,,,1,1,pic/flanker5.png,pic/flanker3.png,a,k,pic/AffRest3.png,,,,,,,,,,,,,,,,,,,,,,,,,0,2,2,2,0,33,33,28,,,,1182.9346966000157,None,1181.7509366000013,1182.9508429999987,a,1,珍藏,k,1,0.45303730000159703,0.4523520999937318,hcc,f,19,2024_Apr_17_1620,mian,2021.2.3,58.84024696626782,
,,,,,,1,1,pic/flanker5.png,pic/flanker3.png,a,k,pic/AffRest3.png,,,,,,,,,,,,,,,,,,,,,,,,,0,2,2,2,0,34,34,4,,,,1185.8696808000095,None,1184.68627190002,1185.8863330000022,a,1,卓越,k,1,0.5243494000169449,0.4387054000108037,hcc,f,19,2024_Apr_17_1620,mian,2021.2.3,58.84024696626782,
,,,,,,0,1,pic/flanker5.png,pic/flanker1.png,s,k,pic/AffRest3.png,,,,,,,,,,,,,,,,,,,,,,,,,0,2,2,2,0,35,35,0,,,,1188.7036885000125,None,1187.519882100023,1188.7210307000205,s,1,如愿,k,1,0.45779030001722276,0.4444387999828905,hcc,f,19,2024_Apr_17_1620,mian,2021.2.3,58.84024696626782,
,,,,,,0,0,pic/flanker6.png,pic/flanker2.png,a,l,pic/AffRest3.png,,,,,,,,,,,,,,,,,,,,,,,,,0,2,2,2,0,36,36,17,,,,1191.5218628000002,None,1190.3378720000037,1191.5385691999982,a,1,别扭,l,1,0.5599906999850646,0.32898000002023764,hcc,f,19,2024_Apr_17_1620,mian,2021.2.3,58.84024696626782,
,,,,,,1,0,pic/flanker5.png,pic/flanker3.png,a,l,pic/AffRest3.png,,,,,,,,,,,,,,,,,,,,,,,,,0,2,2,2,0,37,37,15,,,,1194.4405279000057,None,1193.257520700019,1194.4568678000069,a,1,杂乱,l,1,0.5139180999831297,0.47530989997903816,hcc,f,19,2024_Apr_17_1620,mian,2021.2.3,58.84024696626782,
,,,,,,1,0,pic/flanker5.png,pic/flanker3.png,a,l,pic/AffRest3.png,,,,,,,,,,,,,,,,,,,,,,,,,0,2,2,2,0,38,38,55,,,,1197.242241800006,None,1196.0573825000029,1197.2587460000068,a,1,郁闷,l,1,0.4536742999916896,0.44269019999774173,hcc,f,19,2024_Apr_17_1620,mian,2021.2.3,58.84024696626782,
,,,,,,1,1,pic/flanker5.png,pic/flanker3.png,a,k,pic/AffRest3.png,,,,,,,,,,,,,,,,,,,,,,,,,0,2,2,2,0,39,39,76,,,,1200.1112704999978,None,1198.9257727000222,1200.1276058000221,a,1,公平,k,1,0.47849629999836907,0.40983560000313446,hcc,f,19,2024_Apr_17_1620,mian,2021.2.3,58.84024696626782,
,,,,,,0,0,pic/flanker5.png,pic/flanker1.png,s,l,pic/AffRest3.png,,,,,,,,,,,,,,,,,,,,,,,,,0,2,2,2,0,40,40,35,,,,1202.827839000005,None,1201.643630800012,1202.8451589000179,s,1,争吵,l,1,0.608930499991402,0.6134509999828879,hcc,f,19,2024_Apr_17_1620,mian,2021.2.3,58.84024696626782,
,,,,,,1,1,pic/flanker5.png,pic/flanker3.png,a,k,pic/AffRest3.png,,,,,,,,,,,,,,,,,,,,,,,,,0,2,2,2,0,41,41,60,,,,1206.080677400023,None,1204.8953469000116,1206.0971830000053,a,1,富丽,k,1,0.45071410000673495,0.377337499987334,hcc,f,19,2024_Apr_17_1620,mian,2021.2.3,58.84024696626782,
,,,,,,0,1,pic/flanker6.png,pic/flanker2.png,a,k,pic/AffRest3.png,,,,,,,,,,,,,,,,,,,,,,,,,0,2,2,2,0,42,42,10,,,,1208.830447300017,None,1207.6471151000005,1208.8474862000148,a,1,秀丽,k,1,0.547575999982655,0.39712629999849014,hcc,f,19,2024_Apr_17_1620,mian,2021.2.3,58.84024696626782,
,,,,,,1,1,pic/flanker6.png,pic/flanker4.png,s,k,pic/AffRest3.png,,,,,,,,,,,,,,,,,,,,,,,,,0,2,2,2,0,43,43,14,,,,1211.5994928000146,None,1210.415031600016,1211.616064300004,s,1,生动,k,1,0.43737669999245554,0.4607213999843225,hcc,f,19,2024_Apr_17_1620,mian,2021.2.3,58.84024696626782,
,,,,,,1,0,pic/flanker5.png,pic/flanker3.png,a,l,pic/AffRest3.png,,,,,,,,,,,,,,,,,,,,,,,,,0,2,2,2,0,44,44,47,,,,1214.3173812000023,None,1213.1328868000128,1214.3339525000192,a,1,沮丧,l,1,0.524585900013335,0.4805571000033524,hcc,f,19,2024_Apr_17_1620,mian,2021.2.3,58.84024696626782,
,,,,,,1,0,pic/flanker5.png,pic/flanker3.png,a,l,pic/AffRest3.png,,,,,,,,,,,,,,,,,,,,,,,,,0,2,2,2,0,45,45,39,,,,1217.2695422999968,None,1216.084858600021,1217.2853877000161,a,1,伤心,l,1,0.5314729000092484,0.41510280000511557,hcc,f,19,2024_Apr_17_1620,mian,2021.2.3,58.84024696626782,
,,,,,,1,1,pic/flanker5.png,pic/flanker3.png,a,k,pic/AffRest3.png,,,,,,,,,,,,,,,,,,,,,,,,,0,2,2,2,0,46,46,68,,,,1220.2363983000105,None,1219.0531037000183,1220.253259899997,a,1,振作,k,1,0.6013226000068244,0.46396170000662096,hcc,f,19,2024_Apr_17_1620,mian,2021.2.3,58.84024696626782,
,,,,,,0,1,pic/flanker5.png,pic/flanker1.png,s,k,pic/AffRest3.png,,,,,,,,,,,,,,,,,,,,,,,,,0,2,2,2,0,47,47,64,,,,1223.3387442000094,None,1222.154302400013,1223.3548433000105,s,1,富足,k,1,0.5059927000256721,0.7207736999844201,hcc,f,19,2024_Apr_17_1620,mian,2021.2.3,58.84024696626782,
,,,,,,1,0,pic/flanker6.png,pic/flanker4.png,s,l,pic/AffRest3.png,,,,,,,,,,,,,,,,,,,,,,,,,0,2,2,2,0,48,48,37,,,,1226.439852600015,None,1225.2556097000197,1226.456523300003,s,1,胡涂,l,1,0.6272290000051726,0.5547157000110019,hcc,f,19,2024_Apr_17_1620,mian,2021.2.3,58.84024696626782,
,,,,,,1,0,pic/flanker6.png,pic/flanker4.png,s,l,pic/AffRest3.png,,,,,,,,,,,,,,,,,,,,,,,,,0,2,2,2,0,49,49,29,,,,1229.558306300023,None,1228.3737817000074,1229.574750300002,s,1,慌忙,l,1,0.6681530000059865,0.6662107000011019,hcc,f,19,2024_Apr_17_1620,mian,2021.2.3,58.84024696626782,
,,,,,,0,1,pic/flanker6.png,pic/flanker2.png,a,k,pic/AffRest3.png,,,,,,,,,,,,,,,,,,,,,,,,,0,2,2,2,0,50,50,42,,,,1232.9268144000089,None,1231.742456100008,1232.9434256000095,a,1,奉献,k,1,0.49866510002175346,0.4715411000070162,hcc,f,19,2024_Apr_17_1620,mian,2021.2.3,58.84024696626782,
,,,,,,1,0,pic/flanker5.png,pic/flanker3.png,a,l,pic/AffRest3.png,,,,,,,,,,,,,,,,,,,,,,,,,0,2,2,2,0,51,51,7,,,,1235.728173600015,None,1234.5451016000006,1235.7452237000107,a,1,处罚,l,1,0.6353280000039376,0.45483030000468716,hcc,f,19,2024_Apr_17_1620,mian,2021.2.3,58.84024696626782,
,,,,,,1,0,pic/flanker6.png,pic/flanker4.png,s,l,pic/AffRest3.png,,,,,,,,,,,,,,,,,,,,,,,,,0,2,2,2,0,52,52,45,,,,1238.6455252000014,None,1237.462687000021,1238.6621886000212,s,1,忧虑,l,1,1.097418999997899,0.9782155000139028,hcc,f,19,2024_Apr_17_1620,mian,2021.2.3,58.84024696626782,
,,,,,,0,0,pic/flanker5.png,pic/flanker1.png,s,l,pic/AffRest3.png,,,,,,,,,,,,,,,,,,,,,,,,,0,2,2,2,0,53,53,27,,,,1242.5820183000178,None,1241.3974619000219,1242.598444000003,s,1,心慌,l,1,0.9305526000098325,0.913376899989089,hcc,f,19,2024_Apr_17_1620,mian,2021.2.3,58.84024696626782,
,,,,,,1,1,pic/flanker6.png,pic/flanker4.png,s,k,pic/AffRest3.png,,,,,,,,,,,,,,,,,,,,,,,,,0,2,2,2,0,54,54,6,,,,1246.3003717999964,None,1245.1162484000088,1246.3172760000161,s,1,廉洁,k,1,0.5946340000082273,0.5941165999975055,hcc,f,19,2024_Apr_17_1620,mian,2021.2.3,58.84024696626782,
,,,,,,1,1,pic/flanker5.png,pic/flanker3.png,a,k,pic/AffRest3.png,,,,,,,,,,,,,,,,,,,,,,,,,0,2,2,2,0,55,55,44,,,,1249.4189269000199,None,1248.2385083000117,1249.4511118000082,a,1,舒畅,k,1,0.8812424999778159,0.4461223999969661,hcc,f,19,2024_Apr_17_1620,mian,2021.2.3,58.84024696626782,
,,,,,,0,1,pic/flanker6.png,pic/flanker2.png,a,k,pic/AffRest3.png,,,,,,,,,,,,,,,,,,,,,,,,,0,2,2,2,0,56,56,66,,,,1252.6370729000191,None,1251.4518705000228,1252.6532107999956,a,1,优雅,k,1,0.5356885999790393,0.369445899996208,hcc,f,19,2024_Apr_17_1620,mian,2021.2.3,58.84024696626782,
,,,,,,0,1,pic/flanker5.png,pic/flanker1.png,s,k,pic/AffRest3.png,,,,,,,,,,,,,,,,,,,,,,,,,0,2,2,2,0,57,57,24,,,,1255.571264600003,None,1254.389439599996,1255.6050094000238,s,1,赞成,k,1,0.4792874000268057,0.5408895000000484,hcc,f,19,2024_Apr_17_1620,mian,2021.2.3,58.84024696626782,
,,,,,,0,1,pic/flanker5.png,pic/flanker1.png,s,k,pic/AffRest3.png,,,,,,,,,,,,,,,,,,,,,,,,,0,2,2,2,0,58,58,40,,,,1258.5071497000172,None,1257.3225986000034,1258.5240763000038,s,1,精致,k,1,0.5217586999933701,0.517809999990277,hcc,f,19,2024_Apr_17_1620,mian,2021.2.3,58.84024696626782,
,,,,,,0,1,pic/flanker6.png,pic/flanker2.png,a,k,pic/AffRest3.png,,,,,,,,,,,,,,,,,,,,,,,,,0,2,2,2,0,59,59,50,,,,1261.4414804000116,None,1260.2576021999994,1261.4581288000045,a,1,享受,k,1,0.5433114000188652,0.3387207000050694,hcc,f,19,2024_Apr_17_1620,mian,2021.2.3,58.84024696626782,
,,,,,,0,0,pic/flanker6.png,pic/flanker2.png,a,l,pic/AffRest3.png,,,,,,,,,,,,,,,,,,,,,,,,,0,2,2,2,0,60,60,1,,,,1264.359753800003,None,1263.1750875000143,1264.3762005000026,a,1,失意,l,1,0.5278519999992568,0.36144269999931566,hcc,f,19,2024_Apr_17_1620,mian,2021.2.3,58.84024696626782,
,,,,,,1,0,pic/flanker6.png,pic/flanker4.png,s,l,pic/AffRest3.png,,,,,,,,,,,,,,,,,,,,,,,,,0,2,2,2,0,61,61,69,,,,1267.1608641000057,None,1265.976954600017,1267.1772461000073,s,1,怀疑,l,1,0.6426440000068396,0.48010190000059083,hcc,f,19,2024_Apr_17_1620,mian,2021.2.3,58.84024696626782,
,,,,,,0,1,pic/flanker5.png,pic/flanker1.png,s,k,pic/AffRest3.png,,,,,,,,,,,,,,,,,,,,,,,,,0,2,2,2,0,62,62,72,,,,1270.2450058000104,None,1269.060966799996,1270.2636929000146,s,1,充裕,k,1,0.5378289000072982,0.5585896999982651,hcc,f,19,2024_Apr_17_1620,mian,2021.2.3,58.84024696626782,
,,,,,,0,1,pic/flanker6.png,pic/flanker2.png,a,k,pic/AffRest3.png,,,,,,,,,,,,,,,,,,,,,,,,,0,2,2,2,0,63,63,18,,,,1273.2810145000112,None,1272.0959963000205,1273.2973046000116,a,1,诚恳,k,1,0.6800024000112899,0.345107699977234,hcc,f,19,2024_Apr_17_1620,mian,2021.2.3,58.84024696626782,
,,,,,,1,1,pic/flanker6.png,pic/flanker4.png,s,k,pic/AffRest3.png,,,,,,,,,,,,,,,,,,,,,,,,,0,2,2,2,0,64,64,62,,,,1276.2153629999957,None,1275.0307132000162,1276.2324408999993,s,1,前进,k,1,0.4468973999901209,0.5061217999900691,hcc,f,19,2024_Apr_17_1620,mian,2021.2.3,58.84024696626782,
,,,,,,0,0,pic/flanker5.png,pic/flanker1.png,s,l,pic/AffRest3.png,,,,,,,,,,,,,,,,,,,,,,,,,0,2,2,2,0,65,65,43,,,,1279.2005452000012,None,1278.0166264,1279.216767100006,s,1,浪费,l,1,0.5286655000236351,0.3320260999898892,hcc,f,19,2024_Apr_17_1620,mian,2021.2.3,58.84024696626782,
,,,,,,0,0,pic/flanker5.png,pic/flanker1.png,s,l,pic/AffRest3.png,,,,,,,,,,,,,,,,,,,,,,,,,0,2,2,2,0,66,66,67,,,,1281.985490400024,None,1280.8012778999982,1282.0023782000062,s,1,黑暗,l,1,0.5668931999825872,0.3500260000000708,hcc,f,19,2024_Apr_17_1620,mian,2021.2.3,58.84024696626782,
,,,,,,1,0,pic/flanker5.png,pic/flanker3.png,a,l,pic/AffRest3.png,,,,,,,,,,,,,,,,,,,,,,,,,0,2,2,2,0,67,67,31,,,,1284.9029771000205,None,1283.7188701000123,1284.9196116999956,a,1,损害,l,1,0.600596799980849,0.5286373999842908,hcc,f,19,2024_Apr_17_1620,mian,2021.2.3,58.84024696626782,
,,,,,,0,0,pic/flanker5.png,pic/flanker1.png,s,l,pic/AffRest3.png,,,,,,,,,,,,,,,,,,,,,,,,,0,2,2,2,0,68,68,51,,,,1287.9051166000136,None,1286.7227449000056,1287.9212025000015,s,1,鲁莽,l,1,1.68200010000146,0.4240863000159152,hcc,f,19,2024_Apr_17_1620,mian,2021.2.3,58.84024696626782,
,,,,,,0,0,pic/flanker5.png,pic/flanker1.png,s,l,pic/AffRest3.png,,,,,,,,,,,,,,,,,,,,,,,,,0,2,2,2,0,69,69,59,,,,1291.9407913000032,None,1290.7562062000216,1291.9576475000067,s,1,烦恼,l,1,0.5727312999952119,0.43046880001202226,hcc,f,19,2024_Apr_17_1620,mian,2021.2.3,58.84024696626782,
,,,,,,0,0,pic/flanker5.png,pic/flanker1.png,s,l,pic/AffRest3.png,,,,,,,,,,,,,,,,,,,,,,,,,0,2,2,2,0,70,70,75,,,,1294.7582175999996,None,1293.574903300003,1294.7746116000053,s,1,假冒,l,1,0.5617568000161555,0.5499741000239737,hcc,f,19,2024_Apr_17_1620,mian,2021.2.3,58.84024696626782,
,,,,,,0,0,pic/flanker6.png,pic/flanker2.png,a,l,pic/AffRest3.png,,,,,,,,,,,,,,,,,,,,,,,,,0,2,2,2,0,71,71,33,,,,1297.6940611000173,None,1296.5089586999966,1297.7098467000178,a,1,排斥,l,1,0.46700699999928474,0.6063718000077643,hcc,f,19,2024_Apr_17_1620,mian,2021.2.3,58.84024696626782,
,,,,,,1,1,pic/flanker5.png,pic/flanker3.png,a,k,pic/AffRest3.png,,,,,,,,,,,,,,,,,,,,,,,,,0,2,2,2,0,72,72,12,,,,1300.794225300022,None,1299.6105134000245,1300.8112294000166,a,1,圣洁,k,1,0.5574316000274848,0.4450600999989547,hcc,f,19,2024_Apr_17_1620,mian,2021.2.3,58.84024696626782,
,,,,,,0,1,pic/flanker6.png,pic/flanker2.png,a,k,pic/AffRest3.png,,,,,,,,,,,,,,,,,,,,,,,,,0,2,2,2,0,73,73,26,,,,1303.7126728000003,None,1302.5298205,1303.7301065000065,a,1,羡慕,k,1,0.5318406000151299,0.3364216999907512,hcc,f,19,2024_Apr_17_1620,mian,2021.2.3,58.84024696626782,
,,,,,,0,1,pic/flanker6.png,pic/flanker2.png,a,k,pic/AffRest3.png,,,,,,,,,,,,,,,,,,,,,,,,,0,2,2,2,0,74,74,2,,,,1306.5145769000228,None,1305.3298644000024,1306.5321350000158,a,1,豪放,k,1,0.4782372000045143,0.31995390000520274,hcc,f,19,2024_Apr_17_1620,mian,2021.2.3,58.84024696626782,
,,,,,,1,1,pic/flanker6.png,pic/flanker4.png,s,k,pic/AffRest3.png,,,,,,,,,,,,,,,,,,,,,,,,,0,2,2,2,0,75,75,54,,,,1309.1328485000122,None,1307.948253700015,1309.1486854999966,s,1,正直,k,1,0.47221850001369603,0.5446265999926254,hcc,f,19,2024_Apr_17_1620,mian,2021.2.3,58.84024696626782,
,,,,,,0,1,pic/flanker5.png,pic/flanker1.png,s,k,pic/AffRest3.png,,,,,,,,,,,,,,,,,,,,,,,,,0,2,2,2,0,76,76,32,,,,1312.0676991000073,None,1310.882716799999,1312.0839064000174,s,1,鲜艳,k,1,0.5119995000131894,0.351492000016151,hcc,f,19,2024_Apr_17_1620,mian,2021.2.3,58.84024696626782,
,,,,,,0,0,pic/flanker6.png,pic/flanker2.png,a,l,pic/AffRest3.png,,,,,,,,,,,,,,,,,,,,,,,,,0,2,2,2,0,77,77,57,,,,1314.7518514000112,None,1313.5680034999968,1314.7686753000016,a,1,堵塞,l,1,0.9021976000221912,0.5183864000136964,hcc,f,19,2024_Apr_17_1620,mian,2021.2.3,58.84024696626782,
,,,,,,0,1,pic/flanker6.png,pic/flanker2.png,a,k,pic/AffRest3.png,,,,,,,,,,,,,,,,,,,,,,,,,0,2,2,2,0,78,78,58,,,,1318.0542800000112,None,1316.8693459000206,1318.0710405000136,a,1,丰满,k,1,0.5596160000131931,0.35231290000956506,hcc,f,19,2024_Apr_17_1620,mian,2021.2.3,58.84024696626782,
,,,,,,1,1,pic/flanker5.png,pic/flanker3.png,a,k,pic/AffRest3.png,,,,,,,,,,,,,,,,,,,,,,,,,0,2,2,2,0,79,79,36,,,,1321.0214180000185,None,1319.8371061000216,1321.0375806000084,a,1,热切,k,1,0.4625182999880053,0.46364799997536466,hcc,f,19,2024_Apr_17_1620,mian,2021.2.3,58.84024696626782,
