target,反应类型,条件,truetarget,CorAns,Position,congruency,AffValue,flankerPic,targetPic,corAnsF,corAnsA,RestPic,returnPractice.thisRepN,returnPractice.thisTrialN,returnPractice.thisN,returnPractice.thisIndex,pracNum.thisRepN,pracNum.thisTrialN,pracNum.thisN,pracNum.thisIndex,NumBlock1.thisRepN,NumBlock1.thisTrialN,NumBlock1.thisN,NumBlock1.thisIndex,NumBlock2.thisRepN,NumBlock2.thisTrialN,NumBlock2.thisN,NumBlock2.thisIndex,returnPrac.thisRepN,returnPrac.thisTrialN,returnPrac.thisN,returnPrac.thisIndex,PracAff.thisRepN,PracAff.thisTrialN,PracAff.thisN,PracAff.thisIndex,AffBlocks.thisRepN,AffBlocks.thisTrialN,AffBlocks.thisN,AffBlocks.thisIndex,AffBlock1.thisRepN,AffBlock1.thisTrialN,AffBlock1.thisN,AffBlock1.thisIndex,respNum2word.keys,respNum2word.corr,respNum2word.rt,text.started,text.stopped,blank.started,blank.stopped,respFlanker.keys,respFlanker.corr,thisWord,respAffWord.keys,respAffWord.corr,respAffWord.rt,respFlanker.rt,姓名,性别,年龄（周岁）,date,expName,psychopyVersion,frameRate,
2A,1,1,A,a,"[0.2, 0.2]",,,,,,,,0,0,0,0,0,0,0,0,,,,,,,,,,,,,,,,,,,,,,,,,a,1,1.215302299999962,,,,,,,,,,,,ljx,f,20,2024_Apr_11_0927,mian,2021.2.3,59.93629970066453,
A9,1,2,A,a,"[-0.2, 0.2]",,,,,,,,0,0,0,0,0,1,1,1,,,,,,,,,,,,,,,,,,,,,,,,,a,1,0.9844785000000229,,,,,,,,,,,,ljx,f,20,2024_Apr_11_0927,mian,2021.2.3,59.93629970066453,
7e,2,1,7.0,a,"[-0.2, -0.2]",,,,,,,,0,0,0,0,0,2,2,2,,,,,,,,,,,,,,,,,,,,,,,,,a,1,1.858558599999924,,,,,,,,,,,,ljx,f,20,2024_Apr_11_0927,mian,2021.2.3,59.93629970066453,
9H,2,2,9.0,a,"[0.2, -0.2]",,,,,,,,0,0,0,0,0,3,3,3,,,,,,,,,,,,,,,,,,,,,,,,,a,1,0.6364528999999948,,,,,,,,,,,,ljx,f,20,2024_Apr_11_0927,mian,2021.2.3,59.93629970066453,
h4,1,1,h,l,"[0.2, 0.2]",,,,,,,,0,0,0,0,0,4,4,4,,,,,,,,,,,,,,,,,,,,,,,,,l,1,1.2848159000000123,,,,,,,,,,,,ljx,f,20,2024_Apr_11_0927,mian,2021.2.3,59.93629970066453,
4H,1,2,H,a,"[-0.2, 0.2]",,,,,,,,0,0,0,0,0,5,5,5,,,,,,,,,,,,,,,,,,,,,,,,,a,1,0.6356692000000521,,,,,,,,,,,,ljx,f,20,2024_Apr_11_0927,mian,2021.2.3,59.93629970066453,
F8,2,1,8.0,l,"[-0.2, -0.2]",,,,,,,,0,0,0,0,0,6,6,6,,,,,,,,,,,,,,,,,,,,,,,,,l,1,0.6541859999999815,,,,,,,,,,,,ljx,f,20,2024_Apr_11_0927,mian,2021.2.3,59.93629970066453,
h7,2,2,7.0,a,"[0.2, -0.2]",,,,,,,,0,0,0,0,0,7,7,7,,,,,,,,,,,,,,,,,,,,,,,,,a,1,0.577255399999899,,,,,,,,,,,,ljx,f,20,2024_Apr_11_0927,mian,2021.2.3,59.93629970066453,
5e,1,1,e,l,"[0.2, 0.2]",,,,,,,,0,0,0,0,0,8,8,8,,,,,,,,,,,,,,,,,,,,,,,,,l,1,1.2679894000000331,,,,,,,,,,,,ljx,f,20,2024_Apr_11_0927,mian,2021.2.3,59.93629970066453,
e8,1,2,e,l,"[-0.2, 0.2]",,,,,,,,0,0,0,0,0,9,9,9,,,,,,,,,,,,,,,,,,,,,,,,,l,1,1.3855965000000197,,,,,,,,,,,,ljx,f,20,2024_Apr_11_0927,mian,2021.2.3,59.93629970066453,
4E,2,1,4.0,l,"[-0.2, -0.2]",,,,,,,,0,0,0,0,0,10,10,10,,,,,,,,,,,,,,,,,,,,,,,,,l,1,1.6833404999999857,,,,,,,,,,,,ljx,f,20,2024_Apr_11_0927,mian,2021.2.3,59.93629970066453,
5H,2,2,5.0,a,"[0.2, -0.2]",,,,,,,,0,0,0,0,0,11,11,11,,,,,,,,,,,,,,,,,,,,,,,,,a,1,0.7625908999999638,,,,,,,,,,,,ljx,f,20,2024_Apr_11_0927,mian,2021.2.3,59.93629970066453,
9E,1,1,E,a,"[0.2, 0.2]",,,,,,,,0,0,0,0,0,12,12,12,,,,,,,,,,,,,,,,,,,,,,,,,a,1,1.2817267000000356,,,,,,,,,,,,ljx,f,20,2024_Apr_11_0927,mian,2021.2.3,59.93629970066453,
h9,1,2,h,l,"[-0.2, 0.2]",,,,,,,,0,0,0,0,0,13,13,13,,,,,,,,,,,,,,,,,,,,,,,,,l,1,0.7627009000000271,,,,,,,,,,,,ljx,f,20,2024_Apr_11_0927,mian,2021.2.3,59.93629970066453,
2a,2,1,2.0,l,"[-0.2, -0.2]",,,,,,,,0,0,0,0,0,14,14,14,,,,,,,,,,,,,,,,,,,,,,,,,l,1,1.1834324999999808,,,,,,,,,,,,ljx,f,20,2024_Apr_11_0927,mian,2021.2.3,59.93629970066453,
e5,2,2,5.0,a,"[0.2, -0.2]",,,,,,,,0,0,0,0,0,15,15,15,,,,,,,,,,,,,,,,,,,,,,,,,a,1,1.9490379999999732,,,,,,,,,,,,ljx,f,20,2024_Apr_11_0927,mian,2021.2.3,59.93629970066453,
A5,1,1,A,a,"[0.2, 0.2]",,,,,,,,0,0,0,0,0,16,16,16,,,,,,,,,,,,,,,,,,,,,,,,,a,1,0.8841121000000385,,,,,,,,,,,,ljx,f,20,2024_Apr_11_0927,mian,2021.2.3,59.93629970066453,
a6,1,2,a,l,"[-0.2, 0.2]",,,,,,,,0,0,0,0,0,17,17,17,,,,,,,,,,,,,,,,,,,,,,,,,l,1,0.9118437999999287,,,,,,,,,,,,ljx,f,20,2024_Apr_11_0927,mian,2021.2.3,59.93629970066453,
2F,2,1,2.0,l,"[-0.2, -0.2]",,,,,,,,0,0,0,0,0,18,18,18,,,,,,,,,,,,,,,,,,,,,,,,,l,1,1.3474611000000323,,,,,,,,,,,,ljx,f,20,2024_Apr_11_0927,mian,2021.2.3,59.93629970066453,
e4,2,2,4.0,l,"[0.2, -0.2]",,,,,,,,0,0,0,0,0,19,19,19,,,,,,,,,,,,,,,,,,,,,,,,,l,1,0.7396914999999353,,,,,,,,,,,,ljx,f,20,2024_Apr_11_0927,mian,2021.2.3,59.93629970066453,
,,,,,,,,,,,,,0,0,0,0,,,,,,,,,,,,,,,,,,,,,,,,,,,,,,,,,,,,,,,,,,,ljx,f,20,2024_Apr_11_0927,mian,2021.2.3,59.93629970066453,
7h,1,1,h,l,"[0.2, 0.2]",,,,,,,,,,,,,,,,0,0,0,0,,,,,,,,,,,,,,,,,,,,,l,1,1.141971099999978,,,,,,,,,,,,ljx,f,20,2024_Apr_11_0927,mian,2021.2.3,59.93629970066453,
8F,1,2,F,a,"[-0.2, 0.2]",,,,,,,,,,,,,,,,0,1,1,1,,,,,,,,,,,,,,,,,,,,,a,1,1.212949799999933,,,,,,,,,,,,ljx,f,20,2024_Apr_11_0927,mian,2021.2.3,59.93629970066453,
8h,2,1,8.0,l,"[-0.2, -0.2]",,,,,,,,,,,,,,,,0,2,2,2,,,,,,,,,,,,,,,,,,,,,l,1,0.9614536000000271,,,,,,,,,,,,ljx,f,20,2024_Apr_11_0927,mian,2021.2.3,59.93629970066453,
a2,2,2,2.0,l,"[0.2, -0.2]",,,,,,,,,,,,,,,,0,3,3,3,,,,,,,,,,,,,,,,,,,,,l,1,0.9914305000000923,,,,,,,,,,,,ljx,f,20,2024_Apr_11_0927,mian,2021.2.3,59.93629970066453,
8f,1,1,f,l,"[0.2, 0.2]",,,,,,,,,,,,,,,,0,4,4,4,,,,,,,,,,,,,,,,,,,,,l,1,1.5280549000000292,,,,,,,,,,,,ljx,f,20,2024_Apr_11_0927,mian,2021.2.3,59.93629970066453,
6a,1,2,a,l,"[-0.2, 0.2]",,,,,,,,,,,,,,,,0,5,5,5,,,,,,,,,,,,,,,,,,,,,l,1,0.703692100000012,,,,,,,,,,,,ljx,f,20,2024_Apr_11_0927,mian,2021.2.3,59.93629970066453,
h6,2,1,6.0,l,"[-0.2, -0.2]",,,,,,,,,,,,,,,,0,6,6,6,,,,,,,,,,,,,,,,,,,,,l,1,0.7882624999999734,,,,,,,,,,,,ljx,f,20,2024_Apr_11_0927,mian,2021.2.3,59.93629970066453,
f9,2,2,9.0,a,"[0.2, -0.2]",,,,,,,,,,,,,,,,0,7,7,7,,,,,,,,,,,,,,,,,,,,,a,1,0.6431547000000819,,,,,,,,,,,,ljx,f,20,2024_Apr_11_0927,mian,2021.2.3,59.93629970066453,
E4,1,1,E,a,"[0.2, 0.2]",,,,,,,,,,,,,,,,0,8,8,8,,,,,,,,,,,,,,,,,,,,,a,1,1.0032003000000032,,,,,,,,,,,,ljx,f,20,2024_Apr_11_0927,mian,2021.2.3,59.93629970066453,
6e,1,2,e,l,"[-0.2, 0.2]",,,,,,,,,,,,,,,,0,9,9,9,,,,,,,,,,,,,,,,,,,,,l,1,0.614454300000034,,,,,,,,,,,,ljx,f,20,2024_Apr_11_0927,mian,2021.2.3,59.93629970066453,
5G,2,1,5.0,a,"[-0.2, -0.2]",,,,,,,,,,,,,,,,0,10,10,10,,,,,,,,,,,,,,,,,,,,,a,1,1.3025132000000212,,,,,,,,,,,,ljx,f,20,2024_Apr_11_0927,mian,2021.2.3,59.93629970066453,
h3,2,2,3.0,a,"[0.2, -0.2]",,,,,,,,,,,,,,,,0,11,11,11,,,,,,,,,,,,,,,,,,,,,a,1,0.5740617999999813,,,,,,,,,,,,ljx,f,20,2024_Apr_11_0927,mian,2021.2.3,59.93629970066453,
9e,1,1,e,l,"[0.2, 0.2]",,,,,,,,,,,,,,,,0,12,12,12,,,,,,,,,,,,,,,,,,,,,l,1,1.3483082999999851,,,,,,,,,,,,ljx,f,20,2024_Apr_11_0927,mian,2021.2.3,59.93629970066453,
a8,1,2,a,l,"[-0.2, 0.2]",,,,,,,,,,,,,,,,0,13,13,13,,,,,,,,,,,,,,,,,,,,,a,0,2.15007879999996,,,,,,,,,,,,ljx,f,20,2024_Apr_11_0927,mian,2021.2.3,59.93629970066453,
e8,2,1,8.0,l,"[-0.2, -0.2]",,,,,,,,,,,,,,,,0,14,14,14,,,,,,,,,,,,,,,,,,,,,l,1,1.0937365999999429,,,,,,,,,,,,ljx,f,20,2024_Apr_11_0927,mian,2021.2.3,59.93629970066453,
3f,2,2,3.0,a,"[0.2, -0.2]",,,,,,,,,,,,,,,,0,15,15,15,,,,,,,,,,,,,,,,,,,,,a,1,0.9994106000000329,,,,,,,,,,,,ljx,f,20,2024_Apr_11_0927,mian,2021.2.3,59.93629970066453,
7f,1,1,f,l,"[0.2, 0.2]",,,,,,,,,,,,,,,,0,16,16,16,,,,,,,,,,,,,,,,,,,,,l,1,0.8030921000000717,,,,,,,,,,,,ljx,f,20,2024_Apr_11_0927,mian,2021.2.3,59.93629970066453,
a7,1,2,a,l,"[-0.2, 0.2]",,,,,,,,,,,,,,,,0,17,17,17,,,,,,,,,,,,,,,,,,,,,l,1,0.6781975000000102,,,,,,,,,,,,ljx,f,20,2024_Apr_11_0927,mian,2021.2.3,59.93629970066453,
5A,2,1,5.0,a,"[-0.2, -0.2]",,,,,,,,,,,,,,,,0,18,18,18,,,,,,,,,,,,,,,,,,,,,a,1,0.9115065000000868,,,,,,,,,,,,ljx,f,20,2024_Apr_11_0927,mian,2021.2.3,59.93629970066453,
8g,2,2,8.0,l,"[0.2, -0.2]",,,,,,,,,,,,,,,,0,19,19,19,,,,,,,,,,,,,,,,,,,,,l,1,0.6221376999999393,,,,,,,,,,,,ljx,f,20,2024_Apr_11_0927,mian,2021.2.3,59.93629970066453,
9a,1,1,a,l,"[0.2, 0.2]",,,,,,,,,,,,,,,,0,20,20,20,,,,,,,,,,,,,,,,,,,,,l,1,1.2854394999999386,,,,,,,,,,,,ljx,f,20,2024_Apr_11_0927,mian,2021.2.3,59.93629970066453,
f7,1,2,f,l,"[-0.2, 0.2]",,,,,,,,,,,,,,,,0,21,21,21,,,,,,,,,,,,,,,,,,,,,l,1,0.7036780000000817,,,,,,,,,,,,ljx,f,20,2024_Apr_11_0927,mian,2021.2.3,59.93629970066453,
g9,2,1,9.0,a,"[-0.2, -0.2]",,,,,,,,,,,,,,,,0,22,22,22,,,,,,,,,,,,,,,,,,,,,a,1,0.9916762999999946,,,,,,,,,,,,ljx,f,20,2024_Apr_11_0927,mian,2021.2.3,59.93629970066453,
3h,2,2,3.0,a,"[0.2, -0.2]",,,,,,,,,,,,,,,,0,23,23,23,,,,,,,,,,,,,,,,,,,,,a,1,0.5908167000000049,,,,,,,,,,,,ljx,f,20,2024_Apr_11_0927,mian,2021.2.3,59.93629970066453,
E6,1,1,E,a,"[0.2, 0.2]",,,,,,,,,,,,,,,,0,24,24,24,,,,,,,,,,,,,,,,,,,,,a,1,1.1221048999999539,,,,,,,,,,,,ljx,f,20,2024_Apr_11_0927,mian,2021.2.3,59.93629970066453,
F6,1,2,F,a,"[-0.2, 0.2]",,,,,,,,,,,,,,,,0,25,25,25,,,,,,,,,,,,,,,,,,,,,a,1,0.48443940000004204,,,,,,,,,,,,ljx,f,20,2024_Apr_11_0927,mian,2021.2.3,59.93629970066453,
3A,2,1,3.0,a,"[-0.2, -0.2]",,,,,,,,,,,,,,,,0,26,26,26,,,,,,,,,,,,,,,,,,,,,a,1,1.7423137999999199,,,,,,,,,,,,ljx,f,20,2024_Apr_11_0927,mian,2021.2.3,59.93629970066453,
8H,2,2,8.0,l,"[0.2, -0.2]",,,,,,,,,,,,,,,,0,27,27,27,,,,,,,,,,,,,,,,,,,,,l,1,0.6658866999999873,,,,,,,,,,,,ljx,f,20,2024_Apr_11_0927,mian,2021.2.3,59.93629970066453,
5a,1,1,a,l,"[0.2, 0.2]",,,,,,,,,,,,,,,,0,28,28,28,,,,,,,,,,,,,,,,,,,,,l,1,1.4553879999999708,,,,,,,,,,,,ljx,f,20,2024_Apr_11_0927,mian,2021.2.3,59.93629970066453,
2h,1,2,h,l,"[-0.2, 0.2]",,,,,,,,,,,,,,,,0,29,29,29,,,,,,,,,,,,,,,,,,,,,l,1,0.7727356000000327,,,,,,,,,,,,ljx,f,20,2024_Apr_11_0927,mian,2021.2.3,59.93629970066453,
e5,2,1,5.0,a,"[-0.2, -0.2]",,,,,,,,,,,,,,,,0,30,30,30,,,,,,,,,,,,,,,,,,,,,a,1,0.8922520999999506,,,,,,,,,,,,ljx,f,20,2024_Apr_11_0927,mian,2021.2.3,59.93629970066453,
a3,2,2,3.0,a,"[0.2, -0.2]",,,,,,,,,,,,,,,,0,31,31,31,,,,,,,,,,,,,,,,,,,,,a,1,0.8343779000000495,,,,,,,,,,,,ljx,f,20,2024_Apr_11_0927,mian,2021.2.3,59.93629970066453,
f3,1,1,f,l,"[0.2, 0.2]",,,,,,,,,,,,,,,,0,32,32,32,,,,,,,,,,,,,,,,,,,,,l,1,0.9341903000000684,,,,,,,,,,,,ljx,f,20,2024_Apr_11_0927,mian,2021.2.3,59.93629970066453,
2E,1,2,E,a,"[-0.2, 0.2]",,,,,,,,,,,,,,,,0,33,33,33,,,,,,,,,,,,,,,,,,,,,a,1,0.6093071000000236,,,,,,,,,,,,ljx,f,20,2024_Apr_11_0927,mian,2021.2.3,59.93629970066453,
2H,2,1,2.0,l,"[-0.2, -0.2]",,,,,,,,,,,,,,,,0,34,34,34,,,,,,,,,,,,,,,,,,,,,l,1,1.860880800000018,,,,,,,,,,,,ljx,f,20,2024_Apr_11_0927,mian,2021.2.3,59.93629970066453,
H8,2,2,8.0,l,"[0.2, -0.2]",,,,,,,,,,,,,,,,0,35,35,35,,,,,,,,,,,,,,,,,,,,,l,1,0.9579164000000446,,,,,,,,,,,,ljx,f,20,2024_Apr_11_0927,mian,2021.2.3,59.93629970066453,
9g,1,1,g,l,"[0.2, 0.2]",,,,,,,,,,,,,,,,0,36,36,36,,,,,,,,,,,,,,,,,,,,,l,1,2.27232140000001,,,,,,,,,,,,ljx,f,20,2024_Apr_11_0927,mian,2021.2.3,59.93629970066453,
5h,1,2,h,l,"[-0.2, 0.2]",,,,,,,,,,,,,,,,0,37,37,37,,,,,,,,,,,,,,,,,,,,,l,1,0.7700682000000825,,,,,,,,,,,,ljx,f,20,2024_Apr_11_0927,mian,2021.2.3,59.93629970066453,
e4,2,1,4.0,l,"[-0.2, -0.2]",,,,,,,,,,,,,,,,0,38,38,38,,,,,,,,,,,,,,,,,,,,,l,1,1.2206185000000005,,,,,,,,,,,,ljx,f,20,2024_Apr_11_0927,mian,2021.2.3,59.93629970066453,
9h,2,2,9.0,a,"[0.2, -0.2]",,,,,,,,,,,,,,,,0,39,39,39,,,,,,,,,,,,,,,,,,,,,a,1,0.8128503000000364,,,,,,,,,,,,ljx,f,20,2024_Apr_11_0927,mian,2021.2.3,59.93629970066453,
G3,1,1,G,a,"[0.2, 0.2]",,,,,,,,,,,,,,,,0,40,40,40,,,,,,,,,,,,,,,,,,,,,a,1,1.1582212999999228,,,,,,,,,,,,ljx,f,20,2024_Apr_11_0927,mian,2021.2.3,59.93629970066453,
9A,1,2,A,a,"[-0.2, 0.2]",,,,,,,,,,,,,,,,0,41,41,41,,,,,,,,,,,,,,,,,,,,,a,1,0.6101533999999447,,,,,,,,,,,,ljx,f,20,2024_Apr_11_0927,mian,2021.2.3,59.93629970066453,
H5,2,1,5.0,a,"[-0.2, -0.2]",,,,,,,,,,,,,,,,0,42,42,42,,,,,,,,,,,,,,,,,,,,,a,1,1.367550900000083,,,,,,,,,,,,ljx,f,20,2024_Apr_11_0927,mian,2021.2.3,59.93629970066453,
4e,2,2,4.0,l,"[0.2, -0.2]",,,,,,,,,,,,,,,,0,43,43,43,,,,,,,,,,,,,,,,,,,,,l,1,0.8819229000000632,,,,,,,,,,,,ljx,f,20,2024_Apr_11_0927,mian,2021.2.3,59.93629970066453,
E2,1,1,E,a,"[0.2, 0.2]",,,,,,,,,,,,,,,,0,44,44,44,,,,,,,,,,,,,,,,,,,,,a,1,0.7745357999999669,,,,,,,,,,,,ljx,f,20,2024_Apr_11_0927,mian,2021.2.3,59.93629970066453,
A5,1,2,A,a,"[-0.2, 0.2]",,,,,,,,,,,,,,,,0,45,45,45,,,,,,,,,,,,,,,,,,,,,a,1,0.6395360999999866,,,,,,,,,,,,ljx,f,20,2024_Apr_11_0927,mian,2021.2.3,59.93629970066453,
2A,2,1,2.0,l,"[-0.2, -0.2]",,,,,,,,,,,,,,,,0,46,46,46,,,,,,,,,,,,,,,,,,,,,l,1,1.0820022000000336,,,,,,,,,,,,ljx,f,20,2024_Apr_11_0927,mian,2021.2.3,59.93629970066453,
6G,2,2,6.0,l,"[0.2, -0.2]",,,,,,,,,,,,,,,,0,47,47,47,,,,,,,,,,,,,,,,,,,,,l,1,0.7617123999999649,,,,,,,,,,,,ljx,f,20,2024_Apr_11_0927,mian,2021.2.3,59.93629970066453,
H3,1,1,H,a,"[0.2, 0.2]",,,,,,,,,,,,,,,,0,48,48,48,,,,,,,,,,,,,,,,,,,,,a,1,0.6152920000000677,,,,,,,,,,,,ljx,f,20,2024_Apr_11_0927,mian,2021.2.3,59.93629970066453,
H2,1,2,H,a,"[-0.2, 0.2]",,,,,,,,,,,,,,,,0,49,49,49,,,,,,,,,,,,,,,,,,,,,a,1,0.5729545000000371,,,,,,,,,,,,ljx,f,20,2024_Apr_11_0927,mian,2021.2.3,59.93629970066453,
e9,2,1,9.0,a,"[-0.2, -0.2]",,,,,,,,,,,,,,,,0,50,50,50,,,,,,,,,,,,,,,,,,,,,a,1,1.0623367000000599,,,,,,,,,,,,ljx,f,20,2024_Apr_11_0927,mian,2021.2.3,59.93629970066453,
2G,2,2,2.0,l,"[0.2, -0.2]",,,,,,,,,,,,,,,,0,51,51,51,,,,,,,,,,,,,,,,,,,,,l,1,0.7756691000000728,,,,,,,,,,,,ljx,f,20,2024_Apr_11_0927,mian,2021.2.3,59.93629970066453,
4f,1,1,f,l,"[0.2, 0.2]",,,,,,,,,,,,,,,,0,52,52,52,,,,,,,,,,,,,,,,,,,,,l,1,0.6223122000000103,,,,,,,,,,,,ljx,f,20,2024_Apr_11_0927,mian,2021.2.3,59.93629970066453,
H6,1,2,H,a,"[-0.2, 0.2]",,,,,,,,,,,,,,,,0,53,53,53,,,,,,,,,,,,,,,,,,,,,a,1,0.5913968999999497,,,,,,,,,,,,ljx,f,20,2024_Apr_11_0927,mian,2021.2.3,59.93629970066453,
A4,2,1,4.0,l,"[-0.2, -0.2]",,,,,,,,,,,,,,,,0,54,54,54,,,,,,,,,,,,,,,,,,,,,l,1,0.836473299999966,,,,,,,,,,,,ljx,f,20,2024_Apr_11_0927,mian,2021.2.3,59.93629970066453,
3F,2,2,3.0,a,"[0.2, -0.2]",,,,,,,,,,,,,,,,0,55,55,55,,,,,,,,,,,,,,,,,,,,,a,1,0.8047723999999334,,,,,,,,,,,,ljx,f,20,2024_Apr_11_0927,mian,2021.2.3,59.93629970066453,
7e,1,1,e,l,"[0.2, 0.2]",,,,,,,,,,,,,,,,0,56,56,56,,,,,,,,,,,,,,,,,,,,,l,1,0.8221039000000019,,,,,,,,,,,,ljx,f,20,2024_Apr_11_0927,mian,2021.2.3,59.93629970066453,
F9,1,2,F,a,"[-0.2, 0.2]",,,,,,,,,,,,,,,,0,57,57,57,,,,,,,,,,,,,,,,,,,,,a,1,0.7896947000000409,,,,,,,,,,,,ljx,f,20,2024_Apr_11_0927,mian,2021.2.3,59.93629970066453,
e2,2,1,2.0,l,"[-0.2, -0.2]",,,,,,,,,,,,,,,,0,58,58,58,,,,,,,,,,,,,,,,,,,,,l,1,0.8046198999999206,,,,,,,,,,,,ljx,f,20,2024_Apr_11_0927,mian,2021.2.3,59.93629970066453,
5F,2,2,5.0,a,"[0.2, -0.2]",,,,,,,,,,,,,,,,0,59,59,59,,,,,,,,,,,,,,,,,,,,,a,1,0.6512023000000227,,,,,,,,,,,,ljx,f,20,2024_Apr_11_0927,mian,2021.2.3,59.93629970066453,
f6,1,1,f,l,"[0.2, 0.2]",,,,,,,,,,,,,,,,0,60,60,60,,,,,,,,,,,,,,,,,,,,,l,1,0.7861595000000534,,,,,,,,,,,,ljx,f,20,2024_Apr_11_0927,mian,2021.2.3,59.93629970066453,
7G,1,2,G,a,"[-0.2, 0.2]",,,,,,,,,,,,,,,,0,61,61,61,,,,,,,,,,,,,,,,,,,,,a,1,0.7456236999998964,,,,,,,,,,,,ljx,f,20,2024_Apr_11_0927,mian,2021.2.3,59.93629970066453,
e6,2,1,6.0,l,"[-0.2, -0.2]",,,,,,,,,,,,,,,,0,62,62,62,,,,,,,,,,,,,,,,,,,,,l,1,0.6978978999999299,,,,,,,,,,,,ljx,f,20,2024_Apr_11_0927,mian,2021.2.3,59.93629970066453,
3G,2,2,3.0,a,"[0.2, -0.2]",,,,,,,,,,,,,,,,0,63,63,63,,,,,,,,,,,,,,,,,,,,,a,1,0.7479635999999346,,,,,,,,,,,,ljx,f,20,2024_Apr_11_0927,mian,2021.2.3,59.93629970066453,
5E,1,1,E,a,"[0.2, 0.2]",,,,,,,,,,,,,,,,0,64,64,64,,,,,,,,,,,,,,,,,,,,,a,1,0.8343154000000368,,,,,,,,,,,,ljx,f,20,2024_Apr_11_0927,mian,2021.2.3,59.93629970066453,
A6,1,2,A,a,"[-0.2, 0.2]",,,,,,,,,,,,,,,,0,65,65,65,,,,,,,,,,,,,,,,,,,,,a,1,0.5294534999999314,,,,,,,,,,,,ljx,f,20,2024_Apr_11_0927,mian,2021.2.3,59.93629970066453,
E3,2,1,3.0,a,"[-0.2, -0.2]",,,,,,,,,,,,,,,,0,66,66,66,,,,,,,,,,,,,,,,,,,,,a,1,0.8742632000000867,,,,,,,,,,,,ljx,f,20,2024_Apr_11_0927,mian,2021.2.3,59.93629970066453,
2f,2,2,2.0,l,"[0.2, -0.2]",,,,,,,,,,,,,,,,0,67,67,67,,,,,,,,,,,,,,,,,,,,,l,1,0.5813600000000179,,,,,,,,,,,,ljx,f,20,2024_Apr_11_0927,mian,2021.2.3,59.93629970066453,
g3,1,1,g,l,"[0.2, 0.2]",,,,,,,,,,,,,,,,0,68,68,68,,,,,,,,,,,,,,,,,,,,,l,1,1.0819567999999435,,,,,,,,,,,,ljx,f,20,2024_Apr_11_0927,mian,2021.2.3,59.93629970066453,
E8,1,2,E,a,"[-0.2, 0.2]",,,,,,,,,,,,,,,,0,69,69,69,,,,,,,,,,,,,,,,,,,,,a,1,0.9855195000000094,,,,,,,,,,,,ljx,f,20,2024_Apr_11_0927,mian,2021.2.3,59.93629970066453,
6g,2,1,6.0,l,"[-0.2, -0.2]",,,,,,,,,,,,,,,,0,70,70,70,,,,,,,,,,,,,,,,,,,,,l,1,1.3976423999999952,,,,,,,,,,,,ljx,f,20,2024_Apr_11_0927,mian,2021.2.3,59.93629970066453,
5H,2,2,5.0,a,"[0.2, -0.2]",,,,,,,,,,,,,,,,0,71,71,71,,,,,,,,,,,,,,,,,,,,,a,1,0.6727141999999731,,,,,,,,,,,,ljx,f,20,2024_Apr_11_0927,mian,2021.2.3,59.93629970066453,
4A,1,1,A,a,"[0.2, 0.2]",,,,,,,,,,,,,,,,0,72,72,72,,,,,,,,,,,,,,,,,,,,,a,1,0.8177583000000368,,,,,,,,,,,,ljx,f,20,2024_Apr_11_0927,mian,2021.2.3,59.93629970066453,
7F,1,2,F,a,"[-0.2, 0.2]",,,,,,,,,,,,,,,,0,73,73,73,,,,,,,,,,,,,,,,,,,,,a,1,0.412786600000004,,,,,,,,,,,,ljx,f,20,2024_Apr_11_0927,mian,2021.2.3,59.93629970066453,
6H,2,1,6.0,l,"[-0.2, -0.2]",,,,,,,,,,,,,,,,0,74,74,74,,,,,,,,,,,,,,,,,,,,,l,1,1.0380886000000373,,,,,,,,,,,,ljx,f,20,2024_Apr_11_0927,mian,2021.2.3,59.93629970066453,
3a,2,2,3.0,a,"[0.2, -0.2]",,,,,,,,,,,,,,,,0,75,75,75,,,,,,,,,,,,,,,,,,,,,a,1,0.47510480000005373,,,,,,,,,,,,ljx,f,20,2024_Apr_11_0927,mian,2021.2.3,59.93629970066453,
9F,1,1,F,a,"[0.2, 0.2]",,,,,,,,,,,,,,,,0,76,76,76,,,,,,,,,,,,,,,,,,,,,a,1,2.151725400000032,,,,,,,,,,,,ljx,f,20,2024_Apr_11_0927,mian,2021.2.3,59.93629970066453,
G7,1,2,G,a,"[-0.2, 0.2]",,,,,,,,,,,,,,,,0,77,77,77,,,,,,,,,,,,,,,,,,,,,a,1,0.8883403999999473,,,,,,,,,,,,ljx,f,20,2024_Apr_11_0927,mian,2021.2.3,59.93629970066453,
a6,2,1,6.0,l,"[-0.2, -0.2]",,,,,,,,,,,,,,,,0,78,78,78,,,,,,,,,,,,,,,,,,,,,l,1,1.9022624000000405,,,,,,,,,,,,ljx,f,20,2024_Apr_11_0927,mian,2021.2.3,59.93629970066453,
4h,2,2,4.0,l,"[0.2, -0.2]",,,,,,,,,,,,,,,,0,79,79,79,,,,,,,,,,,,,,,,,,,,,l,1,0.47951899999998204,,,,,,,,,,,,ljx,f,20,2024_Apr_11_0927,mian,2021.2.3,59.93629970066453,
6A,1,1,A,a,"[0.2, 0.2]",,,,,,,,,,,,,,,,,,,,0,0,0,0,,,,,,,,,,,,,,,,,a,1,0.7681092999999919,,,,,,,,,,,,ljx,f,20,2024_Apr_11_0927,mian,2021.2.3,59.93629970066453,
4H,1,2,H,a,"[-0.2, 0.2]",,,,,,,,,,,,,,,,,,,,0,1,1,1,,,,,,,,,,,,,,,,,a,1,0.6716202999999723,,,,,,,,,,,,ljx,f,20,2024_Apr_11_0927,mian,2021.2.3,59.93629970066453,
3H,2,1,3.0,a,"[-0.2, -0.2]",,,,,,,,,,,,,,,,,,,,0,2,2,2,,,,,,,,,,,,,,,,,a,1,1.149362799999949,,,,,,,,,,,,ljx,f,20,2024_Apr_11_0927,mian,2021.2.3,59.93629970066453,
a9,2,2,9.0,a,"[0.2, -0.2]",,,,,,,,,,,,,,,,,,,,0,3,3,3,,,,,,,,,,,,,,,,,a,1,1.2533944999998994,,,,,,,,,,,,ljx,f,20,2024_Apr_11_0927,mian,2021.2.3,59.93629970066453,
E7,1,1,E,a,"[0.2, 0.2]",,,,,,,,,,,,,,,,,,,,0,4,4,4,,,,,,,,,,,,,,,,,a,1,0.842721900000015,,,,,,,,,,,,ljx,f,20,2024_Apr_11_0927,mian,2021.2.3,59.93629970066453,
6h,1,2,h,l,"[-0.2, 0.2]",,,,,,,,,,,,,,,,,,,,0,5,5,5,,,,,,,,,,,,,,,,,l,1,0.556761100000017,,,,,,,,,,,,ljx,f,20,2024_Apr_11_0927,mian,2021.2.3,59.93629970066453,
8A,2,1,8.0,l,"[-0.2, -0.2]",,,,,,,,,,,,,,,,,,,,0,6,6,6,,,,,,,,,,,,,,,,,l,1,1.2210368999999446,,,,,,,,,,,,ljx,f,20,2024_Apr_11_0927,mian,2021.2.3,59.93629970066453,
f5,2,2,5.0,a,"[0.2, -0.2]",,,,,,,,,,,,,,,,,,,,0,7,7,7,,,,,,,,,,,,,,,,,a,1,0.7980245999999624,,,,,,,,,,,,ljx,f,20,2024_Apr_11_0927,mian,2021.2.3,59.93629970066453,
2a,1,1,a,l,"[0.2, 0.2]",,,,,,,,,,,,,,,,,,,,0,8,8,8,,,,,,,,,,,,,,,,,l,1,0.8944554000000835,,,,,,,,,,,,ljx,f,20,2024_Apr_11_0927,mian,2021.2.3,59.93629970066453,
F7,1,2,F,a,"[-0.2, 0.2]",,,,,,,,,,,,,,,,,,,,0,9,9,9,,,,,,,,,,,,,,,,,a,1,1.2092104999999265,,,,,,,,,,,,ljx,f,20,2024_Apr_11_0927,mian,2021.2.3,59.93629970066453,
h2,2,1,2.0,l,"[-0.2, -0.2]",,,,,,,,,,,,,,,,,,,,0,10,10,10,,,,,,,,,,,,,,,,,l,1,1.136919300000045,,,,,,,,,,,,ljx,f,20,2024_Apr_11_0927,mian,2021.2.3,59.93629970066453,
F5,2,2,5.0,a,"[0.2, -0.2]",,,,,,,,,,,,,,,,,,,,0,11,11,11,,,,,,,,,,,,,,,,,a,1,0.7183795000000828,,,,,,,,,,,,ljx,f,20,2024_Apr_11_0927,mian,2021.2.3,59.93629970066453,
A9,1,1,A,a,"[0.2, 0.2]",,,,,,,,,,,,,,,,,,,,0,12,12,12,,,,,,,,,,,,,,,,,a,1,0.9683193999999276,,,,,,,,,,,,ljx,f,20,2024_Apr_11_0927,mian,2021.2.3,59.93629970066453,
3e,1,2,e,l,"[-0.2, 0.2]",,,,,,,,,,,,,,,,,,,,0,13,13,13,,,,,,,,,,,,,,,,,l,1,0.5774854000000005,,,,,,,,,,,,ljx,f,20,2024_Apr_11_0927,mian,2021.2.3,59.93629970066453,
f8,2,1,8.0,l,"[-0.2, -0.2]",,,,,,,,,,,,,,,,,,,,0,14,14,14,,,,,,,,,,,,,,,,,l,1,0.8666252000000441,,,,,,,,,,,,ljx,f,20,2024_Apr_11_0927,mian,2021.2.3,59.93629970066453,
G2,2,2,2.0,l,"[0.2, -0.2]",,,,,,,,,,,,,,,,,,,,0,15,15,15,,,,,,,,,,,,,,,,,l,1,0.8894896000000472,,,,,,,,,,,,ljx,f,20,2024_Apr_11_0927,mian,2021.2.3,59.93629970066453,
F2,1,1,F,a,"[0.2, 0.2]",,,,,,,,,,,,,,,,,,,,0,16,16,16,,,,,,,,,,,,,,,,,a,1,0.9720790000000079,,,,,,,,,,,,ljx,f,20,2024_Apr_11_0927,mian,2021.2.3,59.93629970066453,
5e,1,2,e,l,"[-0.2, 0.2]",,,,,,,,,,,,,,,,,,,,0,17,17,17,,,,,,,,,,,,,,,,,l,1,0.5905529000000342,,,,,,,,,,,,ljx,f,20,2024_Apr_11_0927,mian,2021.2.3,59.93629970066453,
A3,2,1,3.0,a,"[-0.2, -0.2]",,,,,,,,,,,,,,,,,,,,0,18,18,18,,,,,,,,,,,,,,,,,a,1,0.8988676999999825,,,,,,,,,,,,ljx,f,20,2024_Apr_11_0927,mian,2021.2.3,59.93629970066453,
4g,2,2,4.0,l,"[0.2, -0.2]",,,,,,,,,,,,,,,,,,,,0,19,19,19,,,,,,,,,,,,,,,,,l,1,0.7048561000000291,,,,,,,,,,,,ljx,f,20,2024_Apr_11_0927,mian,2021.2.3,59.93629970066453,
h7,1,1,h,l,"[0.2, 0.2]",,,,,,,,,,,,,,,,,,,,0,20,20,20,,,,,,,,,,,,,,,,,l,1,0.7366427000000613,,,,,,,,,,,,ljx,f,20,2024_Apr_11_0927,mian,2021.2.3,59.93629970066453,
3g,1,2,g,l,"[-0.2, 0.2]",,,,,,,,,,,,,,,,,,,,0,21,21,21,,,,,,,,,,,,,,,,,l,1,0.3663984000000937,,,,,,,,,,,,ljx,f,20,2024_Apr_11_0927,mian,2021.2.3,59.93629970066453,
8a,2,1,8.0,l,"[-0.2, -0.2]",,,,,,,,,,,,,,,,,,,,0,22,22,22,,,,,,,,,,,,,,,,,l,1,1.0089210000001003,,,,,,,,,,,,ljx,f,20,2024_Apr_11_0927,mian,2021.2.3,59.93629970066453,
4E,2,2,4.0,l,"[0.2, -0.2]",,,,,,,,,,,,,,,,,,,,0,23,23,23,,,,,,,,,,,,,,,,,l,1,0.5259131999999909,,,,,,,,,,,,ljx,f,20,2024_Apr_11_0927,mian,2021.2.3,59.93629970066453,
E5,1,1,E,a,"[0.2, 0.2]",,,,,,,,,,,,,,,,,,,,0,24,24,24,,,,,,,,,,,,,,,,,a,1,0.5567475000000286,,,,,,,,,,,,ljx,f,20,2024_Apr_11_0927,mian,2021.2.3,59.93629970066453,
g6,1,2,g,l,"[-0.2, 0.2]",,,,,,,,,,,,,,,,,,,,0,25,25,25,,,,,,,,,,,,,,,,,l,1,0.4338408999999501,,,,,,,,,,,,ljx,f,20,2024_Apr_11_0927,mian,2021.2.3,59.93629970066453,
2e,2,1,2.0,l,"[-0.2, -0.2]",,,,,,,,,,,,,,,,,,,,0,26,26,26,,,,,,,,,,,,,,,,,l,1,0.7947358000000122,,,,,,,,,,,,ljx,f,20,2024_Apr_11_0927,mian,2021.2.3,59.93629970066453,
h8,2,2,8.0,l,"[0.2, -0.2]",,,,,,,,,,,,,,,,,,,,0,27,27,27,,,,,,,,,,,,,,,,,l,1,0.9087369999999737,,,,,,,,,,,,ljx,f,20,2024_Apr_11_0927,mian,2021.2.3,59.93629970066453,
G6,1,1,G,a,"[0.2, 0.2]",,,,,,,,,,,,,,,,,,,,0,28,28,28,,,,,,,,,,,,,,,,,a,1,0.6747707000000673,,,,,,,,,,,,ljx,f,20,2024_Apr_11_0927,mian,2021.2.3,59.93629970066453,
a4,1,2,a,l,"[-0.2, 0.2]",,,,,,,,,,,,,,,,,,,,0,29,29,29,,,,,,,,,,,,,,,,,l,1,1.062939799999981,,,,,,,,,,,,ljx,f,20,2024_Apr_11_0927,mian,2021.2.3,59.93629970066453,
9H,2,1,9.0,a,"[-0.2, -0.2]",,,,,,,,,,,,,,,,,,,,0,30,30,30,,,,,,,,,,,,,,,,,a,1,1.8371389000000136,,,,,,,,,,,,ljx,f,20,2024_Apr_11_0927,mian,2021.2.3,59.93629970066453,
7H,2,2,7.0,a,"[0.2, -0.2]",,,,,,,,,,,,,,,,,,,,0,31,31,31,,,,,,,,,,,,,,,,,a,1,0.558037000000013,,,,,,,,,,,,ljx,f,20,2024_Apr_11_0927,mian,2021.2.3,59.93629970066453,
9f,1,1,f,l,"[0.2, 0.2]",,,,,,,,,,,,,,,,,,,,0,32,32,32,,,,,,,,,,,,,,,,,l,1,1.3494459000000916,,,,,,,,,,,,ljx,f,20,2024_Apr_11_0927,mian,2021.2.3,59.93629970066453,
8E,1,2,E,a,"[-0.2, 0.2]",,,,,,,,,,,,,,,,,,,,0,33,33,33,,,,,,,,,,,,,,,,,a,1,0.5614140000000134,,,,,,,,,,,,ljx,f,20,2024_Apr_11_0927,mian,2021.2.3,59.93629970066453,
A2,2,1,2.0,l,"[-0.2, -0.2]",,,,,,,,,,,,,,,,,,,,0,34,34,34,,,,,,,,,,,,,,,,,l,1,0.6663391000000729,,,,,,,,,,,,ljx,f,20,2024_Apr_11_0927,mian,2021.2.3,59.93629970066453,
H7,2,2,7.0,a,"[0.2, -0.2]",,,,,,,,,,,,,,,,,,,,0,35,35,35,,,,,,,,,,,,,,,,,a,1,0.5396181000000979,,,,,,,,,,,,ljx,f,20,2024_Apr_11_0927,mian,2021.2.3,59.93629970066453,
h9,1,1,h,l,"[0.2, 0.2]",,,,,,,,,,,,,,,,,,,,0,36,36,36,,,,,,,,,,,,,,,,,l,1,1.1576166999999487,,,,,,,,,,,,ljx,f,20,2024_Apr_11_0927,mian,2021.2.3,59.93629970066453,
8G,1,2,G,a,"[-0.2, 0.2]",,,,,,,,,,,,,,,,,,,,0,37,37,37,,,,,,,,,,,,,,,,,a,1,0.8640665000000354,,,,,,,,,,,,ljx,f,20,2024_Apr_11_0927,mian,2021.2.3,59.93629970066453,
H4,2,1,4.0,l,"[-0.2, -0.2]",,,,,,,,,,,,,,,,,,,,0,38,38,38,,,,,,,,,,,,,,,,,l,1,1.0203139000000192,,,,,,,,,,,,ljx,f,20,2024_Apr_11_0927,mian,2021.2.3,59.93629970066453,
A8,2,2,8.0,l,"[0.2, -0.2]",,,,,,,,,,,,,,,,,,,,0,39,39,39,,,,,,,,,,,,,,,,,l,1,0.4671945999999707,,,,,,,,,,,,ljx,f,20,2024_Apr_11_0927,mian,2021.2.3,59.93629970066453,
g7,1,1,g,l,"[0.2, 0.2]",,,,,,,,,,,,,,,,,,,,0,40,40,40,,,,,,,,,,,,,,,,,l,1,1.0512923,,,,,,,,,,,,ljx,f,20,2024_Apr_11_0927,mian,2021.2.3,59.93629970066453,
H9,1,2,H,a,"[-0.2, 0.2]",,,,,,,,,,,,,,,,,,,,0,41,41,41,,,,,,,,,,,,,,,,,a,1,0.5955804000000171,,,,,,,,,,,,ljx,f,20,2024_Apr_11_0927,mian,2021.2.3,59.93629970066453,
9E,2,1,9.0,a,"[-0.2, -0.2]",,,,,,,,,,,,,,,,,,,,0,42,42,42,,,,,,,,,,,,,,,,,a,1,1.4257078000000547,,,,,,,,,,,,ljx,f,20,2024_Apr_11_0927,mian,2021.2.3,59.93629970066453,
a5,2,2,5.0,a,"[0.2, -0.2]",,,,,,,,,,,,,,,,,,,,0,43,43,43,,,,,,,,,,,,,,,,,a,1,1.6035576000000447,,,,,,,,,,,,ljx,f,20,2024_Apr_11_0927,mian,2021.2.3,59.93629970066453,
3E,1,1,E,a,"[0.2, 0.2]",,,,,,,,,,,,,,,,,,,,0,44,44,44,,,,,,,,,,,,,,,,,l,0,2.4089380000000347,,,,,,,,,,,,ljx,f,20,2024_Apr_11_0927,mian,2021.2.3,59.93629970066453,
6f,1,2,f,l,"[-0.2, 0.2]",,,,,,,,,,,,,,,,,,,,0,45,45,45,,,,,,,,,,,,,,,,,l,1,1.0367387999999664,,,,,,,,,,,,ljx,f,20,2024_Apr_11_0927,mian,2021.2.3,59.93629970066453,
g8,2,1,8.0,l,"[-0.2, -0.2]",,,,,,,,,,,,,,,,,,,,0,46,46,46,,,,,,,,,,,,,,,,,l,1,2.857453699999951,,,,,,,,,,,,ljx,f,20,2024_Apr_11_0927,mian,2021.2.3,59.93629970066453,
4F,2,2,4.0,l,"[0.2, -0.2]",,,,,,,,,,,,,,,,,,,,0,47,47,47,,,,,,,,,,,,,,,,,l,1,1.1887936000000536,,,,,,,,,,,,ljx,f,20,2024_Apr_11_0927,mian,2021.2.3,59.93629970066453,
4a,1,1,a,l,"[0.2, 0.2]",,,,,,,,,,,,,,,,,,,,0,48,48,48,,,,,,,,,,,,,,,,,l,1,1.4002795000000106,,,,,,,,,,,,ljx,f,20,2024_Apr_11_0927,mian,2021.2.3,59.93629970066453,
e3,1,2,e,l,"[-0.2, 0.2]",,,,,,,,,,,,,,,,,,,,0,49,49,49,,,,,,,,,,,,,,,,,l,1,2.9760206000000835,,,,,,,,,,,,ljx,f,20,2024_Apr_11_0927,mian,2021.2.3,59.93629970066453,
5g,2,1,5.0,a,"[-0.2, -0.2]",,,,,,,,,,,,,,,,,,,,0,50,50,50,,,,,,,,,,,,,,,,,l,0,1.974643100000094,,,,,,,,,,,,ljx,f,20,2024_Apr_11_0927,mian,2021.2.3,59.93629970066453,
f4,2,2,4.0,l,"[0.2, -0.2]",,,,,,,,,,,,,,,,,,,,0,51,51,51,,,,,,,,,,,,,,,,,l,1,1.0503709000000754,,,,,,,,,,,,ljx,f,20,2024_Apr_11_0927,mian,2021.2.3,59.93629970066453,
6E,1,1,E,a,"[0.2, 0.2]",,,,,,,,,,,,,,,,,,,,0,52,52,52,,,,,,,,,,,,,,,,,a,1,2.662708700000053,,,,,,,,,,,,ljx,f,20,2024_Apr_11_0927,mian,2021.2.3,59.93629970066453,
7A,1,2,A,a,"[-0.2, 0.2]",,,,,,,,,,,,,,,,,,,,0,53,53,53,,,,,,,,,,,,,,,,,a,1,0.4410093000000188,,,,,,,,,,,,ljx,f,20,2024_Apr_11_0927,mian,2021.2.3,59.93629970066453,
F4,2,1,4.0,l,"[-0.2, -0.2]",,,,,,,,,,,,,,,,,,,,0,54,54,54,,,,,,,,,,,,,,,,,l,1,0.9390412000000197,,,,,,,,,,,,ljx,f,20,2024_Apr_11_0927,mian,2021.2.3,59.93629970066453,
2g,2,2,2.0,l,"[0.2, -0.2]",,,,,,,,,,,,,,,,,,,,0,55,55,55,,,,,,,,,,,,,,,,,l,1,0.9540832000000137,,,,,,,,,,,,ljx,f,20,2024_Apr_11_0927,mian,2021.2.3,59.93629970066453,
7E,1,1,E,a,"[0.2, 0.2]",,,,,,,,,,,,,,,,,,,,0,56,56,56,,,,,,,,,,,,,,,,,a,1,1.0796841999999742,,,,,,,,,,,,ljx,f,20,2024_Apr_11_0927,mian,2021.2.3,59.93629970066453,
G4,1,2,G,a,"[-0.2, 0.2]",,,,,,,,,,,,,,,,,,,,0,57,57,57,,,,,,,,,,,,,,,,,a,1,3.056438699999944,,,,,,,,,,,,ljx,f,20,2024_Apr_11_0927,mian,2021.2.3,59.93629970066453,
2F,2,1,2.0,l,"[-0.2, -0.2]",,,,,,,,,,,,,,,,,,,,0,58,58,58,,,,,,,,,,,,,,,,,a,0,0.7568674999999985,,,,,,,,,,,,ljx,f,20,2024_Apr_11_0927,mian,2021.2.3,59.93629970066453,
E9,2,2,9.0,a,"[0.2, -0.2]",,,,,,,,,,,,,,,,,,,,0,59,59,59,,,,,,,,,,,,,,,,,a,1,2.0865724000000228,,,,,,,,,,,,ljx,f,20,2024_Apr_11_0927,mian,2021.2.3,59.93629970066453,
5f,1,1,f,l,"[0.2, 0.2]",,,,,,,,,,,,,,,,,,,,0,60,60,60,,,,,,,,,,,,,,,,,l,1,2.684096199999999,,,,,,,,,,,,ljx,f,20,2024_Apr_11_0927,mian,2021.2.3,59.93629970066453,
e7,1,2,e,l,"[-0.2, 0.2]",,,,,,,,,,,,,,,,,,,,0,61,61,61,,,,,,,,,,,,,,,,,l,1,0.7672270000000481,,,,,,,,,,,,ljx,f,20,2024_Apr_11_0927,mian,2021.2.3,59.93629970066453,
f2,2,1,2.0,l,"[-0.2, -0.2]",,,,,,,,,,,,,,,,,,,,0,62,62,62,,,,,,,,,,,,,,,,,l,1,0.9101718999999093,,,,,,,,,,,,ljx,f,20,2024_Apr_11_0927,mian,2021.2.3,59.93629970066453,
G9,2,2,9.0,a,"[0.2, -0.2]",,,,,,,,,,,,,,,,,,,,0,63,63,63,,,,,,,,,,,,,,,,,a,1,1.1372367999999824,,,,,,,,,,,,ljx,f,20,2024_Apr_11_0927,mian,2021.2.3,59.93629970066453,
7g,1,1,g,l,"[0.2, 0.2]",,,,,,,,,,,,,,,,,,,,0,64,64,64,,,,,,,,,,,,,,,,,l,1,1.1470566000000417,,,,,,,,,,,,ljx,f,20,2024_Apr_11_0927,mian,2021.2.3,59.93629970066453,
F8,1,2,F,a,"[-0.2, 0.2]",,,,,,,,,,,,,,,,,,,,0,65,65,65,,,,,,,,,,,,,,,,,a,1,1.4605205999999953,,,,,,,,,,,,ljx,f,20,2024_Apr_11_0927,mian,2021.2.3,59.93629970066453,
A7,2,1,7.0,a,"[-0.2, -0.2]",,,,,,,,,,,,,,,,,,,,0,66,66,66,,,,,,,,,,,,,,,,,a,1,2.2276067999999896,,,,,,,,,,,,ljx,f,20,2024_Apr_11_0927,mian,2021.2.3,59.93629970066453,
4G,2,2,4.0,l,"[0.2, -0.2]",,,,,,,,,,,,,,,,,,,,0,67,67,67,,,,,,,,,,,,,,,,,l,1,0.6295642000000043,,,,,,,,,,,,ljx,f,20,2024_Apr_11_0927,mian,2021.2.3,59.93629970066453,
g2,1,1,g,l,"[0.2, 0.2]",,,,,,,,,,,,,,,,,,,,0,68,68,68,,,,,,,,,,,,,,,,,l,1,1.2268324000000348,,,,,,,,,,,,ljx,f,20,2024_Apr_11_0927,mian,2021.2.3,59.93629970066453,
g4,1,2,g,l,"[-0.2, 0.2]",,,,,,,,,,,,,,,,,,,,0,69,69,69,,,,,,,,,,,,,,,,,l,1,1.0697145999999975,,,,,,,,,,,,ljx,f,20,2024_Apr_11_0927,mian,2021.2.3,59.93629970066453,
7a,2,1,7.0,a,"[-0.2, -0.2]",,,,,,,,,,,,,,,,,,,,0,70,70,70,,,,,,,,,,,,,,,,,a,1,0.9721335000000408,,,,,,,,,,,,ljx,f,20,2024_Apr_11_0927,mian,2021.2.3,59.93629970066453,
8e,2,2,8.0,l,"[0.2, -0.2]",,,,,,,,,,,,,,,,,,,,0,71,71,71,,,,,,,,,,,,,,,,,l,1,0.5952306000000362,,,,,,,,,,,,ljx,f,20,2024_Apr_11_0927,mian,2021.2.3,59.93629970066453,
h4,1,1,h,l,"[0.2, 0.2]",,,,,,,,,,,,,,,,,,,,0,72,72,72,,,,,,,,,,,,,,,,,l,1,1.5241344999999455,,,,,,,,,,,,ljx,f,20,2024_Apr_11_0927,mian,2021.2.3,59.93629970066453,
G8,1,2,G,a,"[-0.2, 0.2]",,,,,,,,,,,,,,,,,,,,0,73,73,73,,,,,,,,,,,,,,,,,a,1,1.9400011000000177,,,,,,,,,,,,ljx,f,20,2024_Apr_11_0927,mian,2021.2.3,59.93629970066453,
6F,2,1,6.0,l,"[-0.2, -0.2]",,,,,,,,,,,,,,,,,,,,0,74,74,74,,,,,,,,,,,,,,,,,l,1,1.1163000999999895,,,,,,,,,,,,ljx,f,20,2024_Apr_11_0927,mian,2021.2.3,59.93629970066453,
g5,2,2,5.0,a,"[0.2, -0.2]",,,,,,,,,,,,,,,,,,,,0,75,75,75,,,,,,,,,,,,,,,,,a,1,0.7449075999999195,,,,,,,,,,,,ljx,f,20,2024_Apr_11_0927,mian,2021.2.3,59.93629970066453,
G5,1,1,G,a,"[0.2, 0.2]",,,,,,,,,,,,,,,,,,,,0,76,76,76,,,,,,,,,,,,,,,,,a,1,1.50578239999993,,,,,,,,,,,,ljx,f,20,2024_Apr_11_0927,mian,2021.2.3,59.93629970066453,
h5,1,2,h,l,"[-0.2, 0.2]",,,,,,,,,,,,,,,,,,,,0,77,77,77,,,,,,,,,,,,,,,,,l,1,0.672133199999962,,,,,,,,,,,,ljx,f,20,2024_Apr_11_0927,mian,2021.2.3,59.93629970066453,
9G,2,1,9.0,a,"[-0.2, -0.2]",,,,,,,,,,,,,,,,,,,,0,78,78,78,,,,,,,,,,,,,,,,,a,1,1.408590600000025,,,,,,,,,,,,ljx,f,20,2024_Apr_11_0927,mian,2021.2.3,59.93629970066453,
F3,2,2,3.0,a,"[0.2, -0.2]",,,,,,,,,,,,,,,,,,,,0,79,79,79,,,,,,,,,,,,,,,,,a,1,0.5933543999999529,,,,,,,,,,,,ljx,f,20,2024_Apr_11_0927,mian,2021.2.3,59.93629970066453,
,,,,,,1,1,pic/flanker5.png,pic/flanker3.png,a,k,,,,,,,,,,,,,,,,,,0,0,0,0,0,0,0,4,,,,,,,,,,,,505.9304702,None,504.74581270000004,505.94701289999995,None,0,爽朗,k,1,1.45328870000003,,ljx,f,20,2024_Apr_11_0927,mian,2021.2.3,59.93629970066453,
,,,,,,1,0,pic/flanker5.png,pic/flanker3.png,a,l,,,,,,,,,,,,,,,,,,0,0,0,0,0,1,1,7,,,,,,,,,,,,510.83032180000004,None,509.6470019,510.84699589999997,a,1,怀疑,l,1,0.6970505000000458,1.117933999999991,ljx,f,20,2024_Apr_11_0927,mian,2021.2.3,59.93629970066453,
,,,,,,0,0,pic/flanker6.png,pic/flanker2.png,a,l,,,,,,,,,,,,,,,,,,0,0,0,0,0,2,2,1,,,,,,,,,,,,514.6136721,None,513.4303605,514.6303897,a,1,慌忙,l,1,0.7242546999999604,0.8644721000000573,ljx,f,20,2024_Apr_11_0927,mian,2021.2.3,59.93629970066453,
,,,,,,1,1,pic/flanker6.png,pic/flanker4.png,s,k,,,,,,,,,,,,,,,,,,0,0,0,0,0,3,3,6,,,,,,,,,,,,518.2803428,None,517.0976757000001,518.2969688000001,s,1,瑰丽,k,1,0.7042205999999851,0.5602169000000004,ljx,f,20,2024_Apr_11_0927,mian,2021.2.3,59.93629970066453,
,,,,,,1,0,pic/flanker6.png,pic/flanker4.png,s,l,,,,,,,,,,,,,,,,,,0,0,0,0,0,4,4,5,,,,,,,,,,,,521.5470987000001,None,520.3636578,521.5636454,s,1,罚款,l,1,0.7308014999999841,0.5272004999999353,ljx,f,20,2024_Apr_11_0927,mian,2021.2.3,59.93629970066453,
,,,,,,0,0,pic/flanker5.png,pic/flanker1.png,s,l,,,,,,,,,,,,,,,,,,0,0,0,0,0,5,5,3,,,,,,,,,,,,524.6637619,None,523.4803575999999,524.6804274000001,s,1,杂乱,l,1,0.7834454999999707,0.6643635000000359,ljx,f,20,2024_Apr_11_0927,mian,2021.2.3,59.93629970066453,
,,,,,,0,1,pic/flanker5.png,pic/flanker1.png,s,k,,,,,,,,,,,,,,,,,,0,0,0,0,0,6,6,0,,,,,,,,,,,,527.9804336,None,526.7970444,527.9971372,s,1,秀丽,k,1,0.6470963999998958,0.6169052000000192,ljx,f,20,2024_Apr_11_0927,mian,2021.2.3,59.93629970066453,
,,,,,,0,1,pic/flanker6.png,pic/flanker2.png,a,k,,,,,,,,,,,,,,,,,,0,0,0,0,0,7,7,2,,,,,,,,,,,,531.2970517000001,None,530.1136802000001,531.3136898,a,1,富丽,k,1,0.6478546000000733,0.45142310000005637,ljx,f,20,2024_Apr_11_0927,mian,2021.2.3,59.93629970066453,
,,,,,,,,,,,,,,,,,,,,,,,,,,,,,0,0,0,0,,,,,,,,,,,,,,,,,,,,,,,,,,,ljx,f,20,2024_Apr_11_0927,mian,2021.2.3,59.93629970066453,
,,,,,,0,1,pic/flanker6.png,pic/flanker2.png,a,k,,,,,,,,,,,,,,,,,,1,0,1,0,0,0,0,2,,,,,,,,,,,,544.1303829999999,None,542.9407514,544.1470927,a,1,诚恳,k,1,0.7871107999999367,0.3967020999998567,ljx,f,20,2024_Apr_11_0927,mian,2021.2.3,59.93629970066453,
,,,,,,0,0,pic/flanker5.png,pic/flanker1.png,s,l,,,,,,,,,,,,,,,,,,1,0,1,0,0,1,1,3,,,,,,,,,,,,547.4137659,None,546.2303832999999,547.4304259999999,s,1,消沉,l,1,0.6410430000000815,0.5620638000000326,ljx,f,20,2024_Apr_11_0927,mian,2021.2.3,59.93629970066453,
,,,,,,0,1,pic/flanker5.png,pic/flanker1.png,s,k,,,,,,,,,,,,,,,,,,1,0,1,0,0,2,2,0,,,,,,,,,,,,550.5804177,None,549.3970617999998,550.5970579,a,0,富丽,k,1,0.6822955000000093,0.6547689999999875,ljx,f,20,2024_Apr_11_0927,mian,2021.2.3,59.93629970066453,
,,,,,,1,0,pic/flanker5.png,pic/flanker3.png,a,l,,,,,,,,,,,,,,,,,,1,0,1,0,0,3,3,7,,,,,,,,,,,,553.8969872,None,552.7137131,553.9137257999998,a,1,闷热,l,1,0.9223122000000785,0.5208236999999372,ljx,f,20,2024_Apr_11_0927,mian,2021.2.3,59.93629970066453,
,,,,,,1,1,pic/flanker5.png,pic/flanker3.png,a,k,,,,,,,,,,,,,,,,,,1,0,1,0,0,4,4,4,,,,,,,,,,,,557.3297937999998,None,556.146348,557.3466715,a,1,享受,k,1,1.0253412000001845,0.38713810000012927,ljx,f,20,2024_Apr_11_0927,mian,2021.2.3,59.93629970066453,
,,,,,,1,1,pic/flanker6.png,pic/flanker4.png,s,k,,,,,,,,,,,,,,,,,,1,0,1,0,0,5,5,6,,,,,,,,,,,,560.7298185,None,559.5470410999999,560.7470587,s,1,振作,k,1,1.7836659000001873,0.5560044000001199,ljx,f,20,2024_Apr_11_0927,mian,2021.2.3,59.93629970066453,
,,,,,,1,0,pic/flanker6.png,pic/flanker4.png,s,l,,,,,,,,,,,,,,,,,,1,0,1,0,0,6,6,5,,,,,,,,,,,,565.0804125,None,563.8971239,565.0971075999998,s,1,禁止,l,1,0.620760700000119,0.5178331999998136,ljx,f,20,2024_Apr_11_0927,mian,2021.2.3,59.93629970066453,
,,,,,,0,0,pic/flanker6.png,pic/flanker2.png,a,l,,,,,,,,,,,,,,,,,,1,0,1,0,0,7,7,1,,,,,,,,,,,,568.2638480999999,None,567.0802733999999,568.2805271,a,1,焦躁,l,1,0.5675137000000632,0.39781250000010004,ljx,f,20,2024_Apr_11_0927,mian,2021.2.3,59.93629970066453,
,,,,,,,,,,,,,,,,,,,,,,,,,,,,,1,0,1,0,,,,,,,,,,,,,,,,,,,,,,,,,,,ljx,f,20,2024_Apr_11_0927,mian,2021.2.3,59.93629970066453,
,,,,,,0,1,pic/flanker6.png,pic/flanker2.png,a,k,pic/AffRest1.png,,,,,,,,,,,,,,,,,,,,,,,,,0,0,0,0,0,0,0,2,,,,582.6137125999999,None,581.4222637,582.6299012,a,1,富足,k,1,0.6153506000000561,0.37411580000002687,ljx,f,20,2024_Apr_11_0927,mian,2021.2.3,59.93629970066453,
,,,,,,0,0,pic/flanker5.png,pic/flanker1.png,s,l,pic/AffRest1.png,,,,,,,,,,,,,,,,,,,,,,,,,0,0,0,0,0,1,1,59,,,,585.6963745999999,None,584.5136802,585.7130691,s,1,郁闷,l,1,0.5926561999999649,0.397320499999978,ljx,f,20,2024_Apr_11_0927,mian,2021.2.3,59.93629970066453,
,,,,,,0,0,pic/flanker5.png,pic/flanker1.png,s,l,pic/AffRest1.png,,,,,,,,,,,,,,,,,,,,,,,,,0,0,0,0,0,2,2,67,,,,588.7304833999999,None,587.5469745999999,588.7469856,s,1,自卑,l,1,0.5705590000000029,0.5887678999999935,ljx,f,20,2024_Apr_11_0927,mian,2021.2.3,59.93629970066453,
,,,,,,0,1,pic/flanker5.png,pic/flanker1.png,s,k,pic/AffRest1.png,,,,,,,,,,,,,,,,,,,,,,,,,0,0,0,0,0,3,3,56,,,,591.8469699,None,590.6637479999999,591.8638269,s,1,卓越,k,1,0.4972690000001876,0.4202371999999741,ljx,f,20,2024_Apr_11_0927,mian,2021.2.3,59.93629970066453,
,,,,,,1,0,pic/flanker5.png,pic/flanker3.png,a,l,pic/AffRest1.png,,,,,,,,,,,,,,,,,,,,,,,,,0,0,0,0,0,4,4,63,,,,594.6803046,None,593.4970696999999,594.6970644999999,a,1,落后,l,1,0.5019786000000295,0.42432640000015454,ljx,f,20,2024_Apr_11_0927,mian,2021.2.3,59.93629970066453,
,,,,,,1,0,pic/flanker5.png,pic/flanker3.png,a,l,pic/AffRest1.png,,,,,,,,,,,,,,,,,,,,,,,,,0,0,0,0,0,5,5,31,,,,597.5304595,None,596.3472637999998,597.5470472,a,1,撒谎,l,1,0.816528099999914,0.4417983999999251,ljx,f,20,2024_Apr_11_0927,mian,2021.2.3,59.93629970066453,
,,,,,,0,1,pic/flanker6.png,pic/flanker2.png,a,k,pic/AffRest1.png,,,,,,,,,,,,,,,,,,,,,,,,,0,0,0,0,0,6,6,74,,,,600.6472274999999,None,599.4638752999999,600.6639167999999,a,1,振作,k,1,0.5113530999999512,0.3126804999999422,ljx,f,20,2024_Apr_11_0927,mian,2021.2.3,59.93629970066453,
,,,,,,0,1,pic/flanker5.png,pic/flanker1.png,s,k,pic/AffRest1.png,,,,,,,,,,,,,,,,,,,,,,,,,0,0,0,0,0,7,7,32,,,,603.5137588999999,None,602.3304026999999,603.5304738,s,1,顽强,k,1,0.4664880999998786,0.37476040000001376,ljx,f,20,2024_Apr_11_0927,mian,2021.2.3,59.93629970066453,
,,,,,,1,0,pic/flanker6.png,pic/flanker4.png,s,l,pic/AffRest1.png,,,,,,,,,,,,,,,,,,,,,,,,,0,0,0,0,0,8,8,53,,,,606.4303817,None,605.2470040999999,606.4470429,s,1,罚款,l,1,0.4892821000000822,0.4548588000000109,ljx,f,20,2024_Apr_11_0927,mian,2021.2.3,59.93629970066453,
,,,,,,0,0,pic/flanker6.png,pic/flanker2.png,a,l,pic/AffRest1.png,,,,,,,,,,,,,,,,,,,,,,,,,0,0,0,0,0,9,9,73,,,,609.3471333999998,None,608.1637163999999,609.3638303999999,a,1,假冒,l,1,0.5907336999998734,0.28598360000000866,ljx,f,20,2024_Apr_11_0927,mian,2021.2.3,59.93629970066453,
,,,,,,0,1,pic/flanker6.png,pic/flanker2.png,a,k,pic/AffRest1.png,,,,,,,,,,,,,,,,,,,,,,,,,0,0,0,0,0,10,10,10,,,,612.1305591,None,610.9472139,612.1472280999999,a,1,富丽,k,1,0.4666670999999951,0.384004700000105,ljx,f,20,2024_Apr_11_0927,mian,2021.2.3,59.93629970066453,
,,,,,,1,0,pic/flanker6.png,pic/flanker4.png,s,l,pic/AffRest1.png,,,,,,,,,,,,,,,,,,,,,,,,,0,0,0,0,0,11,11,45,,,,615.0305487,None,613.8472254999999,615.0472394999999,s,1,慌忙,l,1,0.7430080999999973,0.4563359000001128,ljx,f,20,2024_Apr_11_0927,mian,2021.2.3,59.93629970066453,
,,,,,,0,0,pic/flanker6.png,pic/flanker2.png,a,l,pic/AffRest1.png,,,,,,,,,,,,,,,,,,,,,,,,,0,0,0,0,0,12,12,41,,,,618.313811,None,617.1305456,618.3304914999999,a,1,排斥,l,1,0.5930296999999882,0.3426375999999891,ljx,f,20,2024_Apr_11_0927,mian,2021.2.3,59.93629970066453,
,,,,,,1,1,pic/flanker5.png,pic/flanker3.png,a,k,pic/AffRest1.png,,,,,,,,,,,,,,,,,,,,,,,,,0,0,0,0,0,13,13,28,,,,621.2470504,None,620.063764,621.2637023,a,1,正直,k,1,0.5468147999999928,0.45867699999985234,ljx,f,20,2024_Apr_11_0927,mian,2021.2.3,59.93629970066453,
,,,,,,0,0,pic/flanker5.png,pic/flanker1.png,s,l,pic/AffRest1.png,,,,,,,,,,,,,,,,,,,,,,,,,0,0,0,0,0,14,14,51,,,,624.1139054,None,622.9305532999999,624.1305639,s,1,失意,l,1,0.519372599999997,0.32690739999998186,ljx,f,20,2024_Apr_11_0927,mian,2021.2.3,59.93629970066453,
,,,,,,0,0,pic/flanker5.png,pic/flanker1.png,s,l,pic/AffRest1.png,,,,,,,,,,,,,,,,,,,,,,,,,0,0,0,0,0,15,15,43,,,,626.8804261,None,625.6971501,626.8969952999998,s,1,伤心,l,1,0.48792359999993096,0.34528309999996054,ljx,f,20,2024_Apr_11_0927,mian,2021.2.3,59.93629970066453,
,,,,,,0,1,pic/flanker5.png,pic/flanker1.png,s,k,pic/AffRest1.png,,,,,,,,,,,,,,,,,,,,,,,,,0,0,0,0,0,16,16,24,,,,629.6305709999999,None,628.4469905999999,629.6472460999998,s,1,珍藏,k,1,0.46637759999998707,0.31162960000006024,ljx,f,20,2024_Apr_11_0927,mian,2021.2.3,59.93629970066453,
,,,,,,1,1,pic/flanker6.png,pic/flanker4.png,s,k,pic/AffRest1.png,,,,,,,,,,,,,,,,,,,,,,,,,0,0,0,0,0,17,17,54,,,,632.3470694,None,631.1638720999999,632.3635883,s,1,秀丽,k,1,0.8596742000001996,0.5296556000000692,ljx,f,20,2024_Apr_11_0927,mian,2021.2.3,59.93629970066453,
,,,,,,1,1,pic/flanker5.png,pic/flanker3.png,a,k,pic/AffRest1.png,,,,,,,,,,,,,,,,,,,,,,,,,0,0,0,0,0,18,18,12,,,,635.7972399999999,None,634.6138151,635.8139180000001,a,1,奉献,k,1,0.5066760999998223,0.4129534999999578,ljx,f,20,2024_Apr_11_0927,mian,2021.2.3,59.93629970066453,
,,,,,,1,0,pic/flanker5.png,pic/flanker3.png,a,l,pic/AffRest1.png,,,,,,,,,,,,,,,,,,,,,,,,,0,0,0,0,0,19,19,7,,,,638.7471277,None,637.5635757999999,638.7636815999999,a,1,禁止,l,1,0.4423526000000493,0.42758039999989705,ljx,f,20,2024_Apr_11_0927,mian,2021.2.3,59.93629970066453,
,,,,,,1,0,pic/flanker5.png,pic/flanker3.png,a,l,pic/AffRest1.png,,,,,,,,,,,,,,,,,,,,,,,,,0,0,0,0,0,20,20,39,,,,641.5805051999998,None,640.3972156999998,641.597244,a,1,沮丧,l,1,0.507769000000053,0.4011610000000019,ljx,f,20,2024_Apr_11_0927,mian,2021.2.3,59.93629970066453,
,,,,,,1,0,pic/flanker6.png,pic/flanker4.png,s,l,pic/AffRest1.png,,,,,,,,,,,,,,,,,,,,,,,,,0,0,0,0,0,21,21,13,,,,644.5139861,None,643.3305794999999,644.5306026999999,s,1,胡涂,l,1,0.5830599000000802,0.4429652999999689,ljx,f,20,2024_Apr_11_0927,mian,2021.2.3,59.93629970066453,
,,,,,,0,0,pic/flanker5.png,pic/flanker1.png,s,l,pic/AffRest1.png,,,,,,,,,,,,,,,,,,,,,,,,,0,0,0,0,0,22,22,75,,,,647.5970972999999,None,646.4137458999999,647.6137647999999,s,1,损害,l,1,1.479367899999943,0.34932500000013533,ljx,f,20,2024_Apr_11_0927,mian,2021.2.3,59.93629970066453,
,,,,,,0,1,pic/flanker6.png,pic/flanker2.png,a,k,pic/AffRest1.png,,,,,,,,,,,,,,,,,,,,,,,,,0,0,0,0,0,23,23,26,,,,651.3639178999999,None,650.1805614999998,651.3805849999999,a,1,舒畅,k,1,0.5382116000000678,0.36795409999990625,ljx,f,20,2024_Apr_11_0927,mian,2021.2.3,59.93629970066453,
,,,,,,1,1,pic/flanker6.png,pic/flanker4.png,s,k,pic/AffRest1.png,,,,,,,,,,,,,,,,,,,,,,,,,0,0,0,0,0,24,24,30,,,,654.3136009999998,None,653.1300257999999,654.3302802999999,s,1,雄厚,k,1,0.5712014999999155,0.43522230000007767,ljx,f,20,2024_Apr_11_0927,mian,2021.2.3,59.93629970066453,
,,,,,,1,0,pic/flanker6.png,pic/flanker4.png,s,l,pic/AffRest1.png,,,,,,,,,,,,,,,,,,,,,,,,,0,0,0,0,0,25,25,21,,,,657.1972335,None,656.0138706,657.213902,s,1,逃避,l,1,1.2346807999999783,0.4033524999999827,ljx,f,20,2024_Apr_11_0927,mian,2021.2.3,59.93629970066453,
,,,,,,1,0,pic/flanker5.png,pic/flanker3.png,a,l,pic/AffRest1.png,,,,,,,,,,,,,,,,,,,,,,,,,0,0,0,0,0,26,26,15,,,,660.8139526999998,None,659.6305984999999,660.8305834999999,a,1,心慌,k,0,0.5391614999998637,0.44241630000010446,ljx,f,20,2024_Apr_11_0927,mian,2021.2.3,59.93629970066453,
,,,,,,1,1,pic/flanker5.png,pic/flanker3.png,a,k,pic/AffRest1.png,,,,,,,,,,,,,,,,,,,,,,,,,0,0,0,0,0,27,27,36,,,,663.7972425,None,662.6137941,663.8139174,a,1,旺盛,k,1,0.5464971999999761,0.4298856000000342,ljx,f,20,2024_Apr_11_0927,mian,2021.2.3,59.93629970066453,
,,,,,,0,1,pic/flanker6.png,pic/flanker2.png,a,k,pic/AffRest1.png,,,,,,,,,,,,,,,,,,,,,,,,,0,0,0,0,0,28,28,58,,,,666.7805813,None,665.5970459,666.7972593,a,1,充裕,l,0,0.4834485000001223,0.3651279999999133,ljx,f,20,2024_Apr_11_0927,mian,2021.2.3,59.93629970066453,
,,,,,,0,0,pic/flanker6.png,pic/flanker2.png,a,l,pic/AffRest1.png,,,,,,,,,,,,,,,,,,,,,,,,,0,0,0,0,0,29,29,65,,,,669.6139361,None,668.4304768,669.6305923,a,1,杂乱,l,1,0.5508643000000575,0.37119940000002316,ljx,f,20,2024_Apr_11_0927,mian,2021.2.3,59.93629970066453,
,,,,,,0,0,pic/flanker6.png,pic/flanker2.png,a,l,pic/AffRest1.png,,,,,,,,,,,,,,,,,,,,,,,,,0,0,0,0,0,30,30,25,,,,672.4637430999999,None,671.2803752999998,672.4804606,a,1,争吵,l,1,0.9330904999999348,0.39711609999994835,ljx,f,20,2024_Apr_11_0927,mian,2021.2.3,59.93629970066453,
,,,,,,1,1,pic/flanker6.png,pic/flanker4.png,s,k,pic/AffRest1.png,,,,,,,,,,,,,,,,,,,,,,,,,0,0,0,0,0,31,31,38,,,,675.7638929,None,674.5804687999998,675.7806241999999,s,1,瑰丽,k,1,0.508440900000096,0.5092654000000039,ljx,f,20,2024_Apr_11_0927,mian,2021.2.3,59.93629970066453,
,,,,,,1,0,pic/flanker5.png,pic/flanker3.png,a,l,pic/AffRest1.png,,,,,,,,,,,,,,,,,,,,,,,,,0,0,0,0,0,32,32,23,,,,678.8305816,None,677.6471501999999,678.8467613999999,a,1,缺乏,l,1,0.7596891999999116,0.4703867000000628,ljx,f,20,2024_Apr_11_0927,mian,2021.2.3,59.93629970066453,
,,,,,,0,1,pic/flanker5.png,pic/flanker1.png,s,k,pic/AffRest1.png,,,,,,,,,,,,,,,,,,,,,,,,,0,0,0,0,0,33,33,8,,,,682.1472587999999,None,680.9637381999999,682.1639622,s,1,优雅,k,1,0.7165416000000278,0.3656502000001183,ljx,f,20,2024_Apr_11_0927,mian,2021.2.3,59.93629970066453,
,,,,,,0,1,pic/flanker6.png,pic/flanker2.png,a,k,pic/AffRest1.png,,,,,,,,,,,,,,,,,,,,,,,,,0,0,0,0,0,34,34,66,,,,685.2305982,None,684.0473597,685.2472639,a,1,廉洁,k,1,0.6405875999998898,0.339046000000053,ljx,f,20,2024_Apr_11_0927,mian,2021.2.3,59.93629970066453,
,,,,,,0,0,pic/flanker6.png,pic/flanker2.png,a,l,pic/AffRest1.png,,,,,,,,,,,,,,,,,,,,,,,,,0,0,0,0,0,35,35,17,,,,688.0806075,None,686.8972446999999,688.0967386999998,a,1,厌恶,l,1,0.5350740999999744,0.35548849999986487,ljx,f,20,2024_Apr_11_0927,mian,2021.2.3,59.93629970066453,
,,,,,,1,0,pic/flanker6.png,pic/flanker4.png,s,l,pic/AffRest1.png,,,,,,,,,,,,,,,,,,,,,,,,,0,0,0,0,0,36,36,37,,,,690.9139442999999,None,689.7304041,690.9306036999999,s,1,丢失,l,1,0.6034600999998929,0.5054215000000113,ljx,f,20,2024_Apr_11_0927,mian,2021.2.3,59.93629970066453,
,,,,,,0,1,pic/flanker5.png,pic/flanker1.png,s,k,pic/AffRest1.png,,,,,,,,,,,,,,,,,,,,,,,,,0,0,0,0,0,37,37,48,,,,694.0466915,None,692.863814,694.0635052999999,s,1,豪放,k,1,0.5248481000000993,0.417781899999909,ljx,f,20,2024_Apr_11_0927,mian,2021.2.3,59.93629970066453,
,,,,,,0,0,pic/flanker6.png,pic/flanker2.png,a,l,pic/AffRest1.png,,,,,,,,,,,,,,,,,,,,,,,,,0,0,0,0,0,38,38,1,,,,696.8805937,None,695.6971658,696.8966785,a,1,懒惰,l,1,0.6572532000000137,0.4488218000001325,ljx,f,20,2024_Apr_11_0927,mian,2021.2.3,59.93629970066453,
,,,,,,1,0,pic/flanker6.png,pic/flanker4.png,s,l,pic/AffRest1.png,,,,,,,,,,,,,,,,,,,,,,,,,0,0,0,0,0,39,39,77,,,,699.9305720999998,None,698.7470813,699.9467984,s,1,黑暗,l,1,0.6125609999999142,0.48362589999987904,ljx,f,20,2024_Apr_11_0927,mian,2021.2.3,59.93629970066453,
,,,,,,1,1,pic/flanker6.png,pic/flanker4.png,s,k,pic/AffRest1.png,,,,,,,,,,,,,,,,,,,,,,,,,0,0,0,0,0,40,40,62,,,,702.9133356999998,None,701.7305891999999,702.9300899,s,1,羡慕,k,1,0.5129291999999168,0.46270589999994627,ljx,f,20,2024_Apr_11_0927,mian,2021.2.3,59.93629970066453,
,,,,,,1,0,pic/flanker5.png,pic/flanker3.png,a,l,pic/AffRest1.png,,,,,,,,,,,,,,,,,,,,,,,,,0,0,0,0,0,41,41,55,,,,705.8972848999999,None,704.7135715,705.9139478,a,1,孤单,l,1,0.5621307999999772,0.4236843000001045,ljx,f,20,2024_Apr_11_0927,mian,2021.2.3,59.93629970066453,
,,,,,,1,0,pic/flanker6.png,pic/flanker4.png,s,l,pic/AffRest1.png,,,,,,,,,,,,,,,,,,,,,,,,,0,0,0,0,0,42,42,29,,,,708.8306071,None,707.6467533999999,708.8467366999998,s,1,闷热,l,1,0.6467148000001544,0.41563499999983833,ljx,f,20,2024_Apr_11_0927,mian,2021.2.3,59.93629970066453,
,,,,,,0,1,pic/flanker5.png,pic/flanker1.png,s,k,pic/AffRest1.png,,,,,,,,,,,,,,,,,,,,,,,,,0,0,0,0,0,43,43,64,,,,711.7967587999999,None,710.6137765999999,711.8139392999999,s,1,丰满,k,1,0.8514205999999831,0.34970959999986917,ljx,f,20,2024_Apr_11_0927,mian,2021.2.3,59.93629970066453,
,,,,,,1,0,pic/flanker6.png,pic/flanker4.png,s,l,pic/AffRest1.png,,,,,,,,,,,,,,,,,,,,,,,,,0,0,0,0,0,44,44,5,,,,714.9133489999999,None,713.7297758,714.9299859,s,1,忧虑,l,1,0.5707821999999396,0.4729251999999633,ljx,f,20,2024_Apr_11_0927,mian,2021.2.3,59.93629970066453,
,,,,,,0,0,pic/flanker6.png,pic/flanker2.png,a,l,pic/AffRest1.png,,,,,,,,,,,,,,,,,,,,,,,,,0,0,0,0,0,45,45,9,,,,717.9306214999999,None,716.7469064,717.9472707999998,a,1,鲁莽,l,1,0.5831670000000031,0.3171511999998984,ljx,f,20,2024_Apr_11_0927,mian,2021.2.3,59.93629970066453,
,,,,,,0,0,pic/flanker5.png,pic/flanker1.png,s,l,pic/AffRest1.png,,,,,,,,,,,,,,,,,,,,,,,,,0,0,0,0,0,46,46,35,,,,720.8304820999999,None,719.6470694,720.8471517999999,s,1,堵塞,l,1,0.7774601999999504,0.3143950000001041,ljx,f,20,2024_Apr_11_0927,mian,2021.2.3,59.93629970066453,
,,,,,,0,0,pic/flanker5.png,pic/flanker1.png,s,l,pic/AffRest1.png,,,,,,,,,,,,,,,,,,,,,,,,,0,0,0,0,0,47,47,19,,,,723.9637788,None,722.7804587999999,723.9804405,s,1,焦躁,l,1,0.6940743000000111,0.30635510000001887,ljx,f,20,2024_Apr_11_0927,mian,2021.2.3,59.93629970066453,
,,,,,,1,1,pic/flanker5.png,pic/flanker3.png,a,k,pic/AffRest1.png,,,,,,,,,,,,,,,,,,,,,,,,,0,0,0,0,0,48,48,60,,,,727.0136424,None,725.8298428999999,727.0303302999998,a,1,有利,k,1,0.5625768000002154,0.40763779999997496,ljx,f,20,2024_Apr_11_0927,mian,2021.2.3,59.93629970066453,
,,,,,,1,0,pic/flanker5.png,pic/flanker3.png,a,l,pic/AffRest1.png,,,,,,,,,,,,,,,,,,,,,,,,,0,0,0,0,0,49,49,71,,,,730.0638747999999,None,728.8804754,730.0805273999999,a,1,浪费,l,1,0.4709970000001249,0.44896319999998013,ljx,f,20,2024_Apr_11_0927,mian,2021.2.3,59.93629970066453,
,,,,,,0,0,pic/flanker6.png,pic/flanker2.png,a,l,pic/AffRest1.png,,,,,,,,,,,,,,,,,,,,,,,,,0,0,0,0,0,50,50,49,,,,732.9805245,None,731.7971358,732.9965700999999,a,1,怀疑,l,1,0.5054236999999375,0.3212295000000722,ljx,f,20,2024_Apr_11_0927,mian,2021.2.3,59.93629970066453,
,,,,,,1,1,pic/flanker5.png,pic/flanker3.png,a,k,pic/AffRest1.png,,,,,,,,,,,,,,,,,,,,,,,,,0,0,0,0,0,51,51,52,,,,735.7970859,None,734.6136294999999,735.8137339999998,a,1,前进,k,1,0.5589618999999857,0.3942903000001934,ljx,f,20,2024_Apr_11_0927,mian,2021.2.3,59.93629970066453,
,,,,,,0,0,pic/flanker6.png,pic/flanker2.png,a,l,pic/AffRest1.png,,,,,,,,,,,,,,,,,,,,,,,,,0,0,0,0,0,52,52,57,,,,738.7305701,None,737.5465287,738.74714,a,1,轻率,l,1,0.5246659000001728,0.3018985999999586,ljx,f,20,2024_Apr_11_0927,mian,2021.2.3,59.93629970066453,
,,,,,,1,1,pic/flanker6.png,pic/flanker4.png,s,k,pic/AffRest1.png,,,,,,,,,,,,,,,,,,,,,,,,,0,0,0,0,0,53,53,6,,,,741.3972667,None,740.2138547,741.413877,s,1,赞成,k,1,0.508268199999975,0.4208534999997937,ljx,f,20,2024_Apr_11_0927,mian,2021.2.3,59.93629970066453,
,,,,,,0,0,pic/flanker6.png,pic/flanker2.png,a,l,pic/AffRest1.png,,,,,,,,,,,,,,,,,,,,,,,,,0,0,0,0,0,54,54,33,,,,744.3297115999999,None,743.1469838999999,744.3464865999999,a,1,嘲笑,l,1,0.6692470999998932,0.3524190999999064,ljx,f,20,2024_Apr_11_0927,mian,2021.2.3,59.93629970066453,
,,,,,,1,1,pic/flanker6.png,pic/flanker4.png,s,k,pic/AffRest1.png,,,,,,,,,,,,,,,,,,,,,,,,,0,0,0,0,0,55,55,78,,,,747.2973274999999,None,746.1135861999999,747.3140105,s,1,吉祥,k,1,0.5312476000001425,0.3969692999999097,ljx,f,20,2024_Apr_11_0927,mian,2021.2.3,59.93629970066453,
,,,,,,1,1,pic/flanker5.png,pic/flanker3.png,a,k,pic/AffRest1.png,,,,,,,,,,,,,,,,,,,,,,,,,0,0,0,0,0,56,56,68,,,,750.1638986999999,None,748.9805245999999,750.1805211999999,a,1,圣洁,k,1,0.6361414000000423,0.37030479999998533,ljx,f,20,2024_Apr_11_0927,mian,2021.2.3,59.93629970066453,
,,,,,,1,0,pic/flanker5.png,pic/flanker3.png,a,l,pic/AffRest1.png,,,,,,,,,,,,,,,,,,,,,,,,,0,0,0,0,0,57,57,79,,,,753.0806232,None,751.8970279999999,753.0972663999999,a,1,消沉,l,1,0.448229099999935,0.40463389999990795,ljx,f,20,2024_Apr_11_0927,mian,2021.2.3,59.93629970066453,
,,,,,,1,1,pic/flanker5.png,pic/flanker3.png,a,k,pic/AffRest1.png,,,,,,,,,,,,,,,,,,,,,,,,,0,0,0,0,0,58,58,76,,,,755.7806424999999,None,754.596562,755.7973104,a,1,诚恳,k,1,0.5736722999999984,0.419055999999955,ljx,f,20,2024_Apr_11_0927,mian,2021.2.3,59.93629970066453,
,,,,,,1,1,pic/flanker6.png,pic/flanker4.png,s,k,pic/AffRest1.png,,,,,,,,,,,,,,,,,,,,,,,,,0,0,0,0,0,59,59,14,,,,758.780649,None,757.5966226,758.7973348999999,s,1,精致,k,1,0.5011269999999968,0.4240683000000445,ljx,f,20,2024_Apr_11_0927,mian,2021.2.3,59.93629970066453,
,,,,,,0,0,pic/flanker5.png,pic/flanker1.png,s,l,pic/AffRest1.png,,,,,,,,,,,,,,,,,,,,,,,,,0,0,0,0,0,60,60,3,,,,761.6804809,None,760.4965330999999,761.6965292,s,1,冷笑,l,1,0.61028239999996,0.38143769999987853,ljx,f,20,2024_Apr_11_0927,mian,2021.2.3,59.93629970066453,
,,,,,,1,1,pic/flanker6.png,pic/flanker4.png,s,k,pic/AffRest1.png,,,,,,,,,,,,,,,,,,,,,,,,,0,0,0,0,0,61,61,70,,,,764.5138552999999,None,763.3303509,764.5305053,s,1,畅销,k,1,0.5108878999999433,0.43216869999992014,ljx,f,20,2024_Apr_11_0927,mian,2021.2.3,59.93629970066453,
,,,,,,1,0,pic/flanker5.png,pic/flanker3.png,a,l,pic/AffRest1.png,,,,,,,,,,,,,,,,,,,,,,,,,0,0,0,0,0,62,62,47,,,,767.3465865000001,None,766.1638900999999,767.3637742999999,a,1,悲观,l,1,0.5191248000000996,0.41991120000011506,ljx,f,20,2024_Apr_11_0927,mian,2021.2.3,59.93629970066453,
,,,,,,0,1,pic/flanker5.png,pic/flanker1.png,s,k,pic/AffRest1.png,,,,,,,,,,,,,,,,,,,,,,,,,0,0,0,0,0,63,63,72,,,,770.1804861,None,768.9971836,770.1971395999999,s,1,生动,k,1,0.5282523000000765,0.4815704000000096,ljx,f,20,2024_Apr_11_0927,mian,2021.2.3,59.93629970066453,
,,,,,,0,0,pic/flanker5.png,pic/flanker1.png,s,l,pic/AffRest1.png,,,,,,,,,,,,,,,,,,,,,,,,,0,0,0,0,0,64,64,11,,,,773.0471694,None,771.8638254,773.06375,s,1,处罚,l,1,0.5570854999998573,0.3886611999998877,ljx,f,20,2024_Apr_11_0927,mian,2021.2.3,59.93629970066453,
,,,,,,0,1,pic/flanker6.png,pic/flanker2.png,a,k,pic/AffRest1.png,,,,,,,,,,,,,,,,,,,,,,,,,0,0,0,0,0,65,65,42,,,,775.9307125,None,774.7471831999999,775.9473117,a,1,俊秀,k,1,0.49579719999996996,0.31065510000007635,ljx,f,20,2024_Apr_11_0927,mian,2021.2.3,59.93629970066453,
,,,,,,1,1,pic/flanker5.png,pic/flanker3.png,a,k,pic/AffRest1.png,,,,,,,,,,,,,,,,,,,,,,,,,0,0,0,0,0,66,66,20,,,,778.5973113999999,None,777.4138900999999,778.6139719,a,1,如愿,k,1,0.5042475999998715,0.391740099999879,ljx,f,20,2024_Apr_11_0927,mian,2021.2.3,59.93629970066453,
,,,,,,1,1,pic/flanker5.png,pic/flanker3.png,a,k,pic/AffRest1.png,,,,,,,,,,,,,,,,,,,,,,,,,0,0,0,0,0,67,67,44,,,,781.3638265,None,780.1804910999999,781.3805027999999,a,1,典雅,k,1,0.5663659000001644,0.3783741999998256,ljx,f,20,2024_Apr_11_0927,mian,2021.2.3,59.93629970066453,
,,,,,,1,0,pic/flanker6.png,pic/flanker4.png,s,l,pic/AffRest1.png,,,,,,,,,,,,,,,,,,,,,,,,,0,0,0,0,0,68,68,61,,,,784.3637595999999,None,783.1802613999998,784.3804803999999,s,1,穷苦,l,1,0.5851267000000462,0.45522779999987506,ljx,f,20,2024_Apr_11_0927,mian,2021.2.3,59.93629970066453,
,,,,,,1,1,pic/flanker6.png,pic/flanker4.png,s,k,pic/AffRest1.png,,,,,,,,,,,,,,,,,,,,,,,,,0,0,0,0,0,69,69,22,,,,787.3471319999999,None,786.1638132,787.3637888999999,s,1,清秀,k,1,0.4963434999999663,0.6469248000000789,ljx,f,20,2024_Apr_11_0927,mian,2021.2.3,59.93629970066453,
,,,,,,0,1,pic/flanker6.png,pic/flanker2.png,a,k,pic/AffRest1.png,,,,,,,,,,,,,,,,,,,,,,,,,0,0,0,0,0,70,70,34,,,,790.4972190999999,None,789.3138759999999,790.5138698999999,a,1,留恋,k,1,0.6129422999999861,0.3248655999998391,ljx,f,20,2024_Apr_11_0927,mian,2021.2.3,59.93629970066453,
,,,,,,0,1,pic/flanker5.png,pic/flanker1.png,s,k,pic/AffRest1.png,,,,,,,,,,,,,,,,,,,,,,,,,0,0,0,0,0,71,71,16,,,,793.4466037,None,792.2637523999999,793.4632841999999,s,1,鲜艳,k,1,0.5325600999999551,0.3500134999999318,ljx,f,20,2024_Apr_11_0927,mian,2021.2.3,59.93629970066453,
,,,,,,0,1,pic/flanker5.png,pic/flanker1.png,s,k,pic/AffRest1.png,,,,,,,,,,,,,,,,,,,,,,,,,0,0,0,0,0,72,72,0,,,,796.330559,None,795.1472365,796.3471551,s,1,享受,k,1,0.48183479999988776,0.3571957999999995,ljx,f,20,2024_Apr_11_0927,mian,2021.2.3,59.93629970066453,
,,,,,,1,1,pic/flanker5.png,pic/flanker3.png,a,k,pic/AffRest1.png,,,,,,,,,,,,,,,,,,,,,,,,,0,0,0,0,0,73,73,4,,,,798.9971648999999,None,797.8140458,799.0137809999999,a,1,热切,k,1,0.5031266000000869,0.4127944999997908,ljx,f,20,2024_Apr_11_0927,mian,2021.2.3,59.93629970066453,
,,,,,,0,1,pic/flanker6.png,pic/flanker2.png,a,k,pic/AffRest1.png,,,,,,,,,,,,,,,,,,,,,,,,,0,0,0,0,0,74,74,50,,,,801.7639824999999,None,800.5804329,801.7806447,a,1,永恒,k,1,0.7076672999999118,0.3361775000000762,ljx,f,20,2024_Apr_11_0927,mian,2021.2.3,59.93629970066453,
,,,,,,0,1,pic/flanker5.png,pic/flanker1.png,s,k,pic/AffRest1.png,,,,,,,,,,,,,,,,,,,,,,,,,0,0,0,0,0,75,75,40,,,,804.7465706999999,None,803.5636658999999,804.7631592,s,1,敬佩,k,1,0.49040000000013606,0.3291139000000385,ljx,f,20,2024_Apr_11_0927,mian,2021.2.3,59.93629970066453,
,,,,,,0,1,pic/flanker6.png,pic/flanker2.png,a,k,pic/AffRest1.png,,,,,,,,,,,,,,,,,,,,,,,,,0,0,0,0,0,76,76,18,,,,807.580559,None,806.3970781999999,807.5971795999999,a,1,公平,k,1,0.47223910000002434,0.33476679999989756,ljx,f,20,2024_Apr_11_0927,mian,2021.2.3,59.93629970066453,
,,,,,,1,1,pic/flanker6.png,pic/flanker4.png,s,k,pic/AffRest1.png,,,,,,,,,,,,,,,,,,,,,,,,,0,0,0,0,0,77,77,46,,,,810.3637185999999,None,809.1805611,810.3803736999998,s,1,爽朗,k,1,0.39741539999999986,0.4631288000000495,ljx,f,20,2024_Apr_11_0927,mian,2021.2.3,59.93629970066453,
,,,,,,1,0,pic/flanker6.png,pic/flanker4.png,s,l,pic/AffRest1.png,,,,,,,,,,,,,,,,,,,,,,,,,0,0,0,0,0,78,78,69,,,,813.1637822999999,None,811.9805233,813.1805737,s,1,别扭,l,1,0.5935789000000113,0.4972072999999,ljx,f,20,2024_Apr_11_0927,mian,2021.2.3,59.93629970066453,
,,,,,,0,0,pic/flanker5.png,pic/flanker1.png,s,l,pic/AffRest1.png,,,,,,,,,,,,,,,,,,,,,,,,,0,0,0,0,0,79,79,27,,,,816.0973635999999,None,814.9137607,816.1140045,s,1,烦恼,l,1,0.4957870000000639,0.31485619999989467,ljx,f,20,2024_Apr_11_0927,mian,2021.2.3,59.93629970066453,
,,,,,,,,,,,,pic/AffRest1.png,,,,,,,,,,,,,,,,,,,,,,,,,0,0,0,0,,,,,,,,,,,,,,,,,,,ljx,f,20,2024_Apr_11_0927,mian,2021.2.3,59.93629970066453,
,,,,,,0,0,pic/flanker5.png,pic/flanker1.png,s,l,pic/AffRest2.png,,,,,,,,,,,,,,,,,,,,,,,,,0,1,1,1,0,0,0,3,,,,828.414012,None,827.2184330999999,828.4307093999998,s,1,心慌,l,1,0.5640972999999576,0.3981114000000616,ljx,f,20,2024_Apr_11_0927,mian,2021.2.3,59.93629970066453,
,,,,,,0,1,pic/flanker6.png,pic/flanker2.png,a,k,pic/AffRest2.png,,,,,,,,,,,,,,,,,,,,,,,,,0,1,1,1,0,1,1,2,,,,831.2637746,None,830.0805825,831.2805349,a,1,如愿,k,1,0.4985497000000123,0.41326570000001084,ljx,f,20,2024_Apr_11_0927,mian,2021.2.3,59.93629970066453,
,,,,,,0,1,pic/flanker6.png,pic/flanker2.png,a,k,pic/AffRest2.png,,,,,,,,,,,,,,,,,,,,,,,,,0,1,1,1,0,2,2,18,,,,834.1305436,None,832.9471796,834.1471531,a,1,卓越,k,1,0.6952742000000853,0.3723629000000983,ljx,f,20,2024_Apr_11_0927,mian,2021.2.3,59.93629970066453,
,,,,,,1,1,pic/flanker6.png,pic/flanker4.png,s,k,pic/AffRest2.png,,,,,,,,,,,,,,,,,,,,,,,,,0,1,1,1,0,3,3,62,,,,837.0472657999999,None,835.863865,837.0638451999998,s,1,前进,k,1,0.5207507000000078,0.465857799999867,ljx,f,20,2024_Apr_11_0927,mian,2021.2.3,59.93629970066453,
,,,,,,0,1,pic/flanker6.png,pic/flanker2.png,a,k,pic/AffRest2.png,,,,,,,,,,,,,,,,,,,,,,,,,0,1,1,1,0,4,4,66,,,,839.9806911999999,None,838.7970132999999,839.9973513,a,1,热切,k,1,0.693626600000016,0.32548079999992297,ljx,f,20,2024_Apr_11_0927,mian,2021.2.3,59.93629970066453,
,,,,,,0,0,pic/flanker5.png,pic/flanker1.png,s,l,pic/AffRest2.png,,,,,,,,,,,,,,,,,,,,,,,,,0,1,1,1,0,5,5,27,,,,843.0468410999999,None,841.8637684,843.0634493999999,s,1,堵塞,l,1,0.6186793000001671,0.30242520000001605,ljx,f,20,2024_Apr_11_0927,mian,2021.2.3,59.93629970066453,
,,,,,,1,0,pic/flanker5.png,pic/flanker3.png,a,l,pic/AffRest2.png,,,,,,,,,,,,,,,,,,,,,,,,,0,1,1,1,0,6,6,31,,,,845.8471525999998,None,844.6638848,845.8637993999998,a,1,沮丧,l,1,0.5426867000001039,0.4082461999998941,ljx,f,20,2024_Apr_11_0927,mian,2021.2.3,59.93629970066453,
,,,,,,0,0,pic/flanker5.png,pic/flanker1.png,s,l,pic/AffRest2.png,,,,,,,,,,,,,,,,,,,,,,,,,0,1,1,1,0,7,7,35,,,,848.8139153,None,847.6304966,848.8305344,s,1,怀疑,l,1,0.6493983999998818,0.3230138999999781,ljx,f,20,2024_Apr_11_0927,mian,2021.2.3,59.93629970066453,
,,,,,,1,1,pic/flanker6.png,pic/flanker4.png,s,k,pic/AffRest2.png,,,,,,,,,,,,,,,,,,,,,,,,,0,1,1,1,0,8,8,30,,,,851.680486,None,850.4971693999998,851.6970979999999,s,1,优雅,k,1,0.5080643999999666,0.4669157000000723,ljx,f,20,2024_Apr_11_0927,mian,2021.2.3,59.93629970066453,
,,,,,,0,1,pic/flanker5.png,pic/flanker1.png,s,k,pic/AffRest2.png,,,,,,,,,,,,,,,,,,,,,,,,,0,1,1,1,0,9,9,72,,,,854.4971796,None,853.3138314,854.5138609,s,1,公平,k,1,0.8321394000001874,0.3443993999999293,ljx,f,20,2024_Apr_11_0927,mian,2021.2.3,59.93629970066453,
,,,,,,0,1,pic/flanker5.png,pic/flanker1.png,s,k,pic/AffRest2.png,,,,,,,,,,,,,,,,,,,,,,,,,0,1,1,1,0,10,10,24,,,,857.5138508,None,856.3305312999998,857.5305765,s,1,圣洁,k,1,0.552849599999945,0.34284859999979744,ljx,f,20,2024_Apr_11_0927,mian,2021.2.3,59.93629970066453,
,,,,,,0,1,pic/flanker5.png,pic/flanker1.png,s,k,pic/AffRest2.png,,,,,,,,,,,,,,,,,,,,,,,,,0,1,1,1,0,11,11,16,,,,860.4305572999999,None,859.2472095999999,860.4472269999999,s,1,俊秀,k,1,0.5816924000000654,0.36999360000004344,ljx,f,20,2024_Apr_11_0927,mian,2021.2.3,59.93629970066453,
,,,,,,0,0,pic/flanker6.png,pic/flanker2.png,a,l,pic/AffRest2.png,,,,,,,,,,,,,,,,,,,,,,,,,0,1,1,1,0,12,12,57,,,,863.2640260999999,None,862.0808377999999,863.2806788,a,1,胡涂,l,1,0.5768344999999044,0.2978273999999601,ljx,f,20,2024_Apr_11_0927,mian,2021.2.3,59.93629970066453,
,,,,,,1,0,pic/flanker5.png,pic/flanker3.png,a,l,pic/AffRest2.png,,,,,,,,,,,,,,,,,,,,,,,,,0,1,1,1,0,13,13,55,,,,866.1471584999999,None,864.9638341999998,866.1638438999998,a,1,忧虑,l,1,0.5553237999999965,0.5205066999999417,ljx,f,20,2024_Apr_11_0927,mian,2021.2.3,59.93629970066453,
,,,,,,1,1,pic/flanker6.png,pic/flanker4.png,s,k,pic/AffRest2.png,,,,,,,,,,,,,,,,,,,,,,,,,0,1,1,1,0,14,14,46,,,,869.2640145,None,868.0805218999999,869.2807086,s,1,清秀,k,1,0.5170428000001266,0.5632894000000306,ljx,f,20,2024_Apr_11_0927,mian,2021.2.3,59.93629970066453,
,,,,,,1,0,pic/flanker5.png,pic/flanker3.png,a,l,pic/AffRest2.png,,,,,,,,,,,,,,,,,,,,,,,,,0,1,1,1,0,15,15,63,,,,872.3473489999999,None,871.1641416999998,872.3640166,a,1,烦恼,l,1,0.5679623000000902,0.47101329999986774,ljx,f,20,2024_Apr_11_0927,mian,2021.2.3,59.93629970066453,
,,,,,,1,1,pic/flanker5.png,pic/flanker3.png,a,k,pic/AffRest2.png,,,,,,,,,,,,,,,,,,,,,,,,,0,1,1,1,0,16,16,76,,,,875.4302874999998,None,874.2473413,875.4469216999998,a,1,有利,k,1,0.47727519999989454,0.45918639999990774,ljx,f,20,2024_Apr_11_0927,mian,2021.2.3,59.93629970066453,
,,,,,,0,0,pic/flanker5.png,pic/flanker1.png,s,l,pic/AffRest2.png,,,,,,,,,,,,,,,,,,,,,,,,,0,1,1,1,0,17,17,19,,,,878.4140206,None,877.2304752,878.4306434999999,s,1,郁闷,l,1,0.46881280000002334,0.44766180000010536,ljx,f,20,2024_Apr_11_0927,mian,2021.2.3,59.93629970066453,
,,,,,,0,1,pic/flanker5.png,pic/flanker1.png,s,k,pic/AffRest2.png,,,,,,,,,,,,,,,,,,,,,,,,,0,1,1,1,0,18,18,0,,,,881.2973124999999,None,880.1138550000001,881.313909,s,1,留恋,l,0,0.5440722000000733,0.3691621000000396,ljx,f,20,2024_Apr_11_0927,mian,2021.2.3,59.93629970066453,
,,,,,,0,0,pic/flanker5.png,pic/flanker1.png,s,l,pic/AffRest2.png,,,,,,,,,,,,,,,,,,,,,,,,,0,1,1,1,0,19,19,75,,,,884.0805587,None,882.8973541,884.0972669999999,s,1,厌恶,l,1,0.5182699999998022,0.3071717999998782,ljx,f,20,2024_Apr_11_0927,mian,2021.2.3,59.93629970066453,
,,,,,,0,1,pic/flanker6.png,pic/flanker2.png,a,k,pic/AffRest2.png,,,,,,,,,,,,,,,,,,,,,,,,,0,1,1,1,0,20,20,42,,,,886.7639185,None,885.5805011,886.7806072999999,a,1,生动,k,1,0.4293109000000186,0.30385789999991175,ljx,f,20,2024_Apr_11_0927,mian,2021.2.3,59.93629970066453,
,,,,,,0,1,pic/flanker5.png,pic/flanker1.png,s,k,pic/AffRest2.png,,,,,,,,,,,,,,,,,,,,,,,,,0,1,1,1,0,21,21,56,,,,889.4805248,None,888.2971777,889.4973287999999,s,1,旺盛,k,1,0.4621623999998974,0.2527021999999306,ljx,f,20,2024_Apr_11_0927,mian,2021.2.3,59.93629970066453,
,,,,,,1,1,pic/flanker6.png,pic/flanker4.png,s,k,pic/AffRest2.png,,,,,,,,,,,,,,,,,,,,,,,,,0,1,1,1,0,22,22,38,,,,892.1138963999999,None,890.9306379,892.1305421,a,0,永恒,k,1,0.5950044000001071,0.24388500000009117,ljx,f,20,2024_Apr_11_0927,mian,2021.2.3,59.93629970066453,
,,,,,,0,0,pic/flanker6.png,pic/flanker2.png,a,l,pic/AffRest2.png,,,,,,,,,,,,,,,,,,,,,,,,,0,1,1,1,0,23,23,33,,,,894.9971980999999,None,893.8140043999999,895.0139589,a,1,落后,l,1,0.5249604000000545,0.30884949999995115,ljx,f,20,2024_Apr_11_0927,mian,2021.2.3,59.93629970066453,
,,,,,,1,0,pic/flanker6.png,pic/flanker4.png,s,l,pic/AffRest2.png,,,,,,,,,,,,,,,,,,,,,,,,,0,1,1,1,0,24,24,61,,,,897.863738,None,896.6805213,897.8805479,s,1,悲观,l,1,0.6318361000001005,0.5319636000001537,ljx,f,20,2024_Apr_11_0927,mian,2021.2.3,59.93629970066453,
,,,,,,0,1,pic/flanker5.png,pic/flanker1.png,s,k,pic/AffRest2.png,,,,,,,,,,,,,,,,,,,,,,,,,0,1,1,1,0,25,25,8,,,,900.8807956999999,None,899.6970471,900.8973002,s,1,秀丽,k,1,0.4761759999998958,0.35609980000003816,ljx,f,20,2024_Apr_11_0927,mian,2021.2.3,59.93629970066453,
,,,,,,1,0,pic/flanker5.png,pic/flanker3.png,a,l,pic/AffRest2.png,,,,,,,,,,,,,,,,,,,,,,,,,0,1,1,1,0,26,26,71,,,,903.5465283999999,None,902.3634867999999,903.5632972999999,a,1,鲁莽,l,1,0.43454270000006545,0.4842836000000261,ljx,f,20,2024_Apr_11_0927,mian,2021.2.3,59.93629970066453,
,,,,,,1,1,pic/flanker6.png,pic/flanker4.png,s,k,pic/AffRest2.png,,,,,,,,,,,,,,,,,,,,,,,,,0,1,1,1,0,27,27,54,,,,906.4640509999999,None,905.2806335,906.4806684,s,1,畅销,k,1,0.47183109999991757,0.4695647999999437,ljx,f,20,2024_Apr_11_0927,mian,2021.2.3,59.93629970066453,
,,,,,,0,0,pic/flanker6.png,pic/flanker2.png,a,l,pic/AffRest2.png,,,,,,,,,,,,,,,,,,,,,,,,,0,1,1,1,0,28,28,1,,,,909.3806285000001,None,908.1974614999999,909.3972819,a,1,丢失,l,1,0.6025826000000052,0.35897209999984625,ljx,f,20,2024_Apr_11_0927,mian,2021.2.3,59.93629970066453,
,,,,,,1,0,pic/flanker6.png,pic/flanker4.png,s,l,pic/AffRest2.png,,,,,,,,,,,,,,,,,,,,,,,,,0,1,1,1,0,29,29,77,,,,912.3973870999998,None,911.2133451,912.4140233,s,1,罚款,l,1,0.5944038000000091,0.45171720000007554,ljx,f,20,2024_Apr_11_0927,mian,2021.2.3,59.93629970066453,
,,,,,,1,1,pic/flanker5.png,pic/flanker3.png,a,k,pic/AffRest2.png,,,,,,,,,,,,,,,,,,,,,,,,,0,1,1,1,0,30,30,36,,,,915.4471501999999,None,914.2633994,915.4639239999999,a,1,羡慕,k,1,0.5760259999999562,0.4124605999998039,ljx,f,20,2024_Apr_11_0927,mian,2021.2.3,59.93629970066453,
,,,,,,0,0,pic/flanker6.png,pic/flanker2.png,a,l,pic/AffRest2.png,,,,,,,,,,,,,,,,,,,,,,,,,0,1,1,1,0,31,31,65,,,,918.3139157,None,917.1307354,918.3305811999999,a,1,消沉,l,1,0.5008844000001318,0.37459869999997863,ljx,f,20,2024_Apr_11_0927,mian,2021.2.3,59.93629970066453,
,,,,,,0,1,pic/flanker6.png,pic/flanker2.png,a,k,pic/AffRest2.png,,,,,,,,,,,,,,,,,,,,,,,,,0,1,1,1,0,32,32,34,,,,921.1138888,None,919.9306165,921.1306165999999,a,1,享受,k,1,0.47329869999998664,0.3167260999998689,ljx,f,20,2024_Apr_11_0927,mian,2021.2.3,59.93629970066453,
,,,,,,0,0,pic/flanker6.png,pic/flanker2.png,a,l,pic/AffRest2.png,,,,,,,,,,,,,,,,,,,,,,,,,0,1,1,1,0,33,33,17,,,,923.9472885,None,922.7637603999999,923.9639328999999,a,1,失意,l,1,0.5847067999998217,0.29627640000012434,ljx,f,20,2024_Apr_11_0927,mian,2021.2.3,59.93629970066453,
,,,,,,1,1,pic/flanker5.png,pic/flanker3.png,a,k,pic/AffRest2.png,,,,,,,,,,,,,,,,,,,,,,,,,0,1,1,1,0,34,34,52,,,,926.7473264,None,925.5634442,926.7634518999998,a,1,鲜艳,k,1,0.5549115000001166,0.45265820000008716,ljx,f,20,2024_Apr_11_0927,mian,2021.2.3,59.93629970066453,
,,,,,,1,0,pic/flanker5.png,pic/flanker3.png,a,l,pic/AffRest2.png,,,,,,,,,,,,,,,,,,,,,,,,,0,1,1,1,0,35,35,47,,,,929.6638587,None,928.4804789,929.6805213,a,1,杂乱,l,1,0.47094529999981205,0.5228064000000359,ljx,f,20,2024_Apr_11_0927,mian,2021.2.3,59.93629970066453,
,,,,,,1,0,pic/flanker6.png,pic/flanker4.png,s,l,pic/AffRest2.png,,,,,,,,,,,,,,,,,,,,,,,,,0,1,1,1,0,36,36,45,,,,932.6635237999999,None,931.4805168999999,932.6802015999999,s,1,自卑,l,1,0.5364835000000312,0.4361034999999447,ljx,f,20,2024_Apr_11_0927,mian,2021.2.3,59.93629970066453,
,,,,,,1,1,pic/flanker5.png,pic/flanker3.png,a,k,pic/AffRest2.png,,,,,,,,,,,,,,,,,,,,,,,,,0,1,1,1,0,37,37,60,,,,935.7132405,None,934.5305097,935.7299482999999,a,1,典雅,k,1,0.4427178000000822,0.481823200000008,ljx,f,20,2024_Apr_11_0927,mian,2021.2.3,59.93629970066453,
,,,,,,1,0,pic/flanker5.png,pic/flanker3.png,a,l,pic/AffRest2.png,,,,,,,,,,,,,,,,,,,,,,,,,0,1,1,1,0,38,38,23,,,,938.5972615000001,None,937.4134019999999,938.6133654999999,a,1,损害,l,1,0.5613981999999851,0.47214950000011413,ljx,f,20,2024_Apr_11_0927,mian,2021.2.3,59.93629970066453,
,,,,,,1,1,pic/flanker6.png,pic/flanker4.png,s,k,pic/AffRest2.png,,,,,,,,,,,,,,,,,,,,,,,,,0,1,1,1,0,39,39,6,,,,941.5141042,None,940.3306138,941.5306848,s,1,爽朗,k,1,0.4479384999999638,0.561194599999908,ljx,f,20,2024_Apr_11_0927,mian,2021.2.3,59.93629970066453,
,,,,,,1,1,pic/flanker5.png,pic/flanker3.png,a,k,pic/AffRest2.png,,,,,,,,,,,,,,,,,,,,,,,,,0,1,1,1,0,40,40,44,,,,944.3806142999999,None,943.1972524,944.3972113,a,1,豪放,l,0,0.4604876000000786,0.3635258000001613,ljx,f,20,2024_Apr_11_0927,mian,2021.2.3,59.93629970066453,
,,,,,,1,0,pic/flanker5.png,pic/flanker3.png,a,l,pic/AffRest2.png,,,,,,,,,,,,,,,,,,,,,,,,,0,1,1,1,0,41,41,79,,,,947.2139313999999,None,946.0304182,947.2305081,a,1,撒谎,l,1,0.612309100000175,0.5564578999999412,ljx,f,20,2024_Apr_11_0927,mian,2021.2.3,59.93629970066453,
,,,,,,0,1,pic/flanker5.png,pic/flanker1.png,s,k,pic/AffRest2.png,,,,,,,,,,,,,,,,,,,,,,,,,0,1,1,1,0,42,42,64,,,,950.4133967999999,None,949.2300620999999,950.4301978999999,s,1,诚恳,k,1,0.42517130000010184,0.4171832000001814,ljx,f,20,2024_Apr_11_0927,mian,2021.2.3,59.93629970066453,
,,,,,,0,1,pic/flanker6.png,pic/flanker2.png,a,k,pic/AffRest2.png,,,,,,,,,,,,,,,,,,,,,,,,,0,1,1,1,0,43,43,58,,,,953.2805833,None,952.0970267999999,953.2973416999998,a,1,富足,k,1,0.5264770999999655,0.4136842999998862,ljx,f,20,2024_Apr_11_0927,mian,2021.2.3,59.93629970066453,
,,,,,,1,1,pic/flanker5.png,pic/flanker3.png,a,k,pic/AffRest2.png,,,,,,,,,,,,,,,,,,,,,,,,,0,1,1,1,0,44,44,4,,,,956.0805908,None,954.8971964,956.0973228,a,1,顽强,k,1,0.4188105999999152,0.43740520000005745,ljx,f,20,2024_Apr_11_0927,mian,2021.2.3,59.93629970066453,
,,,,,,1,0,pic/flanker6.png,pic/flanker4.png,s,l,pic/AffRest2.png,,,,,,,,,,,,,,,,,,,,,,,,,0,1,1,1,0,45,45,21,,,,958.9471056999998,None,957.7633234999998,958.9637184999999,s,1,浪费,l,1,0.5098748000000342,0.4967077999999674,ljx,f,20,2024_Apr_11_0927,mian,2021.2.3,59.93629970066453,
,,,,,,0,1,pic/flanker6.png,pic/flanker2.png,a,k,pic/AffRest2.png,,,,,,,,,,,,,,,,,,,,,,,,,0,1,1,1,0,46,46,50,,,,961.8473458999999,None,960.6640003,961.8640390999999,a,1,振作,k,1,0.5858044999999947,0.32612970000013775,ljx,f,20,2024_Apr_11_0927,mian,2021.2.3,59.93629970066453,
,,,,,,0,1,pic/flanker6.png,pic/flanker2.png,a,k,pic/AffRest2.png,,,,,,,,,,,,,,,,,,,,,,,,,0,1,1,1,0,47,47,10,,,,964.6305665999998,None,963.4472559999999,964.6472234999999,a,1,正直,k,1,0.4642900000001191,0.3868449999999939,ljx,f,20,2024_Apr_11_0927,mian,2021.2.3,59.93629970066453,
,,,,,,1,1,pic/flanker5.png,pic/flanker3.png,a,k,pic/AffRest2.png,,,,,,,,,,,,,,,,,,,,,,,,,0,1,1,1,0,48,48,28,,,,967.4472264999999,None,966.2638864999999,967.4637605999999,a,1,富丽,k,1,0.544956799999909,0.46201640000003863,ljx,f,20,2024_Apr_11_0927,mian,2021.2.3,59.93629970066453,
,,,,,,1,0,pic/flanker6.png,pic/flanker4.png,s,l,pic/AffRest2.png,,,,,,,,,,,,,,,,,,,,,,,,,0,1,1,1,0,49,49,29,,,,970.3806723999999,None,969.1972942,970.3971200999999,s,1,逃避,l,1,0.5302831999999853,0.4304835999998886,ljx,f,20,2024_Apr_11_0927,mian,2021.2.3,59.93629970066453,
,,,,,,0,0,pic/flanker6.png,pic/flanker2.png,a,l,pic/AffRest2.png,,,,,,,,,,,,,,,,,,,,,,,,,0,1,1,1,0,50,50,49,,,,973.1806405,None,971.997161,973.1972578,a,1,黑暗,l,1,0.6759294999999383,0.3255765000001247,ljx,f,20,2024_Apr_11_0927,mian,2021.2.3,59.93629970066453,
,,,,,,1,1,pic/flanker5.png,pic/flanker3.png,a,k,pic/AffRest2.png,,,,,,,,,,,,,,,,,,,,,,,,,0,1,1,1,0,51,51,12,,,,976.0139492999999,None,974.8306040999998,976.0305681999998,a,1,廉洁,k,1,0.4838125000001128,0.4346381000000292,ljx,f,20,2024_Apr_11_0927,mian,2021.2.3,59.93629970066453,
,,,,,,1,1,pic/flanker6.png,pic/flanker4.png,s,k,pic/AffRest2.png,,,,,,,,,,,,,,,,,,,,,,,,,0,1,1,1,0,52,52,78,,,,978.9638946,None,977.7806654999999,978.9806759,s,1,瑰丽,k,1,0.4292057999998633,0.5056610999999975,ljx,f,20,2024_Apr_11_0927,mian,2021.2.3,59.93629970066453,
,,,,,,0,1,pic/flanker5.png,pic/flanker1.png,s,k,pic/AffRest2.png,,,,,,,,,,,,,,,,,,,,,,,,,0,1,1,1,0,53,53,32,,,,981.9306048999999,None,980.747112,981.9473097,s,1,舒畅,k,1,0.43816930000002685,0.37406720000012683,ljx,f,20,2024_Apr_11_0927,mian,2021.2.3,59.93629970066453,
,,,,,,0,1,pic/flanker5.png,pic/flanker1.png,s,k,pic/AffRest2.png,,,,,,,,,,,,,,,,,,,,,,,,,0,1,1,1,0,54,54,40,,,,984.7472252999999,None,983.5639065,984.7639139,s,1,赞成,k,1,0.8773570999999265,0.41954869999995026,ljx,f,20,2024_Apr_11_0927,mian,2021.2.3,59.93629970066453,
,,,,,,1,0,pic/flanker5.png,pic/flanker3.png,a,l,pic/AffRest2.png,,,,,,,,,,,,,,,,,,,,,,,,,0,1,1,1,0,55,55,15,,,,988.0805799,None,986.8973177,988.0972669,a,1,冷笑,l,1,0.5313939999998638,0.36715220000019144,ljx,f,20,2024_Apr_11_0927,mian,2021.2.3,59.93629970066453,
,,,,,,1,0,pic/flanker6.png,pic/flanker4.png,s,l,pic/AffRest2.png,,,,,,,,,,,,,,,,,,,,,,,,,0,1,1,1,0,56,56,53,,,,990.8805923,None,989.6972272,990.8973200999999,s,1,闷热,l,1,0.9984267000002092,0.418467899999996,ljx,f,20,2024_Apr_11_0927,mian,2021.2.3,59.93629970066453,
,,,,,,0,0,pic/flanker5.png,pic/flanker1.png,s,l,pic/AffRest2.png,,,,,,,,,,,,,,,,,,,,,,,,,0,1,1,1,0,57,57,43,,,,994.2974099999999,None,993.1140496,994.3140880999999,s,1,处罚,l,1,0.6254189999999653,0.3794840999998996,ljx,f,20,2024_Apr_11_0927,mian,2021.2.3,59.93629970066453,
,,,,,,0,0,pic/flanker6.png,pic/flanker2.png,a,l,pic/AffRest2.png,,,,,,,,,,,,,,,,,,,,,,,,,0,1,1,1,0,58,58,9,,,,997.1472850999999,None,995.9639362,997.1638989,a,1,慌忙,l,1,0.46027570000001106,0.3271987000000536,ljx,f,20,2024_Apr_11_0927,mian,2021.2.3,59.93629970066453,
,,,,,,0,0,pic/flanker5.png,pic/flanker1.png,s,l,pic/AffRest2.png,,,,,,,,,,,,,,,,,,,,,,,,,0,1,1,1,0,59,59,59,,,,999.7639907,None,998.5806127999999,999.7807481999998,s,1,孤单,l,1,0.4316353000001527,0.31864680000012413,ljx,f,20,2024_Apr_11_0927,mian,2021.2.3,59.93629970066453,
,,,,,,1,1,pic/flanker6.png,pic/flanker4.png,s,k,pic/AffRest2.png,,,,,,,,,,,,,,,,,,,,,,,,,0,1,1,1,0,60,60,70,,,,1002.3806562,None,1001.1972748999999,1002.39724,s,1,敬佩,k,1,0.5121208000000479,0.5057701999999153,ljx,f,20,2024_Apr_11_0927,mian,2021.2.3,59.93629970066453,
,,,,,,1,1,pic/flanker5.png,pic/flanker3.png,a,k,pic/AffRest2.png,,,,,,,,,,,,,,,,,,,,,,,,,0,1,1,1,0,61,61,68,,,,1005.2805653999999,None,1004.0972995,1005.2971874999998,a,1,雄厚,k,1,0.9230154999997922,0.459404799999902,ljx,f,20,2024_Apr_11_0927,mian,2021.2.3,59.93629970066453,
,,,,,,0,0,pic/flanker6.png,pic/flanker2.png,a,l,pic/AffRest2.png,,,,,,,,,,,,,,,,,,,,,,,,,0,1,1,1,0,62,62,25,,,,1008.6805723999998,None,1007.4972444,1008.6972747999998,a,1,争吵,l,1,1.327467100000149,0.3702943000000687,ljx,f,20,2024_Apr_11_0927,mian,2021.2.3,59.93629970066453,
,,,,,,0,0,pic/flanker5.png,pic/flanker1.png,s,l,pic/AffRest2.png,,,,,,,,,,,,,,,,,,,,,,,,,0,1,1,1,0,63,63,67,,,,1012.4140694999999,None,1011.2306890999998,1012.4307601,s,1,穷苦,l,1,0.5058448999998291,0.3671529000000646,ljx,f,20,2024_Apr_11_0927,mian,2021.2.3,59.93629970066453,
,,,,,,0,0,pic/flanker6.png,pic/flanker2.png,a,l,pic/AffRest2.png,,,,,,,,,,,,,,,,,,,,,,,,,0,1,1,1,0,64,64,73,,,,1015.2640019999999,None,1014.0807336999999,1015.2806762,a,1,嘲笑,l,1,0.6867366999999831,0.3511292000000594,ljx,f,20,2024_Apr_11_0927,mian,2021.2.3,59.93629970066453,
,,,,,,1,0,pic/flanker6.png,pic/flanker4.png,s,l,pic/AffRest2.png,,,,,,,,,,,,,,,,,,,,,,,,,0,1,1,1,0,65,65,69,,,,1018.2640056,None,1017.0806399,1018.2805822,s,1,缺乏,l,1,0.5428862000001118,0.47331350000013117,ljx,f,20,2024_Apr_11_0927,mian,2021.2.3,59.93629970066453,
,,,,,,1,1,pic/flanker6.png,pic/flanker4.png,s,k,pic/AffRest2.png,,,,,,,,,,,,,,,,,,,,,,,,,0,1,1,1,0,66,66,22,,,,1021.3305538,None,1020.1473664,1021.3472873999999,s,1,珍藏,k,1,0.5121056000000408,0.4818094999998266,ljx,f,20,2024_Apr_11_0927,mian,2021.2.3,59.93629970066453,
,,,,,,1,1,pic/flanker6.png,pic/flanker4.png,s,k,pic/AffRest2.png,,,,,,,,,,,,,,,,,,,,,,,,,0,1,1,1,0,67,67,14,,,,1024.2973161999998,None,1023.1139102,1024.3139692,s,1,丰满,k,1,0.7427258000000165,0.37227230000007694,ljx,f,20,2024_Apr_11_0927,mian,2021.2.3,59.93629970066453,
,,,,,,0,0,pic/flanker5.png,pic/flanker1.png,s,l,pic/AffRest2.png,,,,,,,,,,,,,,,,,,,,,,,,,0,1,1,1,0,68,68,51,,,,1027.2806057,None,1026.0974406999999,1027.2973309,s,1,禁止,l,1,0.5116809000001012,0.3644288999998935,ljx,f,20,2024_Apr_11_0927,mian,2021.2.3,59.93629970066453,
,,,,,,1,1,pic/flanker5.png,pic/flanker3.png,a,k,pic/AffRest2.png,,,,,,,,,,,,,,,,,,,,,,,,,0,1,1,1,0,69,69,20,,,,1030.2140349,None,1029.0305917,1030.2306128,a,1,充裕,k,1,0.45885169999996833,0.39039960000013707,ljx,f,20,2024_Apr_11_0927,mian,2021.2.3,59.93629970066453,
,,,,,,0,0,pic/flanker5.png,pic/flanker1.png,s,l,pic/AffRest2.png,,,,,,,,,,,,,,,,,,,,,,,,,0,1,1,1,0,70,70,11,,,,1033.1141060999998,None,1031.9307297,1033.1307673,s,1,假冒,l,1,0.5345899999999801,0.3239154000000326,ljx,f,20,2024_Apr_11_0927,mian,2021.2.3,59.93629970066453,
,,,,,,1,0,pic/flanker5.png,pic/flanker3.png,a,l,pic/AffRest2.png,,,,,,,,,,,,,,,,,,,,,,,,,0,1,1,1,0,71,71,7,,,,1035.8140297,None,1034.6307384,1035.8306432,a,1,别扭,l,1,0.6063864999998714,0.41196320000017295,ljx,f,20,2024_Apr_11_0927,mian,2021.2.3,59.93629970066453,
,,,,,,1,0,pic/flanker6.png,pic/flanker4.png,s,l,pic/AffRest2.png,,,,,,,,,,,,,,,,,,,,,,,,,0,1,1,1,0,72,72,5,,,,1038.6807723,None,1037.4973929,1038.69743,s,1,懒惰,l,1,0.4820400000000973,0.3849645000000237,ljx,f,20,2024_Apr_11_0927,mian,2021.2.3,59.93629970066453,
,,,,,,0,1,pic/flanker6.png,pic/flanker2.png,a,k,pic/AffRest2.png,,,,,,,,,,,,,,,,,,,,,,,,,0,1,1,1,0,73,73,74,,,,1041.4807706,None,1040.2972783,1041.4974379999999,a,1,精致,k,1,0.6088343999999779,0.3462196999998923,ljx,f,20,2024_Apr_11_0927,mian,2021.2.3,59.93629970066453,
,,,,,,1,0,pic/flanker6.png,pic/flanker4.png,s,l,pic/AffRest2.png,,,,,,,,,,,,,,,,,,,,,,,,,0,1,1,1,0,74,74,13,,,,1044.2974339,None,1043.1140953,1044.3140898,s,1,轻率,l,1,0.5156079000000773,0.42826629999990473,ljx,f,20,2024_Apr_11_0927,mian,2021.2.3,59.93629970066453,
,,,,,,0,1,pic/flanker5.png,pic/flanker1.png,s,k,pic/AffRest2.png,,,,,,,,,,,,,,,,,,,,,,,,,0,1,1,1,0,75,75,48,,,,1047.3139145,None,1046.1307461,1047.3306119,s,1,吉祥,k,1,0.507994300000064,0.3695080999998481,ljx,f,20,2024_Apr_11_0927,mian,2021.2.3,59.93629970066453,
,,,,,,0,1,pic/flanker6.png,pic/flanker2.png,a,k,pic/AffRest2.png,,,,,,,,,,,,,,,,,,,,,,,,,0,1,1,1,0,76,76,26,,,,1050.1807803,None,1048.9979856,1050.1974281999999,a,1,奉献,k,1,0.429816700000174,0.27055479999989984,ljx,f,20,2024_Apr_11_0927,mian,2021.2.3,59.93629970066453,
,,,,,,1,0,pic/flanker6.png,pic/flanker4.png,s,l,pic/AffRest2.png,,,,,,,,,,,,,,,,,,,,,,,,,0,1,1,1,0,77,77,37,,,,1052.8640178,None,1051.6803121,1052.8806431,s,1,焦躁,l,1,0.8953727000000526,0.39797120000002906,ljx,f,20,2024_Apr_11_0927,mian,2021.2.3,59.93629970066453,
,,,,,,1,0,pic/flanker5.png,pic/flanker3.png,a,l,pic/AffRest2.png,,,,,,,,,,,,,,,,,,,,,,,,,0,1,1,1,0,78,78,39,,,,1056.1303546,None,1054.9474218999999,1056.1470273,a,1,排斥,l,1,0.43842819999986204,0.41321719999996276,ljx,f,20,2024_Apr_11_0927,mian,2021.2.3,59.93629970066453,
,,,,,,0,0,pic/flanker6.png,pic/flanker2.png,a,l,pic/AffRest2.png,,,,,,,,,,,,,,,,,,,,,,,,,0,1,1,1,0,79,79,41,,,,1058.8973485,None,1057.7139092,1058.9139771,a,1,伤心,l,1,0.5883176999998341,0.2883724999999231,ljx,f,20,2024_Apr_11_0927,mian,2021.2.3,59.93629970066453,
,,,,,,,,,,,,pic/AffRest2.png,,,,,,,,,,,,,,,,,,,,,,,,,0,1,1,1,,,,,,,,,,,,,,,,,,,ljx,f,20,2024_Apr_11_0927,mian,2021.2.3,59.93629970066453,
,,,,,,0,0,pic/flanker5.png,pic/flanker1.png,s,l,pic/AffRest3.png,,,,,,,,,,,,,,,,,,,,,,,,,0,2,2,2,0,0,0,51,,,,1080.7473212,None,1079.5500141,1080.7639534,s,1,杂乱,l,1,0.5237150999998903,0.3855289000000539,ljx,f,20,2024_Apr_11_0927,mian,2021.2.3,59.93629970066453,
,,,,,,1,0,pic/flanker6.png,pic/flanker4.png,s,l,pic/AffRest3.png,,,,,,,,,,,,,,,,,,,,,,,,,0,2,2,2,0,1,1,13,,,,1083.730799,None,1082.5471484,1083.7474731,s,1,假冒,l,1,0.5701317000000472,0.4395389999999679,ljx,f,20,2024_Apr_11_0927,mian,2021.2.3,59.93629970066453,
,,,,,,0,0,pic/flanker5.png,pic/flanker1.png,s,l,pic/AffRest3.png,,,,,,,,,,,,,,,,,,,,,,,,,0,2,2,2,0,2,2,11,,,,1086.630654,None,1085.4318776,1086.6473925,s,1,自卑,l,1,0.5711681000000226,0.4534193000001778,ljx,f,20,2024_Apr_11_0927,mian,2021.2.3,59.93629970066453,
,,,,,,1,1,pic/flanker6.png,pic/flanker4.png,s,k,pic/AffRest3.png,,,,,,,,,,,,,,,,,,,,,,,,,0,2,2,2,0,3,3,46,,,,1089.5474915,None,1088.3640988,1089.5640925,s,1,羡慕,k,1,0.8064563999998882,0.4229287000000568,ljx,f,20,2024_Apr_11_0927,mian,2021.2.3,59.93629970066453,
,,,,,,1,1,pic/flanker5.png,pic/flanker3.png,a,k,pic/AffRest3.png,,,,,,,,,,,,,,,,,,,,,,,,,0,2,2,2,0,4,4,60,,,,1092.6967149,None,1091.5140601,1092.7133942,a,1,俊秀,k,1,0.5403152000001228,0.3993879999998171,ljx,f,20,2024_Apr_11_0927,mian,2021.2.3,59.93629970066453,
,,,,,,1,0,pic/flanker5.png,pic/flanker3.png,a,l,pic/AffRest3.png,,,,,,,,,,,,,,,,,,,,,,,,,0,2,2,2,0,5,5,39,,,,1095.4803868,None,1094.2973035999999,1095.4970343999998,a,1,忧虑,l,1,0.47051230000010946,0.40795600000001286,ljx,f,20,2024_Apr_11_0927,mian,2021.2.3,59.93629970066453,
,,,,,,0,0,pic/flanker5.png,pic/flanker1.png,s,l,pic/AffRest3.png,,,,,,,,,,,,,,,,,,,,,,,,,0,2,2,2,0,6,6,43,,,,1098.3808259,None,1097.1974285,1098.3974649,s,1,焦躁,l,1,0.5210955999998532,0.357340000000022,ljx,f,20,2024_Apr_11_0927,mian,2021.2.3,59.93629970066453,
,,,,,,1,1,pic/flanker6.png,pic/flanker4.png,s,k,pic/AffRest3.png,,,,,,,,,,,,,,,,,,,,,,,,,0,2,2,2,0,7,7,30,,,,1101.1308202,None,1099.9473298,1101.1471261,s,1,富丽,k,1,0.45665299999996023,0.39216989999999896,ljx,f,20,2024_Apr_11_0927,mian,2021.2.3,59.93629970066453,
,,,,,,0,1,pic/flanker5.png,pic/flanker1.png,s,k,pic/AffRest3.png,,,,,,,,,,,,,,,,,,,,,,,,,0,2,2,2,0,8,8,0,,,,1103.8474555999999,None,1102.6638894,1103.8641097,s,1,旺盛,k,1,0.399277100000063,0.35388349999993807,ljx,f,20,2024_Apr_11_0927,mian,2021.2.3,59.93629970066453,
,,,,,,1,0,pic/flanker5.png,pic/flanker3.png,a,l,pic/AffRest3.png,,,,,,,,,,,,,,,,,,,,,,,,,0,2,2,2,0,9,9,15,,,,1106.6307946,None,1105.4474275999999,1106.6474266,a,1,缺乏,l,1,0.4635043000000678,0.3696459000000232,ljx,f,20,2024_Apr_11_0927,mian,2021.2.3,59.93629970066453,
,,,,,,1,0,pic/flanker6.png,pic/flanker4.png,s,l,pic/AffRest3.png,,,,,,,,,,,,,,,,,,,,,,,,,0,2,2,2,0,10,10,61,,,,1109.3474557,None,1108.1639019,1109.3641218,s,1,罚款,l,1,0.6676121000000421,1.2281671000000642,ljx,f,20,2024_Apr_11_0927,mian,2021.2.3,59.93629970066453,
,,,,,,0,1,pic/flanker6.png,pic/flanker2.png,a,k,pic/AffRest3.png,,,,,,,,,,,,,,,,,,,,,,,,,0,2,2,2,0,11,11,10,,,,1113.1641439999999,None,1111.9807942,1113.180815,a,1,廉洁,k,1,0.6004161999999269,0.34262409999996635,ljx,f,20,2024_Apr_11_0927,mian,2021.2.3,59.93629970066453,
,,,,,,0,0,pic/flanker6.png,pic/flanker2.png,a,l,pic/AffRest3.png,,,,,,,,,,,,,,,,,,,,,,,,,0,2,2,2,0,12,12,49,,,,1116.0638578,None,1114.8800724,1116.0805051,a,1,悲观,l,1,0.45810660000006465,0.3439401999999063,ljx,f,20,2024_Apr_11_0927,mian,2021.2.3,59.93629970066453,
,,,,,,1,0,pic/flanker5.png,pic/flanker3.png,a,l,pic/AffRest3.png,,,,,,,,,,,,,,,,,,,,,,,,,0,2,2,2,0,13,13,23,,,,1118.7972969,None,1117.6134903,1118.8140339,a,1,厌恶,l,1,0.49168230000009316,0.4942109999999502,ljx,f,20,2024_Apr_11_0927,mian,2021.2.3,59.93629970066453,
,,,,,,1,1,pic/flanker6.png,pic/flanker4.png,s,k,pic/AffRest3.png,,,,,,,,,,,,,,,,,,,,,,,,,0,2,2,2,0,14,14,54,,,,1121.7808049,None,1120.5973124,1121.7974794,s,1,优雅,k,1,0.5470537999999578,0.471858500000053,ljx,f,20,2024_Apr_11_0927,mian,2021.2.3,59.93629970066453,
,,,,,,1,1,pic/flanker5.png,pic/flanker3.png,a,k,pic/AffRest3.png,,,,,,,,,,,,,,,,,,,,,,,,,0,2,2,2,0,15,15,20,,,,1124.8472911,None,1123.6640215,1124.8640524999998,a,1,留恋,l,0,1.3846704000000045,0.49141320000012456,ljx,f,20,2024_Apr_11_0927,mian,2021.2.3,59.93629970066453,
,,,,,,0,1,pic/flanker6.png,pic/flanker2.png,a,k,pic/AffRest3.png,,,,,,,,,,,,,,,,,,,,,,,,,0,2,2,2,0,16,16,66,,,,1128.8139889,None,1127.6307402,1128.8306698,a,1,敬佩,k,1,0.4968899999998939,0.3489062000001013,ljx,f,20,2024_Apr_11_0927,mian,2021.2.3,59.93629970066453,
,,,,,,1,0,pic/flanker6.png,pic/flanker4.png,s,l,pic/AffRest3.png,,,,,,,,,,,,,,,,,,,,,,,,,0,2,2,2,0,17,17,5,,,,1131.530747,None,1130.3473892,1131.5470584,s,1,烦恼,l,1,0.5658613000000514,0.4395880000001853,ljx,f,20,2024_Apr_11_0927,mian,2021.2.3,59.93629970066453,
,,,,,,1,1,pic/flanker5.png,pic/flanker3.png,a,k,pic/AffRest3.png,,,,,,,,,,,,,,,,,,,,,,,,,0,2,2,2,0,18,18,76,,,,1134.5136327,None,1133.3302377,1134.5307373,a,1,卓越,k,1,0.4983173999999053,0.40852990000007594,ljx,f,20,2024_Apr_11_0927,mian,2021.2.3,59.93629970066453,
,,,,,,1,1,pic/flanker6.png,pic/flanker4.png,s,k,pic/AffRest3.png,,,,,,,,,,,,,,,,,,,,,,,,,0,2,2,2,0,19,19,38,,,,1137.2639861999999,None,1136.080616,1137.2806799,s,1,丰满,k,1,0.48688450000008743,0.4710408999999345,ljx,f,20,2024_Apr_11_0927,mian,2021.2.3,59.93629970066453,
,,,,,,0,1,pic/flanker5.png,pic/flanker1.png,s,k,pic/AffRest3.png,,,,,,,,,,,,,,,,,,,,,,,,,0,2,2,2,0,20,20,72,,,,1140.2308503,None,1139.0473286,1140.2473771999998,s,1,雄厚,l,0,0.48393720000012763,0.31789419999995516,ljx,f,20,2024_Apr_11_0927,mian,2021.2.3,59.93629970066453,
,,,,,,1,1,pic/flanker5.png,pic/flanker3.png,a,k,pic/AffRest3.png,,,,,,,,,,,,,,,,,,,,,,,,,0,2,2,2,0,21,21,68,,,,1143.080796,None,1141.8972661,1143.0974472999999,a,1,瑰丽,k,1,0.4749206999999842,0.46319900000003145,ljx,f,20,2024_Apr_11_0927,mian,2021.2.3,59.93629970066453,
,,,,,,1,1,pic/flanker5.png,pic/flanker3.png,a,k,pic/AffRest3.png,,,,,,,,,,,,,,,,,,,,,,,,,0,2,2,2,0,22,22,4,,,,1145.9807352,None,1144.7971436999999,1145.9973722,a,1,鲜艳,k,1,0.4399370999999519,0.40965349999987666,ljx,f,20,2024_Apr_11_0927,mian,2021.2.3,59.93629970066453,
,,,,,,1,0,pic/flanker5.png,pic/flanker3.png,a,l,pic/AffRest3.png,,,,,,,,,,,,,,,,,,,,,,,,,0,2,2,2,0,23,23,71,,,,1148.7974981,None,1147.6139527,1148.8141547,a,1,禁止,l,1,0.5464736000001267,0.42148659999998017,ljx,f,20,2024_Apr_11_0927,mian,2021.2.3,59.93629970066453,
,,,,,,0,1,pic/flanker5.png,pic/flanker1.png,s,k,pic/AffRest3.png,,,,,,,,,,,,,,,,,,,,,,,,,0,2,2,2,0,24,24,16,,,,1151.6303564999998,None,1150.4467298,1151.6469693,s,1,顽强,k,1,0.4505948000000899,0.4330985999999939,ljx,f,20,2024_Apr_11_0927,mian,2021.2.3,59.93629970066453,
,,,,,,1,1,pic/flanker5.png,pic/flanker3.png,a,k,pic/AffRest3.png,,,,,,,,,,,,,,,,,,,,,,,,,0,2,2,2,0,25,25,12,,,,1154.5799808,None,1153.397333,1154.5967226,a,1,珍藏,k,1,1.0571964999999182,0.4325714000001426,ljx,f,20,2024_Apr_11_0927,mian,2021.2.3,59.93629970066453,
,,,,,,1,1,pic/flanker5.png,pic/flanker3.png,a,k,pic/AffRest3.png,,,,,,,,,,,,,,,,,,,,,,,,,0,2,2,2,0,26,26,28,,,,1158.0639755,None,1156.8806169,1158.0806014,a,1,永恒,k,1,0.6251018000000386,0.5240876999998818,ljx,f,20,2024_Apr_11_0927,mian,2021.2.3,59.93629970066453,
,,,,,,0,0,pic/flanker6.png,pic/flanker2.png,a,l,pic/AffRest3.png,,,,,,,,,,,,,,,,,,,,,,,,,0,2,2,2,0,27,27,9,,,,1161.047414,None,1159.8640659999999,1161.0641087,a,1,郁闷,l,1,0.5144770999997945,0.334134499999891,ljx,f,20,2024_Apr_11_0927,mian,2021.2.3,59.93629970066453,
,,,,,,1,1,pic/flanker6.png,pic/flanker4.png,s,k,pic/AffRest3.png,,,,,,,,,,,,,,,,,,,,,,,,,0,2,2,2,0,28,28,14,,,,1163.9474862,None,1162.7637733,1163.9641672,s,1,精致,k,1,0.4536874999998872,0.42471580000005815,ljx,f,20,2024_Apr_11_0927,mian,2021.2.3,59.93629970066453,
,,,,,,0,0,pic/flanker5.png,pic/flanker1.png,s,l,pic/AffRest3.png,,,,,,,,,,,,,,,,,,,,,,,,,0,2,2,2,0,29,29,19,,,,1166.8973454,None,1165.7141663999998,1166.9140330999999,s,1,冷笑,l,1,0.5963143999999829,0.4544542999999521,ljx,f,20,2024_Apr_11_0927,mian,2021.2.3,59.93629970066453,
,,,,,,1,0,pic/flanker5.png,pic/flanker3.png,a,l,pic/AffRest3.png,,,,,,,,,,,,,,,,,,,,,,,,,0,2,2,2,0,30,30,79,,,,1169.8140125999998,None,1168.6305585999999,1169.8307459,a,1,失意,l,1,0.5289299000000938,0.43961259999991853,ljx,f,20,2024_Apr_11_0927,mian,2021.2.3,59.93629970066453,
,,,,,,0,0,pic/flanker6.png,pic/flanker2.png,a,l,pic/AffRest3.png,,,,,,,,,,,,,,,,,,,,,,,,,0,2,2,2,0,31,31,73,,,,1172.6305853,None,1171.4472876,1172.6472534,a,1,黑暗,l,1,0.5188782000000174,0.3041779999998653,ljx,f,20,2024_Apr_11_0927,mian,2021.2.3,59.93629970066453,
,,,,,,0,1,pic/flanker5.png,pic/flanker1.png,s,k,pic/AffRest3.png,,,,,,,,,,,,,,,,,,,,,,,,,0,2,2,2,0,32,32,8,,,,1175.4306927999999,None,1174.2472086999999,1175.4472727999998,s,1,富足,k,1,0.38627630000019053,0.4042572000000746,ljx,f,20,2024_Apr_11_0927,mian,2021.2.3,59.93629970066453,
,,,,,,0,0,pic/flanker6.png,pic/flanker2.png,a,l,pic/AffRest3.png,,,,,,,,,,,,,,,,,,,,,,,,,0,2,2,2,0,33,33,41,,,,1178.2973342999999,None,1177.114016,1178.3141772,a,1,处罚,l,1,0.4576210000000174,0.33650299999999334,ljx,f,20,2024_Apr_11_0927,mian,2021.2.3,59.93629970066453,
,,,,,,1,0,pic/flanker5.png,pic/flanker3.png,a,l,pic/AffRest3.png,,,,,,,,,,,,,,,,,,,,,,,,,0,2,2,2,0,34,34,7,,,,1181.164033,None,1179.9806362,1181.1807108,a,1,鲁莽,k,0,0.43210580000004484,0.4322399999998652,ljx,f,20,2024_Apr_11_0927,mian,2021.2.3,59.93629970066453,
,,,,,,0,1,pic/flanker5.png,pic/flanker1.png,s,k,pic/AffRest3.png,,,,,,,,,,,,,,,,,,,,,,,,,0,2,2,2,0,35,35,64,,,,1183.897267,None,1182.7139362,1183.9140121,s,1,畅销,k,1,0.42341929999997774,0.3722777999998925,ljx,f,20,2024_Apr_11_0927,mian,2021.2.3,59.93629970066453,
,,,,,,0,1,pic/flanker6.png,pic/flanker2.png,a,k,pic/AffRest3.png,,,,,,,,,,,,,,,,,,,,,,,,,0,2,2,2,0,36,36,74,,,,1186.5974257,None,1185.413928,1186.6140331,a,1,典雅,k,1,0.4568873999999141,0.33295780000003106,ljx,f,20,2024_Apr_11_0927,mian,2021.2.3,59.93629970066453,
,,,,,,0,1,pic/flanker5.png,pic/flanker1.png,s,k,pic/AffRest3.png,,,,,,,,,,,,,,,,,,,,,,,,,0,2,2,2,0,37,37,48,,,,1189.3639464999999,None,1188.1807583,1189.3806313999999,s,1,公平,k,1,0.4583099999999831,0.348253300000124,ljx,f,20,2024_Apr_11_0927,mian,2021.2.3,59.93629970066453,
,,,,,,1,1,pic/flanker6.png,pic/flanker4.png,s,k,pic/AffRest3.png,,,,,,,,,,,,,,,,,,,,,,,,,0,2,2,2,0,38,38,6,,,,1192.1473631,None,1190.964152,1192.1641250999999,s,1,舒畅,k,1,0.671670499999891,0.47293169999989004,ljx,f,20,2024_Apr_11_0927,mian,2021.2.3,59.93629970066453,
,,,,,,0,1,pic/flanker6.png,pic/flanker2.png,a,k,pic/AffRest3.png,,,,,,,,,,,,,,,,,,,,,,,,,0,2,2,2,0,39,39,26,,,,1195.3307886,None,1194.1472933,1195.3473843,a,1,诚恳,k,1,0.5261050000001433,0.31046010000000024,ljx,f,20,2024_Apr_11_0927,mian,2021.2.3,59.93629970066453,
,,,,,,1,0,pic/flanker6.png,pic/flanker4.png,s,l,pic/AffRest3.png,,,,,,,,,,,,,,,,,,,,,,,,,0,2,2,2,0,40,40,37,,,,1197.9975517999999,None,1196.8140698,1198.0141701999999,s,1,丢失,l,1,0.7062318999999206,0.418851899999936,ljx,f,20,2024_Apr_11_0927,mian,2021.2.3,59.93629970066453,
,,,,,,1,0,pic/flanker5.png,pic/flanker3.png,a,l,pic/AffRest3.png,,,,,,,,,,,,,,,,,,,,,,,,,0,2,2,2,0,41,41,55,,,,1200.964239,None,1199.7807046,1200.9808718,a,1,心慌,l,1,0.5124653000000308,0.42042560000004414,ljx,f,20,2024_Apr_11_0927,mian,2021.2.3,59.93629970066453,
,,,,,,0,0,pic/flanker6.png,pic/flanker2.png,a,l,pic/AffRest3.png,,,,,,,,,,,,,,,,,,,,,,,,,0,2,2,2,0,42,42,65,,,,1203.9474011,None,1202.7638835,1203.9640926,a,1,撒谎,k,0,0.5922917000000325,0.7734262999999828,ljx,f,20,2024_Apr_11_0927,mian,2021.2.3,59.93629970066453,
,,,,,,1,0,pic/flanker5.png,pic/flanker3.png,a,l,pic/AffRest3.png,,,,,,,,,,,,,,,,,,,,,,,,,0,2,2,2,0,43,43,31,,,,1207.3807476,None,1206.197352,1207.3973292,a,1,孤单,l,1,0.5437597000000096,0.4318355000000338,ljx,f,20,2024_Apr_11_0927,mian,2021.2.3,59.93629970066453,
,,,,,,1,0,pic/flanker6.png,pic/flanker4.png,s,l,pic/AffRest3.png,,,,,,,,,,,,,,,,,,,,,,,,,0,2,2,2,0,44,44,29,,,,1210.2141688,None,1209.0308038,1210.2308125,s,1,落后,l,1,0.45786659999998847,0.4579324000001179,ljx,f,20,2024_Apr_11_0927,mian,2021.2.3,59.93629970066453,
,,,,,,0,1,pic/flanker5.png,pic/flanker1.png,s,k,pic/AffRest3.png,,,,,,,,,,,,,,,,,,,,,,,,,0,2,2,2,0,45,45,24,,,,1212.9639574999999,None,1211.7806248,1212.9807174999999,s,1,豪放,k,1,0.5328597000000173,0.8899760999997852,ljx,f,20,2024_Apr_11_0927,mian,2021.2.3,59.93629970066453,
,,,,,,1,1,pic/flanker6.png,pic/flanker4.png,s,k,pic/AffRest3.png,,,,,,,,,,,,,,,,,,,,,,,,,0,2,2,2,0,46,46,62,,,,1216.3805074,None,1215.1974055,1216.3973078,s,1,正直,k,1,0.456596399999853,0.4027317000000039,ljx,f,20,2024_Apr_11_0927,mian,2021.2.3,59.93629970066453,
,,,,,,1,0,pic/flanker5.png,pic/flanker3.png,a,l,pic/AffRest3.png,,,,,,,,,,,,,,,,,,,,,,,,,0,2,2,2,0,47,47,47,,,,1219.0972067999999,None,1217.9139834,1219.1141788999998,a,1,排斥,l,1,0.8178456000000551,0.4356844000001274,ljx,f,20,2024_Apr_11_0927,mian,2021.2.3,59.93629970066453,
,,,,,,0,0,pic/flanker5.png,pic/flanker1.png,s,l,pic/AffRest3.png,,,,,,,,,,,,,,,,,,,,,,,,,0,2,2,2,0,48,48,27,,,,1222.2141313,None,1221.0307403,1222.2306503,s,1,懒惰,l,1,0.4666987999999037,0.33820009999999456,ljx,f,20,2024_Apr_11_0927,mian,2021.2.3,59.93629970066453,
,,,,,,0,1,pic/flanker6.png,pic/flanker2.png,a,k,pic/AffRest3.png,,,,,,,,,,,,,,,,,,,,,,,,,0,2,2,2,0,49,49,2,,,,1224.9471452,None,1223.763923,1224.9641102,a,1,秀丽,k,1,0.5311704000000645,0.36772019999989425,ljx,f,20,2024_Apr_11_0927,mian,2021.2.3,59.93629970066453,
,,,,,,0,0,pic/flanker6.png,pic/flanker2.png,a,l,pic/AffRest3.png,,,,,,,,,,,,,,,,,,,,,,,,,0,2,2,2,0,50,50,25,,,,1227.7142184,None,1226.5306005,1227.7308397,a,1,沮丧,l,1,0.4291433999999299,0.3600483999998687,ljx,f,20,2024_Apr_11_0927,mian,2021.2.3,59.93629970066453,
,,,,,,1,0,pic/flanker6.png,pic/flanker4.png,s,l,pic/AffRest3.png,,,,,,,,,,,,,,,,,,,,,,,,,0,2,2,2,0,51,51,21,,,,1230.4474937999998,None,1229.2640003,1230.4640613,s,1,胡涂,l,1,0.6236784000000171,0.4322374000000764,ljx,f,20,2024_Apr_11_0927,mian,2021.2.3,59.93629970066453,
,,,,,,0,0,pic/flanker6.png,pic/flanker2.png,a,l,pic/AffRest3.png,,,,,,,,,,,,,,,,,,,,,,,,,0,2,2,2,0,52,52,57,,,,1233.4307453,None,1232.2473207,1233.4473365,a,1,消沉,l,1,0.5592028999999457,0.331799300000057,ljx,f,20,2024_Apr_11_0927,mian,2021.2.3,59.93629970066453,
,,,,,,1,1,pic/flanker6.png,pic/flanker4.png,s,k,pic/AffRest3.png,,,,,,,,,,,,,,,,,,,,,,,,,0,2,2,2,0,53,53,70,,,,1236.2640460999999,None,1235.0805963,1236.2807656,s,1,振作,k,1,0.6509094999998979,0.6710659000000305,ljx,f,20,2024_Apr_11_0927,mian,2021.2.3,59.93629970066453,
,,,,,,1,0,pic/flanker6.png,pic/flanker4.png,s,l,pic/AffRest3.png,,,,,,,,,,,,,,,,,,,,,,,,,0,2,2,2,0,54,54,53,,,,1239.4140361,None,1238.2306971,1239.4307502,s,1,慌忙,l,1,1.9407300999998824,0.5372546999999486,ljx,f,20,2024_Apr_11_0927,mian,2021.2.3,59.93629970066453,
,,,,,,0,1,pic/flanker5.png,pic/flanker1.png,s,k,pic/AffRest3.png,,,,,,,,,,,,,,,,,,,,,,,,,0,2,2,2,0,55,55,56,,,,1243.7974264,None,1242.6140007,1243.8139542,s,1,热切,k,1,0.5380452000001696,0.3915102000000843,ljx,f,20,2024_Apr_11_0927,mian,2021.2.3,59.93629970066453,
,,,,,,0,0,pic/flanker5.png,pic/flanker1.png,s,l,pic/AffRest3.png,,,,,,,,,,,,,,,,,,,,,,,,,0,2,2,2,0,56,56,3,,,,1246.5972866,None,1245.4137802,1246.614038,s,1,浪费,l,1,0.44179299999996147,0.3409185000000434,ljx,f,20,2024_Apr_11_0927,mian,2021.2.3,59.93629970066453,
,,,,,,0,1,pic/flanker6.png,pic/flanker2.png,a,k,pic/AffRest3.png,,,,,,,,,,,,,,,,,,,,,,,,,0,2,2,2,0,57,57,42,,,,1249.4142259999999,None,1248.2307292,1249.4308549999998,a,1,清秀,k,1,0.5768953000001602,0.2712567000000945,ljx,f,20,2024_Apr_11_0927,mian,2021.2.3,59.93629970066453,
,,,,,,1,0,pic/flanker5.png,pic/flanker3.png,a,l,pic/AffRest3.png,,,,,,,,,,,,,,,,,,,,,,,,,0,2,2,2,0,58,58,63,,,,1252.2975065,None,1251.1142052,1252.3141240999998,a,1,闷热,l,1,0.5390431000000717,0.47273150000000896,ljx,f,20,2024_Apr_11_0927,mian,2021.2.3,59.93629970066453,
,,,,,,0,0,pic/flanker5.png,pic/flanker1.png,s,l,pic/AffRest3.png,,,,,,,,,,,,,,,,,,,,,,,,,0,2,2,2,0,59,59,75,,,,1255.2808748,None,1254.0975269,1255.2970625,s,1,轻率,l,1,0.6992800000000443,0.2949403000000075,ljx,f,20,2024_Apr_11_0927,mian,2021.2.3,59.93629970066453,
,,,,,,1,0,pic/flanker6.png,pic/flanker4.png,s,l,pic/AffRest3.png,,,,,,,,,,,,,,,,,,,,,,,,,0,2,2,2,0,60,60,45,,,,1258.1808569999998,None,1256.9972745999999,1258.1973713999998,s,1,争吵,l,1,0.5839037000000644,0.4482043000000431,ljx,f,20,2024_Apr_11_0927,mian,2021.2.3,59.93629970066453,
,,,,,,0,1,pic/flanker6.png,pic/flanker2.png,a,k,pic/AffRest3.png,,,,,,,,,,,,,,,,,,,,,,,,,0,2,2,2,0,61,61,58,,,,1261.1807924,None,1259.9974905,1261.1973966,a,1,如愿,k,1,0.9730153000000428,0.3316350000000057,ljx,f,20,2024_Apr_11_0927,mian,2021.2.3,59.93629970066453,
,,,,,,0,1,pic/flanker6.png,pic/flanker2.png,a,k,pic/AffRest3.png,,,,,,,,,,,,,,,,,,,,,,,,,0,2,2,2,0,62,62,50,,,,1264.3809145999999,None,1263.1970508,1264.3975388,a,1,生动,k,1,0.554813299999978,0.33953919999999016,ljx,f,20,2024_Apr_11_0927,mian,2021.2.3,59.93629970066453,
,,,,,,0,0,pic/flanker5.png,pic/flanker1.png,s,l,pic/AffRest3.png,,,,,,,,,,,,,,,,,,,,,,,,,0,2,2,2,0,63,63,67,,,,1267.3308372,None,1266.1474117999999,1267.3474363999999,s,1,别扭,l,1,0.5607425000000603,0.39426129999992554,ljx,f,20,2024_Apr_11_0927,mian,2021.2.3,59.93629970066453,
,,,,,,0,0,pic/flanker6.png,pic/flanker2.png,a,l,pic/AffRest3.png,,,,,,,,,,,,,,,,,,,,,,,,,0,2,2,2,0,64,64,1,,,,1270.2142165999999,None,1269.0306530999999,1270.2309194,a,1,嘲笑,l,1,0.6606228000000556,0.3639622999999119,ljx,f,20,2024_Apr_11_0927,mian,2021.2.3,59.93629970066453,
,,,,,,0,1,pic/flanker6.png,pic/flanker2.png,a,k,pic/AffRest3.png,,,,,,,,,,,,,,,,,,,,,,,,,0,2,2,2,0,65,65,34,,,,1273.0975529999998,None,1271.9140149999998,1273.1142256,a,1,赞成,k,1,0.609345299999859,0.3152385000000777,ljx,f,20,2024_Apr_11_0927,mian,2021.2.3,59.93629970066453,
,,,,,,1,0,pic/flanker6.png,pic/flanker4.png,s,l,pic/AffRest3.png,,,,,,,,,,,,,,,,,,,,,,,,,0,2,2,2,0,66,66,69,,,,1275.9474033,None,1274.7640881999998,1275.9640857,s,1,穷苦,l,1,0.4941319999998086,0.48015650000002097,ljx,f,20,2024_Apr_11_0927,mian,2021.2.3,59.93629970066453,
,,,,,,0,1,pic/flanker5.png,pic/flanker1.png,s,k,pic/AffRest3.png,,,,,,,,,,,,,,,,,,,,,,,,,0,2,2,2,0,67,67,40,,,,1278.8140826,None,1277.6307505,1278.8307026,s,1,充裕,k,1,0.7285057999999935,0.39682569999990847,ljx,f,20,2024_Apr_11_0927,mian,2021.2.3,59.93629970066453,
,,,,,,1,1,pic/flanker6.png,pic/flanker4.png,s,k,pic/AffRest3.png,,,,,,,,,,,,,,,,,,,,,,,,,0,2,2,2,0,68,68,78,,,,1281.9141588999998,None,1280.730703,1281.9307622,s,1,有利,k,1,0.5228835000000345,0.4603440999999293,ljx,f,20,2024_Apr_11_0927,mian,2021.2.3,59.93629970066453,
,,,,,,0,0,pic/flanker5.png,pic/flanker1.png,s,l,pic/AffRest3.png,,,,,,,,,,,,,,,,,,,,,,,,,0,2,2,2,0,69,69,35,,,,1284.8975853,None,1283.7140871,1284.9142226,s,1,逃避,l,1,0.5699037000001681,0.36442620000002535,ljx,f,20,2024_Apr_11_0927,mian,2021.2.3,59.93629970066453,
,,,,,,0,1,pic/flanker6.png,pic/flanker2.png,a,k,pic/AffRest3.png,,,,,,,,,,,,,,,,,,,,,,,,,0,2,2,2,0,70,70,18,,,,1287.8975527999999,None,1286.7140997,1287.914214,a,1,前进,k,1,0.46464670000000297,0.3200166999999965,ljx,f,20,2024_Apr_11_0927,mian,2021.2.3,59.93629970066453,
,,,,,,0,1,pic/flanker5.png,pic/flanker1.png,s,k,pic/AffRest3.png,,,,,,,,,,,,,,,,,,,,,,,,,0,2,2,2,0,71,71,32,,,,1290.680388,None,1289.4973539999999,1290.6971360999999,s,1,奉献,k,1,0.5841090000001259,0.3370505000000321,ljx,f,20,2024_Apr_11_0927,mian,2021.2.3,59.93629970066453,
,,,,,,0,0,pic/flanker6.png,pic/flanker2.png,a,l,pic/AffRest3.png,,,,,,,,,,,,,,,,,,,,,,,,,0,2,2,2,0,72,72,17,,,,1293.5640894,None,1292.3809049,1293.580773,a,1,怀疑,l,1,0.4699465000001055,0.3669078000000354,ljx,f,20,2024_Apr_11_0927,mian,2021.2.3,59.93629970066453,
,,,,,,0,0,pic/flanker5.png,pic/flanker1.png,s,l,pic/AffRest3.png,,,,,,,,,,,,,,,,,,,,,,,,,0,2,2,2,0,73,73,59,,,,1296.4475734,None,1295.2640738999999,1296.464223,s,1,伤心,l,1,0.4912521999999626,0.46912889999998697,ljx,f,20,2024_Apr_11_0927,mian,2021.2.3,59.93629970066453,
,,,,,,1,1,pic/flanker5.png,pic/flanker3.png,a,k,pic/AffRest3.png,,,,,,,,,,,,,,,,,,,,,,,,,0,2,2,2,0,74,74,36,,,,1299.2807452,None,1298.0973214,1299.2969053,a,1,吉祥,k,1,0.5739349999998922,0.44467439999993985,ljx,f,20,2024_Apr_11_0927,mian,2021.2.3,59.93629970066453,
,,,,,,1,1,pic/flanker5.png,pic/flanker3.png,a,k,pic/AffRest3.png,,,,,,,,,,,,,,,,,,,,,,,,,0,2,2,2,0,75,75,44,,,,1302.2969131999998,None,1301.1139572,1302.3140208,a,1,圣洁,k,1,0.4780837999999221,0.4699717999999393,ljx,f,20,2024_Apr_11_0927,mian,2021.2.3,59.93629970066453,
,,,,,,1,1,pic/flanker5.png,pic/flanker3.png,a,k,pic/AffRest3.png,,,,,,,,,,,,,,,,,,,,,,,,,0,2,2,2,0,76,76,52,,,,1305.2977153,None,1304.113959,1305.3142867,a,1,爽朗,k,1,0.46214949999989585,0.44335590000014236,ljx,f,20,2024_Apr_11_0927,mian,2021.2.3,59.93629970066453,
,,,,,,0,0,pic/flanker6.png,pic/flanker2.png,a,l,pic/AffRest3.png,,,,,,,,,,,,,,,,,,,,,,,,,0,2,2,2,0,77,77,33,,,,1308.1634907999999,None,1306.9807031,1308.1801423,a,1,堵塞,l,1,0.5367080000000897,0.3363621000000876,ljx,f,20,2024_Apr_11_0927,mian,2021.2.3,59.93629970066453,
,,,,,,1,1,pic/flanker6.png,pic/flanker4.png,s,k,pic/AffRest3.png,,,,,,,,,,,,,,,,,,,,,,,,,0,2,2,2,0,78,78,22,,,,1310.8803767,None,1309.6968878999999,1310.8970109,s,1,享受,k,1,0.5029402000000118,0.4343426000000363,ljx,f,20,2024_Apr_11_0927,mian,2021.2.3,59.93629970066453,
,,,,,,1,0,pic/flanker6.png,pic/flanker4.png,s,l,pic/AffRest3.png,,,,,,,,,,,,,,,,,,,,,,,,,0,2,2,2,0,79,79,77,,,,1313.7639946,None,1312.5803845,1313.7808215999999,s,1,损害,l,1,0.473628299999973,0.4477650999999696,ljx,f,20,2024_Apr_11_0927,mian,2021.2.3,59.93629970066453,
,,,,,,,,,,,,pic/AffRest3.png,,,,,,,,,,,,,,,,,,,,,,,,,0,2,2,2,,,,,,,,,,,,,,,,,,,ljx,f,20,2024_Apr_11_0927,mian,2021.2.3,59.93629970066453,
