target,反应类型,条件,truetarget,CorAns,Position,congruency,AffValue,flankerPic,targetPic,corAnsF,corAnsA,RestPic,returnPractice.thisRepN,returnPractice.thisTrialN,returnPractice.thisN,returnPractice.thisIndex,pracNum.thisRepN,pracNum.thisTrialN,pracNum.thisN,pracNum.thisIndex,NumBlock1.thisRepN,NumBlock1.thisTrialN,NumBlock1.thisN,NumBlock1.thisIndex,NumBlock2.thisRepN,NumBlock2.thisTrialN,NumBlock2.thisN,NumBlock2.thisIndex,returnPrac.thisRepN,returnPrac.thisTrialN,returnPrac.thisN,returnPrac.thisIndex,PracAff.thisRepN,PracAff.thisTrialN,PracAff.thisN,PracAff.thisIndex,AffBlocks.thisRepN,AffBlocks.thisTrialN,AffBlocks.thisN,AffBlocks.thisIndex,AffBlock1.thisRepN,AffBlock1.thisTrialN,AffBlock1.thisN,AffBlock1.thisIndex,respNum2word.keys,respNum2word.corr,respNum2word.rt,text.started,text.stopped,blank.started,blank.stopped,respFlanker.keys,respFlanker.corr,thisWord,respAffWord.keys,respAffWord.corr,respAffWord.rt,respFlanker.rt,姓名,性别,年龄（周岁）,date,expName,psychopyVersion,frameRate,
2A,1,1,A,a,"[0.2, 0.2]",,,,,,,,0,0,0,0,0,0,0,0,,,,,,,,,,,,,,,,,,,,,,,,,l,0,2.300173799994809,,,,,,,,,,,,sja,m,21,2024_Apr_18_1838,mian,2021.2.3,60.15576734215231,
A9,1,2,A,a,"[-0.2, 0.2]",,,,,,,,0,0,0,0,0,1,1,1,,,,,,,,,,,,,,,,,,,,,,,,,a,1,3.337670299995807,,,,,,,,,,,,sja,m,21,2024_Apr_18_1838,mian,2021.2.3,60.15576734215231,
7e,2,1,7.0,a,"[-0.2, -0.2]",,,,,,,,0,0,0,0,0,2,2,2,,,,,,,,,,,,,,,,,,,,,,,,,None,0,,,,,,,,,,,,,sja,m,21,2024_Apr_18_1838,mian,2021.2.3,60.15576734215231,
9H,2,2,9.0,a,"[0.2, -0.2]",,,,,,,,0,0,0,0,0,3,3,3,,,,,,,,,,,,,,,,,,,,,,,,,a,1,4.401159000000916,,,,,,,,,,,,sja,m,21,2024_Apr_18_1838,mian,2021.2.3,60.15576734215231,
h4,1,1,h,l,"[0.2, 0.2]",,,,,,,,0,0,0,0,0,4,4,4,,,,,,,,,,,,,,,,,,,,,,,,,a,0,0.2711951999954181,,,,,,,,,,,,sja,m,21,2024_Apr_18_1838,mian,2021.2.3,60.15576734215231,
4H,1,2,H,a,"[-0.2, 0.2]",,,,,,,,0,0,0,0,0,5,5,5,,,,,,,,,,,,,,,,,,,,,,,,,None,0,,,,,,,,,,,,,sja,m,21,2024_Apr_18_1838,mian,2021.2.3,60.15576734215231,
F8,2,1,8.0,l,"[-0.2, -0.2]",,,,,,,,0,0,0,0,0,6,6,6,,,,,,,,,,,,,,,,,,,,,,,,,a,0,1.1595046000002185,,,,,,,,,,,,sja,m,21,2024_Apr_18_1838,mian,2021.2.3,60.15576734215231,
h7,2,2,7.0,a,"[0.2, -0.2]",,,,,,,,0,0,0,0,0,7,7,7,,,,,,,,,,,,,,,,,,,,,,,,,a,1,2.0474147999993875,,,,,,,,,,,,sja,m,21,2024_Apr_18_1838,mian,2021.2.3,60.15576734215231,
5e,1,1,e,l,"[0.2, 0.2]",,,,,,,,0,0,0,0,0,8,8,8,,,,,,,,,,,,,,,,,,,,,,,,,a,0,0.07250679999560816,,,,,,,,,,,,sja,m,21,2024_Apr_18_1838,mian,2021.2.3,60.15576734215231,
e8,1,2,e,l,"[-0.2, 0.2]",,,,,,,,0,0,0,0,0,9,9,9,,,,,,,,,,,,,,,,,,,,,,,,,a,0,0.1993810999993002,,,,,,,,,,,,sja,m,21,2024_Apr_18_1838,mian,2021.2.3,60.15576734215231,
4E,2,1,4.0,l,"[-0.2, -0.2]",,,,,,,,0,0,0,0,0,10,10,10,,,,,,,,,,,,,,,,,,,,,,,,,a,0,2.9860812999977497,,,,,,,,,,,,sja,m,21,2024_Apr_18_1838,mian,2021.2.3,60.15576734215231,
5H,2,2,5.0,a,"[0.2, -0.2]",,,,,,,,0,0,0,0,0,11,11,11,,,,,,,,,,,,,,,,,,,,,,,,,a,1,0.10606790000019828,,,,,,,,,,,,sja,m,21,2024_Apr_18_1838,mian,2021.2.3,60.15576734215231,
9E,1,1,E,a,"[0.2, 0.2]",,,,,,,,0,0,0,0,0,12,12,12,,,,,,,,,,,,,,,,,,,,,,,,,a,1,0.08355409999785479,,,,,,,,,,,,sja,m,21,2024_Apr_18_1838,mian,2021.2.3,60.15576734215231,
h9,1,2,h,l,"[-0.2, 0.2]",,,,,,,,0,0,0,0,0,13,13,13,,,,,,,,,,,,,,,,,,,,,,,,,a,0,0.07751949999510543,,,,,,,,,,,,sja,m,21,2024_Apr_18_1838,mian,2021.2.3,60.15576734215231,
2a,2,1,2.0,l,"[-0.2, -0.2]",,,,,,,,0,0,0,0,0,14,14,14,,,,,,,,,,,,,,,,,,,,,,,,,a,0,0.10859979999804636,,,,,,,,,,,,sja,m,21,2024_Apr_18_1838,mian,2021.2.3,60.15576734215231,
e5,2,2,5.0,a,"[0.2, -0.2]",,,,,,,,0,0,0,0,0,15,15,15,,,,,,,,,,,,,,,,,,,,,,,,,a,1,0.21240389999729814,,,,,,,,,,,,sja,m,21,2024_Apr_18_1838,mian,2021.2.3,60.15576734215231,
A5,1,1,A,a,"[0.2, 0.2]",,,,,,,,0,0,0,0,0,16,16,16,,,,,,,,,,,,,,,,,,,,,,,,,a,1,0.19021079999947688,,,,,,,,,,,,sja,m,21,2024_Apr_18_1838,mian,2021.2.3,60.15576734215231,
a6,1,2,a,l,"[-0.2, 0.2]",,,,,,,,0,0,0,0,0,17,17,17,,,,,,,,,,,,,,,,,,,,,,,,,a,0,0.2029467000029399,,,,,,,,,,,,sja,m,21,2024_Apr_18_1838,mian,2021.2.3,60.15576734215231,
2F,2,1,2.0,l,"[-0.2, -0.2]",,,,,,,,0,0,0,0,0,18,18,18,,,,,,,,,,,,,,,,,,,,,,,,,a,0,0.023881799999799114,,,,,,,,,,,,sja,m,21,2024_Apr_18_1838,mian,2021.2.3,60.15576734215231,
e4,2,2,4.0,l,"[0.2, -0.2]",,,,,,,,0,0,0,0,0,19,19,19,,,,,,,,,,,,,,,,,,,,,,,,,a,0,0.0006778000024496578,,,,,,,,,,,,sja,m,21,2024_Apr_18_1838,mian,2021.2.3,60.15576734215231,
,,,,,,,,,,,,,0,0,0,0,,,,,,,,,,,,,,,,,,,,,,,,,,,,,,,,,,,,,,,,,,,sja,m,21,2024_Apr_18_1838,mian,2021.2.3,60.15576734215231,
2A,1,1,A,a,"[0.2, 0.2]",,,,,,,,1,0,1,0,0,0,0,0,,,,,,,,,,,,,,,,,,,,,,,,,a,1,2.221638700000767,,,,,,,,,,,,sja,m,21,2024_Apr_18_1838,mian,2021.2.3,60.15576734215231,
A9,1,2,A,a,"[-0.2, 0.2]",,,,,,,,1,0,1,0,0,1,1,1,,,,,,,,,,,,,,,,,,,,,,,,,a,1,0.7659038999991026,,,,,,,,,,,,sja,m,21,2024_Apr_18_1838,mian,2021.2.3,60.15576734215231,
7e,2,1,7.0,a,"[-0.2, -0.2]",,,,,,,,1,0,1,0,0,2,2,2,,,,,,,,,,,,,,,,,,,,,,,,,a,1,2.3799849999995786,,,,,,,,,,,,sja,m,21,2024_Apr_18_1838,mian,2021.2.3,60.15576734215231,
9H,2,2,9.0,a,"[0.2, -0.2]",,,,,,,,1,0,1,0,0,3,3,3,,,,,,,,,,,,,,,,,,,,,,,,,a,1,0.818213200000173,,,,,,,,,,,,sja,m,21,2024_Apr_18_1838,mian,2021.2.3,60.15576734215231,
h4,1,1,h,l,"[0.2, 0.2]",,,,,,,,1,0,1,0,0,4,4,4,,,,,,,,,,,,,,,,,,,,,,,,,l,1,2.500912600000447,,,,,,,,,,,,sja,m,21,2024_Apr_18_1838,mian,2021.2.3,60.15576734215231,
4H,1,2,H,a,"[-0.2, 0.2]",,,,,,,,1,0,1,0,0,5,5,5,,,,,,,,,,,,,,,,,,,,,,,,,a,1,2.4384321000034106,,,,,,,,,,,,sja,m,21,2024_Apr_18_1838,mian,2021.2.3,60.15576734215231,
F8,2,1,8.0,l,"[-0.2, -0.2]",,,,,,,,1,0,1,0,0,6,6,6,,,,,,,,,,,,,,,,,,,,,,,,,l,1,0.9415064999993774,,,,,,,,,,,,sja,m,21,2024_Apr_18_1838,mian,2021.2.3,60.15576734215231,
h7,2,2,7.0,a,"[0.2, -0.2]",,,,,,,,1,0,1,0,0,7,7,7,,,,,,,,,,,,,,,,,,,,,,,,,a,1,0.7346583000035025,,,,,,,,,,,,sja,m,21,2024_Apr_18_1838,mian,2021.2.3,60.15576734215231,
5e,1,1,e,l,"[0.2, 0.2]",,,,,,,,1,0,1,0,0,8,8,8,,,,,,,,,,,,,,,,,,,,,,,,,l,1,1.734189000002516,,,,,,,,,,,,sja,m,21,2024_Apr_18_1838,mian,2021.2.3,60.15576734215231,
e8,1,2,e,l,"[-0.2, 0.2]",,,,,,,,1,0,1,0,0,9,9,9,,,,,,,,,,,,,,,,,,,,,,,,,l,1,0.6127279000065755,,,,,,,,,,,,sja,m,21,2024_Apr_18_1838,mian,2021.2.3,60.15576734215231,
4E,2,1,4.0,l,"[-0.2, -0.2]",,,,,,,,1,0,1,0,0,10,10,10,,,,,,,,,,,,,,,,,,,,,,,,,l,1,0.9845647999973153,,,,,,,,,,,,sja,m,21,2024_Apr_18_1838,mian,2021.2.3,60.15576734215231,
5H,2,2,5.0,a,"[0.2, -0.2]",,,,,,,,1,0,1,0,0,11,11,11,,,,,,,,,,,,,,,,,,,,,,,,,a,1,0.6159862000058638,,,,,,,,,,,,sja,m,21,2024_Apr_18_1838,mian,2021.2.3,60.15576734215231,
9E,1,1,E,a,"[0.2, 0.2]",,,,,,,,1,0,1,0,0,12,12,12,,,,,,,,,,,,,,,,,,,,,,,,,a,1,1.0308749000032549,,,,,,,,,,,,sja,m,21,2024_Apr_18_1838,mian,2021.2.3,60.15576734215231,
h9,1,2,h,l,"[-0.2, 0.2]",,,,,,,,1,0,1,0,0,13,13,13,,,,,,,,,,,,,,,,,,,,,,,,,l,1,0.61326239999471,,,,,,,,,,,,sja,m,21,2024_Apr_18_1838,mian,2021.2.3,60.15576734215231,
2a,2,1,2.0,l,"[-0.2, -0.2]",,,,,,,,1,0,1,0,0,14,14,14,,,,,,,,,,,,,,,,,,,,,,,,,l,1,1.4720442999969237,,,,,,,,,,,,sja,m,21,2024_Apr_18_1838,mian,2021.2.3,60.15576734215231,
e5,2,2,5.0,a,"[0.2, -0.2]",,,,,,,,1,0,1,0,0,15,15,15,,,,,,,,,,,,,,,,,,,,,,,,,a,1,0.5337209999997867,,,,,,,,,,,,sja,m,21,2024_Apr_18_1838,mian,2021.2.3,60.15576734215231,
A5,1,1,A,a,"[0.2, 0.2]",,,,,,,,1,0,1,0,0,16,16,16,,,,,,,,,,,,,,,,,,,,,,,,,a,1,2.17990060000011,,,,,,,,,,,,sja,m,21,2024_Apr_18_1838,mian,2021.2.3,60.15576734215231,
a6,1,2,a,l,"[-0.2, 0.2]",,,,,,,,1,0,1,0,0,17,17,17,,,,,,,,,,,,,,,,,,,,,,,,,l,1,0.7208907000022009,,,,,,,,,,,,sja,m,21,2024_Apr_18_1838,mian,2021.2.3,60.15576734215231,
2F,2,1,2.0,l,"[-0.2, -0.2]",,,,,,,,1,0,1,0,0,18,18,18,,,,,,,,,,,,,,,,,,,,,,,,,l,1,1.8122633999955724,,,,,,,,,,,,sja,m,21,2024_Apr_18_1838,mian,2021.2.3,60.15576734215231,
e4,2,2,4.0,l,"[0.2, -0.2]",,,,,,,,1,0,1,0,0,19,19,19,,,,,,,,,,,,,,,,,,,,,,,,,l,1,0.6050758999990649,,,,,,,,,,,,sja,m,21,2024_Apr_18_1838,mian,2021.2.3,60.15576734215231,
,,,,,,,,,,,,,1,0,1,0,,,,,,,,,,,,,,,,,,,,,,,,,,,,,,,,,,,,,,,,,,,sja,m,21,2024_Apr_18_1838,mian,2021.2.3,60.15576734215231,
7h,1,1,h,l,"[0.2, 0.2]",,,,,,,,,,,,,,,,0,0,0,0,,,,,,,,,,,,,,,,,,,,,l,1,4.257599100004882,,,,,,,,,,,,sja,m,21,2024_Apr_18_1838,mian,2021.2.3,60.15576734215231,
8F,1,2,F,a,"[-0.2, 0.2]",,,,,,,,,,,,,,,,0,1,1,1,,,,,,,,,,,,,,,,,,,,,a,1,1.2492154999999912,,,,,,,,,,,,sja,m,21,2024_Apr_18_1838,mian,2021.2.3,60.15576734215231,
8h,2,1,8.0,l,"[-0.2, -0.2]",,,,,,,,,,,,,,,,0,2,2,2,,,,,,,,,,,,,,,,,,,,,l,1,0.893669700002647,,,,,,,,,,,,sja,m,21,2024_Apr_18_1838,mian,2021.2.3,60.15576734215231,
a2,2,2,2.0,l,"[0.2, -0.2]",,,,,,,,,,,,,,,,0,3,3,3,,,,,,,,,,,,,,,,,,,,,l,1,1.1360717999996268,,,,,,,,,,,,sja,m,21,2024_Apr_18_1838,mian,2021.2.3,60.15576734215231,
8f,1,1,f,l,"[0.2, 0.2]",,,,,,,,,,,,,,,,0,4,4,4,,,,,,,,,,,,,,,,,,,,,l,1,1.7130670999977156,,,,,,,,,,,,sja,m,21,2024_Apr_18_1838,mian,2021.2.3,60.15576734215231,
6a,1,2,a,l,"[-0.2, 0.2]",,,,,,,,,,,,,,,,0,5,5,5,,,,,,,,,,,,,,,,,,,,,l,1,0.7405941000033636,,,,,,,,,,,,sja,m,21,2024_Apr_18_1838,mian,2021.2.3,60.15576734215231,
h6,2,1,6.0,l,"[-0.2, -0.2]",,,,,,,,,,,,,,,,0,6,6,6,,,,,,,,,,,,,,,,,,,,,l,1,0.6533896999972058,,,,,,,,,,,,sja,m,21,2024_Apr_18_1838,mian,2021.2.3,60.15576734215231,
f9,2,2,9.0,a,"[0.2, -0.2]",,,,,,,,,,,,,,,,0,7,7,7,,,,,,,,,,,,,,,,,,,,,a,1,1.2935161999994307,,,,,,,,,,,,sja,m,21,2024_Apr_18_1838,mian,2021.2.3,60.15576734215231,
E4,1,1,E,a,"[0.2, 0.2]",,,,,,,,,,,,,,,,0,8,8,8,,,,,,,,,,,,,,,,,,,,,a,1,1.3106803999980912,,,,,,,,,,,,sja,m,21,2024_Apr_18_1838,mian,2021.2.3,60.15576734215231,
6e,1,2,e,l,"[-0.2, 0.2]",,,,,,,,,,,,,,,,0,9,9,9,,,,,,,,,,,,,,,,,,,,,l,1,0.7322953999973834,,,,,,,,,,,,sja,m,21,2024_Apr_18_1838,mian,2021.2.3,60.15576734215231,
5G,2,1,5.0,a,"[-0.2, -0.2]",,,,,,,,,,,,,,,,0,10,10,10,,,,,,,,,,,,,,,,,,,,,a,1,1.7639173999996274,,,,,,,,,,,,sja,m,21,2024_Apr_18_1838,mian,2021.2.3,60.15576734215231,
h3,2,2,3.0,a,"[0.2, -0.2]",,,,,,,,,,,,,,,,0,11,11,11,,,,,,,,,,,,,,,,,,,,,a,1,0.9032168000048841,,,,,,,,,,,,sja,m,21,2024_Apr_18_1838,mian,2021.2.3,60.15576734215231,
9e,1,1,e,l,"[0.2, 0.2]",,,,,,,,,,,,,,,,0,12,12,12,,,,,,,,,,,,,,,,,,,,,l,1,4.305227699995157,,,,,,,,,,,,sja,m,21,2024_Apr_18_1838,mian,2021.2.3,60.15576734215231,
a8,1,2,a,l,"[-0.2, 0.2]",,,,,,,,,,,,,,,,0,13,13,13,,,,,,,,,,,,,,,,,,,,,l,1,0.48955419999401784,,,,,,,,,,,,sja,m,21,2024_Apr_18_1838,mian,2021.2.3,60.15576734215231,
e8,2,1,8.0,l,"[-0.2, -0.2]",,,,,,,,,,,,,,,,0,14,14,14,,,,,,,,,,,,,,,,,,,,,l,1,2.2756869999939227,,,,,,,,,,,,sja,m,21,2024_Apr_18_1838,mian,2021.2.3,60.15576734215231,
3f,2,2,3.0,a,"[0.2, -0.2]",,,,,,,,,,,,,,,,0,15,15,15,,,,,,,,,,,,,,,,,,,,,a,1,0.8845577999964007,,,,,,,,,,,,sja,m,21,2024_Apr_18_1838,mian,2021.2.3,60.15576734215231,
7f,1,1,f,l,"[0.2, 0.2]",,,,,,,,,,,,,,,,0,16,16,16,,,,,,,,,,,,,,,,,,,,,l,1,1.1637909000055515,,,,,,,,,,,,sja,m,21,2024_Apr_18_1838,mian,2021.2.3,60.15576734215231,
a7,1,2,a,l,"[-0.2, 0.2]",,,,,,,,,,,,,,,,0,17,17,17,,,,,,,,,,,,,,,,,,,,,l,1,0.9306538000018918,,,,,,,,,,,,sja,m,21,2024_Apr_18_1838,mian,2021.2.3,60.15576734215231,
5A,2,1,5.0,a,"[-0.2, -0.2]",,,,,,,,,,,,,,,,0,18,18,18,,,,,,,,,,,,,,,,,,,,,a,1,1.7427058999965084,,,,,,,,,,,,sja,m,21,2024_Apr_18_1838,mian,2021.2.3,60.15576734215231,
8g,2,2,8.0,l,"[0.2, -0.2]",,,,,,,,,,,,,,,,0,19,19,19,,,,,,,,,,,,,,,,,,,,,l,1,1.5295881999991252,,,,,,,,,,,,sja,m,21,2024_Apr_18_1838,mian,2021.2.3,60.15576734215231,
9a,1,1,a,l,"[0.2, 0.2]",,,,,,,,,,,,,,,,0,20,20,20,,,,,,,,,,,,,,,,,,,,,l,1,2.7906505999999354,,,,,,,,,,,,sja,m,21,2024_Apr_18_1838,mian,2021.2.3,60.15576734215231,
f7,1,2,f,l,"[-0.2, 0.2]",,,,,,,,,,,,,,,,0,21,21,21,,,,,,,,,,,,,,,,,,,,,a,0,2.248417699993297,,,,,,,,,,,,sja,m,21,2024_Apr_18_1838,mian,2021.2.3,60.15576734215231,
g9,2,1,9.0,a,"[-0.2, -0.2]",,,,,,,,,,,,,,,,0,22,22,22,,,,,,,,,,,,,,,,,,,,,a,1,2.3704566000014893,,,,,,,,,,,,sja,m,21,2024_Apr_18_1838,mian,2021.2.3,60.15576734215231,
3h,2,2,3.0,a,"[0.2, -0.2]",,,,,,,,,,,,,,,,0,23,23,23,,,,,,,,,,,,,,,,,,,,,a,1,0.7619596000004094,,,,,,,,,,,,sja,m,21,2024_Apr_18_1838,mian,2021.2.3,60.15576734215231,
E6,1,1,E,a,"[0.2, 0.2]",,,,,,,,,,,,,,,,0,24,24,24,,,,,,,,,,,,,,,,,,,,,a,1,0.7542786000049091,,,,,,,,,,,,sja,m,21,2024_Apr_18_1838,mian,2021.2.3,60.15576734215231,
F6,1,2,F,a,"[-0.2, 0.2]",,,,,,,,,,,,,,,,0,25,25,25,,,,,,,,,,,,,,,,,,,,,a,1,0.4430539000022691,,,,,,,,,,,,sja,m,21,2024_Apr_18_1838,mian,2021.2.3,60.15576734215231,
3A,2,1,3.0,a,"[-0.2, -0.2]",,,,,,,,,,,,,,,,0,26,26,26,,,,,,,,,,,,,,,,,,,,,a,1,0.5249461999992491,,,,,,,,,,,,sja,m,21,2024_Apr_18_1838,mian,2021.2.3,60.15576734215231,
8H,2,2,8.0,l,"[0.2, -0.2]",,,,,,,,,,,,,,,,0,27,27,27,,,,,,,,,,,,,,,,,,,,,l,1,0.6226775000031921,,,,,,,,,,,,sja,m,21,2024_Apr_18_1838,mian,2021.2.3,60.15576734215231,
5a,1,1,a,l,"[0.2, 0.2]",,,,,,,,,,,,,,,,0,28,28,28,,,,,,,,,,,,,,,,,,,,,l,1,1.7302666000032332,,,,,,,,,,,,sja,m,21,2024_Apr_18_1838,mian,2021.2.3,60.15576734215231,
2h,1,2,h,l,"[-0.2, 0.2]",,,,,,,,,,,,,,,,0,29,29,29,,,,,,,,,,,,,,,,,,,,,l,1,0.4671262000047136,,,,,,,,,,,,sja,m,21,2024_Apr_18_1838,mian,2021.2.3,60.15576734215231,
e5,2,1,5.0,a,"[-0.2, -0.2]",,,,,,,,,,,,,,,,0,30,30,30,,,,,,,,,,,,,,,,,,,,,l,0,1.500442299999122,,,,,,,,,,,,sja,m,21,2024_Apr_18_1838,mian,2021.2.3,60.15576734215231,
a3,2,2,3.0,a,"[0.2, -0.2]",,,,,,,,,,,,,,,,0,31,31,31,,,,,,,,,,,,,,,,,,,,,a,1,3.385728900000686,,,,,,,,,,,,sja,m,21,2024_Apr_18_1838,mian,2021.2.3,60.15576734215231,
f3,1,1,f,l,"[0.2, 0.2]",,,,,,,,,,,,,,,,0,32,32,32,,,,,,,,,,,,,,,,,,,,,None,0,,,,,,,,,,,,,sja,m,21,2024_Apr_18_1838,mian,2021.2.3,60.15576734215231,
2E,1,2,E,a,"[-0.2, 0.2]",,,,,,,,,,,,,,,,0,33,33,33,,,,,,,,,,,,,,,,,,,,,a,1,1.3996022999999695,,,,,,,,,,,,sja,m,21,2024_Apr_18_1838,mian,2021.2.3,60.15576734215231,
2H,2,1,2.0,l,"[-0.2, -0.2]",,,,,,,,,,,,,,,,0,34,34,34,,,,,,,,,,,,,,,,,,,,,l,1,1.1158837999973912,,,,,,,,,,,,sja,m,21,2024_Apr_18_1838,mian,2021.2.3,60.15576734215231,
H8,2,2,8.0,l,"[0.2, -0.2]",,,,,,,,,,,,,,,,0,35,35,35,,,,,,,,,,,,,,,,,,,,,l,1,0.40678530000150204,,,,,,,,,,,,sja,m,21,2024_Apr_18_1838,mian,2021.2.3,60.15576734215231,
9g,1,1,g,l,"[0.2, 0.2]",,,,,,,,,,,,,,,,0,36,36,36,,,,,,,,,,,,,,,,,,,,,l,1,1.889662599998701,,,,,,,,,,,,sja,m,21,2024_Apr_18_1838,mian,2021.2.3,60.15576734215231,
5h,1,2,h,l,"[-0.2, 0.2]",,,,,,,,,,,,,,,,0,37,37,37,,,,,,,,,,,,,,,,,,,,,l,1,0.6792410999987624,,,,,,,,,,,,sja,m,21,2024_Apr_18_1838,mian,2021.2.3,60.15576734215231,
e4,2,1,4.0,l,"[-0.2, -0.2]",,,,,,,,,,,,,,,,0,38,38,38,,,,,,,,,,,,,,,,,,,,,l,1,1.095800800001598,,,,,,,,,,,,sja,m,21,2024_Apr_18_1838,mian,2021.2.3,60.15576734215231,
9h,2,2,9.0,a,"[0.2, -0.2]",,,,,,,,,,,,,,,,0,39,39,39,,,,,,,,,,,,,,,,,,,,,a,1,0.46981529999902705,,,,,,,,,,,,sja,m,21,2024_Apr_18_1838,mian,2021.2.3,60.15576734215231,
G3,1,1,G,a,"[0.2, 0.2]",,,,,,,,,,,,,,,,0,40,40,40,,,,,,,,,,,,,,,,,,,,,a,1,0.6704669999962789,,,,,,,,,,,,sja,m,21,2024_Apr_18_1838,mian,2021.2.3,60.15576734215231,
9A,1,2,A,a,"[-0.2, 0.2]",,,,,,,,,,,,,,,,0,41,41,41,,,,,,,,,,,,,,,,,,,,,a,1,0.43769610000163084,,,,,,,,,,,,sja,m,21,2024_Apr_18_1838,mian,2021.2.3,60.15576734215231,
H5,2,1,5.0,a,"[-0.2, -0.2]",,,,,,,,,,,,,,,,0,42,42,42,,,,,,,,,,,,,,,,,,,,,a,1,0.6828218000009656,,,,,,,,,,,,sja,m,21,2024_Apr_18_1838,mian,2021.2.3,60.15576734215231,
4e,2,2,4.0,l,"[0.2, -0.2]",,,,,,,,,,,,,,,,0,43,43,43,,,,,,,,,,,,,,,,,,,,,l,1,0.6003112999969744,,,,,,,,,,,,sja,m,21,2024_Apr_18_1838,mian,2021.2.3,60.15576734215231,
E2,1,1,E,a,"[0.2, 0.2]",,,,,,,,,,,,,,,,0,44,44,44,,,,,,,,,,,,,,,,,,,,,a,1,1.0798292999970727,,,,,,,,,,,,sja,m,21,2024_Apr_18_1838,mian,2021.2.3,60.15576734215231,
A5,1,2,A,a,"[-0.2, 0.2]",,,,,,,,,,,,,,,,0,45,45,45,,,,,,,,,,,,,,,,,,,,,a,1,0.48262619999877643,,,,,,,,,,,,sja,m,21,2024_Apr_18_1838,mian,2021.2.3,60.15576734215231,
2A,2,1,2.0,l,"[-0.2, -0.2]",,,,,,,,,,,,,,,,0,46,46,46,,,,,,,,,,,,,,,,,,,,,a,0,0.48306440000305884,,,,,,,,,,,,sja,m,21,2024_Apr_18_1838,mian,2021.2.3,60.15576734215231,
6G,2,2,6.0,l,"[0.2, -0.2]",,,,,,,,,,,,,,,,0,47,47,47,,,,,,,,,,,,,,,,,,,,,l,1,1.0536508000004687,,,,,,,,,,,,sja,m,21,2024_Apr_18_1838,mian,2021.2.3,60.15576734215231,
H3,1,1,H,a,"[0.2, 0.2]",,,,,,,,,,,,,,,,0,48,48,48,,,,,,,,,,,,,,,,,,,,,a,1,2.5144233999963035,,,,,,,,,,,,sja,m,21,2024_Apr_18_1838,mian,2021.2.3,60.15576734215231,
H2,1,2,H,a,"[-0.2, 0.2]",,,,,,,,,,,,,,,,0,49,49,49,,,,,,,,,,,,,,,,,,,,,a,1,0.3542440000019269,,,,,,,,,,,,sja,m,21,2024_Apr_18_1838,mian,2021.2.3,60.15576734215231,
e9,2,1,9.0,a,"[-0.2, -0.2]",,,,,,,,,,,,,,,,0,50,50,50,,,,,,,,,,,,,,,,,,,,,l,0,0.8567070999997668,,,,,,,,,,,,sja,m,21,2024_Apr_18_1838,mian,2021.2.3,60.15576734215231,
2G,2,2,2.0,l,"[0.2, -0.2]",,,,,,,,,,,,,,,,0,51,51,51,,,,,,,,,,,,,,,,,,,,,l,1,0.9093514999985928,,,,,,,,,,,,sja,m,21,2024_Apr_18_1838,mian,2021.2.3,60.15576734215231,
4f,1,1,f,l,"[0.2, 0.2]",,,,,,,,,,,,,,,,0,52,52,52,,,,,,,,,,,,,,,,,,,,,l,1,1.3745028000048478,,,,,,,,,,,,sja,m,21,2024_Apr_18_1838,mian,2021.2.3,60.15576734215231,
H6,1,2,H,a,"[-0.2, 0.2]",,,,,,,,,,,,,,,,0,53,53,53,,,,,,,,,,,,,,,,,,,,,a,1,0.5399351000014576,,,,,,,,,,,,sja,m,21,2024_Apr_18_1838,mian,2021.2.3,60.15576734215231,
A4,2,1,4.0,l,"[-0.2, -0.2]",,,,,,,,,,,,,,,,0,54,54,54,,,,,,,,,,,,,,,,,,,,,l,1,0.7529341000044951,,,,,,,,,,,,sja,m,21,2024_Apr_18_1838,mian,2021.2.3,60.15576734215231,
3F,2,2,3.0,a,"[0.2, -0.2]",,,,,,,,,,,,,,,,0,55,55,55,,,,,,,,,,,,,,,,,,,,,a,1,0.4731958000047598,,,,,,,,,,,,sja,m,21,2024_Apr_18_1838,mian,2021.2.3,60.15576734215231,
7e,1,1,e,l,"[0.2, 0.2]",,,,,,,,,,,,,,,,0,56,56,56,,,,,,,,,,,,,,,,,,,,,l,1,1.0881961000050069,,,,,,,,,,,,sja,m,21,2024_Apr_18_1838,mian,2021.2.3,60.15576734215231,
F9,1,2,F,a,"[-0.2, 0.2]",,,,,,,,,,,,,,,,0,57,57,57,,,,,,,,,,,,,,,,,,,,,a,1,2.489929299998039,,,,,,,,,,,,sja,m,21,2024_Apr_18_1838,mian,2021.2.3,60.15576734215231,
e2,2,1,2.0,l,"[-0.2, -0.2]",,,,,,,,,,,,,,,,0,58,58,58,,,,,,,,,,,,,,,,,,,,,l,1,0.9785302000018419,,,,,,,,,,,,sja,m,21,2024_Apr_18_1838,mian,2021.2.3,60.15576734215231,
5F,2,2,5.0,a,"[0.2, -0.2]",,,,,,,,,,,,,,,,0,59,59,59,,,,,,,,,,,,,,,,,,,,,l,0,0.07192339999892283,,,,,,,,,,,,sja,m,21,2024_Apr_18_1838,mian,2021.2.3,60.15576734215231,
f6,1,1,f,l,"[0.2, 0.2]",,,,,,,,,,,,,,,,0,60,60,60,,,,,,,,,,,,,,,,,,,,,l,1,1.5373659000033513,,,,,,,,,,,,sja,m,21,2024_Apr_18_1838,mian,2021.2.3,60.15576734215231,
7G,1,2,G,a,"[-0.2, 0.2]",,,,,,,,,,,,,,,,0,61,61,61,,,,,,,,,,,,,,,,,,,,,a,1,0.7686718000040855,,,,,,,,,,,,sja,m,21,2024_Apr_18_1838,mian,2021.2.3,60.15576734215231,
e6,2,1,6.0,l,"[-0.2, -0.2]",,,,,,,,,,,,,,,,0,62,62,62,,,,,,,,,,,,,,,,,,,,,l,1,2.970149399996444,,,,,,,,,,,,sja,m,21,2024_Apr_18_1838,mian,2021.2.3,60.15576734215231,
3G,2,2,3.0,a,"[0.2, -0.2]",,,,,,,,,,,,,,,,0,63,63,63,,,,,,,,,,,,,,,,,,,,,a,1,1.264907700002368,,,,,,,,,,,,sja,m,21,2024_Apr_18_1838,mian,2021.2.3,60.15576734215231,
5E,1,1,E,a,"[0.2, 0.2]",,,,,,,,,,,,,,,,0,64,64,64,,,,,,,,,,,,,,,,,,,,,a,1,1.4193124000012176,,,,,,,,,,,,sja,m,21,2024_Apr_18_1838,mian,2021.2.3,60.15576734215231,
A6,1,2,A,a,"[-0.2, 0.2]",,,,,,,,,,,,,,,,0,65,65,65,,,,,,,,,,,,,,,,,,,,,a,1,0.6951313000026857,,,,,,,,,,,,sja,m,21,2024_Apr_18_1838,mian,2021.2.3,60.15576734215231,
E3,2,1,3.0,a,"[-0.2, -0.2]",,,,,,,,,,,,,,,,0,66,66,66,,,,,,,,,,,,,,,,,,,,,a,1,2.3297965999954613,,,,,,,,,,,,sja,m,21,2024_Apr_18_1838,mian,2021.2.3,60.15576734215231,
2f,2,2,2.0,l,"[0.2, -0.2]",,,,,,,,,,,,,,,,0,67,67,67,,,,,,,,,,,,,,,,,,,,,l,1,0.44367430000420427,,,,,,,,,,,,sja,m,21,2024_Apr_18_1838,mian,2021.2.3,60.15576734215231,
g3,1,1,g,l,"[0.2, 0.2]",,,,,,,,,,,,,,,,0,68,68,68,,,,,,,,,,,,,,,,,,,,,l,1,2.6462694000001648,,,,,,,,,,,,sja,m,21,2024_Apr_18_1838,mian,2021.2.3,60.15576734215231,
E8,1,2,E,a,"[-0.2, 0.2]",,,,,,,,,,,,,,,,0,69,69,69,,,,,,,,,,,,,,,,,,,,,a,1,0.7065218999996432,,,,,,,,,,,,sja,m,21,2024_Apr_18_1838,mian,2021.2.3,60.15576734215231,
6g,2,1,6.0,l,"[-0.2, -0.2]",,,,,,,,,,,,,,,,0,70,70,70,,,,,,,,,,,,,,,,,,,,,l,1,1.0784198999972432,,,,,,,,,,,,sja,m,21,2024_Apr_18_1838,mian,2021.2.3,60.15576734215231,
5H,2,2,5.0,a,"[0.2, -0.2]",,,,,,,,,,,,,,,,0,71,71,71,,,,,,,,,,,,,,,,,,,,,a,1,0.6454236000063247,,,,,,,,,,,,sja,m,21,2024_Apr_18_1838,mian,2021.2.3,60.15576734215231,
4A,1,1,A,a,"[0.2, 0.2]",,,,,,,,,,,,,,,,0,72,72,72,,,,,,,,,,,,,,,,,,,,,a,1,1.4470016999985091,,,,,,,,,,,,sja,m,21,2024_Apr_18_1838,mian,2021.2.3,60.15576734215231,
7F,1,2,F,a,"[-0.2, 0.2]",,,,,,,,,,,,,,,,0,73,73,73,,,,,,,,,,,,,,,,,,,,,a,1,0.48825550000037765,,,,,,,,,,,,sja,m,21,2024_Apr_18_1838,mian,2021.2.3,60.15576734215231,
6H,2,1,6.0,l,"[-0.2, -0.2]",,,,,,,,,,,,,,,,0,74,74,74,,,,,,,,,,,,,,,,,,,,,l,1,1.199567300005583,,,,,,,,,,,,sja,m,21,2024_Apr_18_1838,mian,2021.2.3,60.15576734215231,
3a,2,2,3.0,a,"[0.2, -0.2]",,,,,,,,,,,,,,,,0,75,75,75,,,,,,,,,,,,,,,,,,,,,a,1,0.7415865000002668,,,,,,,,,,,,sja,m,21,2024_Apr_18_1838,mian,2021.2.3,60.15576734215231,
9F,1,1,F,a,"[0.2, 0.2]",,,,,,,,,,,,,,,,0,76,76,76,,,,,,,,,,,,,,,,,,,,,a,1,0.6802148999995552,,,,,,,,,,,,sja,m,21,2024_Apr_18_1838,mian,2021.2.3,60.15576734215231,
G7,1,2,G,a,"[-0.2, 0.2]",,,,,,,,,,,,,,,,0,77,77,77,,,,,,,,,,,,,,,,,,,,,a,1,0.46165599999949336,,,,,,,,,,,,sja,m,21,2024_Apr_18_1838,mian,2021.2.3,60.15576734215231,
a6,2,1,6.0,l,"[-0.2, -0.2]",,,,,,,,,,,,,,,,0,78,78,78,,,,,,,,,,,,,,,,,,,,,l,1,0.8777267999976175,,,,,,,,,,,,sja,m,21,2024_Apr_18_1838,mian,2021.2.3,60.15576734215231,
4h,2,2,4.0,l,"[0.2, -0.2]",,,,,,,,,,,,,,,,0,79,79,79,,,,,,,,,,,,,,,,,,,,,l,1,1.9268745999943349,,,,,,,,,,,,sja,m,21,2024_Apr_18_1838,mian,2021.2.3,60.15576734215231,
6A,1,1,A,a,"[0.2, 0.2]",,,,,,,,,,,,,,,,,,,,0,0,0,0,,,,,,,,,,,,,,,,,a,1,2.2237088000038057,,,,,,,,,,,,sja,m,21,2024_Apr_18_1838,mian,2021.2.3,60.15576734215231,
4H,1,2,H,a,"[-0.2, 0.2]",,,,,,,,,,,,,,,,,,,,0,1,1,1,,,,,,,,,,,,,,,,,a,1,1.1482279000047129,,,,,,,,,,,,sja,m,21,2024_Apr_18_1838,mian,2021.2.3,60.15576734215231,
3H,2,1,3.0,a,"[-0.2, -0.2]",,,,,,,,,,,,,,,,,,,,0,2,2,2,,,,,,,,,,,,,,,,,a,1,1.6428701999975601,,,,,,,,,,,,sja,m,21,2024_Apr_18_1838,mian,2021.2.3,60.15576734215231,
a9,2,2,9.0,a,"[0.2, -0.2]",,,,,,,,,,,,,,,,,,,,0,3,3,3,,,,,,,,,,,,,,,,,a,1,0.5930135999951744,,,,,,,,,,,,sja,m,21,2024_Apr_18_1838,mian,2021.2.3,60.15576734215231,
E7,1,1,E,a,"[0.2, 0.2]",,,,,,,,,,,,,,,,,,,,0,4,4,4,,,,,,,,,,,,,,,,,a,1,0.9735974000068381,,,,,,,,,,,,sja,m,21,2024_Apr_18_1838,mian,2021.2.3,60.15576734215231,
6h,1,2,h,l,"[-0.2, 0.2]",,,,,,,,,,,,,,,,,,,,0,5,5,5,,,,,,,,,,,,,,,,,a,0,0.36296389999915846,,,,,,,,,,,,sja,m,21,2024_Apr_18_1838,mian,2021.2.3,60.15576734215231,
8A,2,1,8.0,l,"[-0.2, -0.2]",,,,,,,,,,,,,,,,,,,,0,6,6,6,,,,,,,,,,,,,,,,,l,1,1.4676925000021583,,,,,,,,,,,,sja,m,21,2024_Apr_18_1838,mian,2021.2.3,60.15576734215231,
f5,2,2,5.0,a,"[0.2, -0.2]",,,,,,,,,,,,,,,,,,,,0,7,7,7,,,,,,,,,,,,,,,,,a,1,0.6029750000016065,,,,,,,,,,,,sja,m,21,2024_Apr_18_1838,mian,2021.2.3,60.15576734215231,
2a,1,1,a,l,"[0.2, 0.2]",,,,,,,,,,,,,,,,,,,,0,8,8,8,,,,,,,,,,,,,,,,,l,1,0.8909349999958067,,,,,,,,,,,,sja,m,21,2024_Apr_18_1838,mian,2021.2.3,60.15576734215231,
F7,1,2,F,a,"[-0.2, 0.2]",,,,,,,,,,,,,,,,,,,,0,9,9,9,,,,,,,,,,,,,,,,,a,1,0.7116151000009268,,,,,,,,,,,,sja,m,21,2024_Apr_18_1838,mian,2021.2.3,60.15576734215231,
h2,2,1,2.0,l,"[-0.2, -0.2]",,,,,,,,,,,,,,,,,,,,0,10,10,10,,,,,,,,,,,,,,,,,l,1,2.104258799998206,,,,,,,,,,,,sja,m,21,2024_Apr_18_1838,mian,2021.2.3,60.15576734215231,
F5,2,2,5.0,a,"[0.2, -0.2]",,,,,,,,,,,,,,,,,,,,0,11,11,11,,,,,,,,,,,,,,,,,a,1,1.2319207999971695,,,,,,,,,,,,sja,m,21,2024_Apr_18_1838,mian,2021.2.3,60.15576734215231,
A9,1,1,A,a,"[0.2, 0.2]",,,,,,,,,,,,,,,,,,,,0,12,12,12,,,,,,,,,,,,,,,,,a,1,0.7059834000028786,,,,,,,,,,,,sja,m,21,2024_Apr_18_1838,mian,2021.2.3,60.15576734215231,
3e,1,2,e,l,"[-0.2, 0.2]",,,,,,,,,,,,,,,,,,,,0,13,13,13,,,,,,,,,,,,,,,,,l,1,0.607947199998307,,,,,,,,,,,,sja,m,21,2024_Apr_18_1838,mian,2021.2.3,60.15576734215231,
f8,2,1,8.0,l,"[-0.2, -0.2]",,,,,,,,,,,,,,,,,,,,0,14,14,14,,,,,,,,,,,,,,,,,l,1,1.3633539999937057,,,,,,,,,,,,sja,m,21,2024_Apr_18_1838,mian,2021.2.3,60.15576734215231,
G2,2,2,2.0,l,"[0.2, -0.2]",,,,,,,,,,,,,,,,,,,,0,15,15,15,,,,,,,,,,,,,,,,,l,1,0.7457719999947585,,,,,,,,,,,,sja,m,21,2024_Apr_18_1838,mian,2021.2.3,60.15576734215231,
F2,1,1,F,a,"[0.2, 0.2]",,,,,,,,,,,,,,,,,,,,0,16,16,16,,,,,,,,,,,,,,,,,a,1,0.7068174000014551,,,,,,,,,,,,sja,m,21,2024_Apr_18_1838,mian,2021.2.3,60.15576734215231,
5e,1,2,e,l,"[-0.2, 0.2]",,,,,,,,,,,,,,,,,,,,0,17,17,17,,,,,,,,,,,,,,,,,l,1,1.3009072999993805,,,,,,,,,,,,sja,m,21,2024_Apr_18_1838,mian,2021.2.3,60.15576734215231,
A3,2,1,3.0,a,"[-0.2, -0.2]",,,,,,,,,,,,,,,,,,,,0,18,18,18,,,,,,,,,,,,,,,,,a,1,0.9424738000016077,,,,,,,,,,,,sja,m,21,2024_Apr_18_1838,mian,2021.2.3,60.15576734215231,
4g,2,2,4.0,l,"[0.2, -0.2]",,,,,,,,,,,,,,,,,,,,0,19,19,19,,,,,,,,,,,,,,,,,l,1,1.389370199998666,,,,,,,,,,,,sja,m,21,2024_Apr_18_1838,mian,2021.2.3,60.15576734215231,
h7,1,1,h,l,"[0.2, 0.2]",,,,,,,,,,,,,,,,,,,,0,20,20,20,,,,,,,,,,,,,,,,,l,1,1.5347194000059972,,,,,,,,,,,,sja,m,21,2024_Apr_18_1838,mian,2021.2.3,60.15576734215231,
3g,1,2,g,l,"[-0.2, 0.2]",,,,,,,,,,,,,,,,,,,,0,21,21,21,,,,,,,,,,,,,,,,,l,1,1.524217199999839,,,,,,,,,,,,sja,m,21,2024_Apr_18_1838,mian,2021.2.3,60.15576734215231,
8a,2,1,8.0,l,"[-0.2, -0.2]",,,,,,,,,,,,,,,,,,,,0,22,22,22,,,,,,,,,,,,,,,,,l,1,1.5945151999985683,,,,,,,,,,,,sja,m,21,2024_Apr_18_1838,mian,2021.2.3,60.15576734215231,
4E,2,2,4.0,l,"[0.2, -0.2]",,,,,,,,,,,,,,,,,,,,0,23,23,23,,,,,,,,,,,,,,,,,l,1,0.49509450000186916,,,,,,,,,,,,sja,m,21,2024_Apr_18_1838,mian,2021.2.3,60.15576734215231,
E5,1,1,E,a,"[0.2, 0.2]",,,,,,,,,,,,,,,,,,,,0,24,24,24,,,,,,,,,,,,,,,,,a,1,0.8404521999982535,,,,,,,,,,,,sja,m,21,2024_Apr_18_1838,mian,2021.2.3,60.15576734215231,
g6,1,2,g,l,"[-0.2, 0.2]",,,,,,,,,,,,,,,,,,,,0,25,25,25,,,,,,,,,,,,,,,,,l,1,0.48635749999812106,,,,,,,,,,,,sja,m,21,2024_Apr_18_1838,mian,2021.2.3,60.15576734215231,
2e,2,1,2.0,l,"[-0.2, -0.2]",,,,,,,,,,,,,,,,,,,,0,26,26,26,,,,,,,,,,,,,,,,,l,1,0.598380300005374,,,,,,,,,,,,sja,m,21,2024_Apr_18_1838,mian,2021.2.3,60.15576734215231,
h8,2,2,8.0,l,"[0.2, -0.2]",,,,,,,,,,,,,,,,,,,,0,27,27,27,,,,,,,,,,,,,,,,,l,1,1.1416897000017343,,,,,,,,,,,,sja,m,21,2024_Apr_18_1838,mian,2021.2.3,60.15576734215231,
G6,1,1,G,a,"[0.2, 0.2]",,,,,,,,,,,,,,,,,,,,0,28,28,28,,,,,,,,,,,,,,,,,a,1,0.7539336999980151,,,,,,,,,,,,sja,m,21,2024_Apr_18_1838,mian,2021.2.3,60.15576734215231,
a4,1,2,a,l,"[-0.2, 0.2]",,,,,,,,,,,,,,,,,,,,0,29,29,29,,,,,,,,,,,,,,,,,l,1,0.6085402000026079,,,,,,,,,,,,sja,m,21,2024_Apr_18_1838,mian,2021.2.3,60.15576734215231,
9H,2,1,9.0,a,"[-0.2, -0.2]",,,,,,,,,,,,,,,,,,,,0,30,30,30,,,,,,,,,,,,,,,,,a,1,1.3081025999999838,,,,,,,,,,,,sja,m,21,2024_Apr_18_1838,mian,2021.2.3,60.15576734215231,
7H,2,2,7.0,a,"[0.2, -0.2]",,,,,,,,,,,,,,,,,,,,0,31,31,31,,,,,,,,,,,,,,,,,l,0,0.7238998000029824,,,,,,,,,,,,sja,m,21,2024_Apr_18_1838,mian,2021.2.3,60.15576734215231,
9f,1,1,f,l,"[0.2, 0.2]",,,,,,,,,,,,,,,,,,,,0,32,32,32,,,,,,,,,,,,,,,,,l,1,2.572877200000221,,,,,,,,,,,,sja,m,21,2024_Apr_18_1838,mian,2021.2.3,60.15576734215231,
8E,1,2,E,a,"[-0.2, 0.2]",,,,,,,,,,,,,,,,,,,,0,33,33,33,,,,,,,,,,,,,,,,,a,1,0.5434098999976413,,,,,,,,,,,,sja,m,21,2024_Apr_18_1838,mian,2021.2.3,60.15576734215231,
A2,2,1,2.0,l,"[-0.2, -0.2]",,,,,,,,,,,,,,,,,,,,0,34,34,34,,,,,,,,,,,,,,,,,l,1,0.7346034000001964,,,,,,,,,,,,sja,m,21,2024_Apr_18_1838,mian,2021.2.3,60.15576734215231,
H7,2,2,7.0,a,"[0.2, -0.2]",,,,,,,,,,,,,,,,,,,,0,35,35,35,,,,,,,,,,,,,,,,,a,1,0.6508289000048535,,,,,,,,,,,,sja,m,21,2024_Apr_18_1838,mian,2021.2.3,60.15576734215231,
h9,1,1,h,l,"[0.2, 0.2]",,,,,,,,,,,,,,,,,,,,0,36,36,36,,,,,,,,,,,,,,,,,l,1,0.6238125000018044,,,,,,,,,,,,sja,m,21,2024_Apr_18_1838,mian,2021.2.3,60.15576734215231,
8G,1,2,G,a,"[-0.2, 0.2]",,,,,,,,,,,,,,,,,,,,0,37,37,37,,,,,,,,,,,,,,,,,a,1,0.701032099997974,,,,,,,,,,,,sja,m,21,2024_Apr_18_1838,mian,2021.2.3,60.15576734215231,
H4,2,1,4.0,l,"[-0.2, -0.2]",,,,,,,,,,,,,,,,,,,,0,38,38,38,,,,,,,,,,,,,,,,,l,1,1.1956569000030868,,,,,,,,,,,,sja,m,21,2024_Apr_18_1838,mian,2021.2.3,60.15576734215231,
A8,2,2,8.0,l,"[0.2, -0.2]",,,,,,,,,,,,,,,,,,,,0,39,39,39,,,,,,,,,,,,,,,,,l,1,0.8144948999979533,,,,,,,,,,,,sja,m,21,2024_Apr_18_1838,mian,2021.2.3,60.15576734215231,
g7,1,1,g,l,"[0.2, 0.2]",,,,,,,,,,,,,,,,,,,,0,40,40,40,,,,,,,,,,,,,,,,,l,1,2.557328900002176,,,,,,,,,,,,sja,m,21,2024_Apr_18_1838,mian,2021.2.3,60.15576734215231,
H9,1,2,H,a,"[-0.2, 0.2]",,,,,,,,,,,,,,,,,,,,0,41,41,41,,,,,,,,,,,,,,,,,a,1,1.505594200003543,,,,,,,,,,,,sja,m,21,2024_Apr_18_1838,mian,2021.2.3,60.15576734215231,
9E,2,1,9.0,a,"[-0.2, -0.2]",,,,,,,,,,,,,,,,,,,,0,42,42,42,,,,,,,,,,,,,,,,,a,1,1.0498713000051794,,,,,,,,,,,,sja,m,21,2024_Apr_18_1838,mian,2021.2.3,60.15576734215231,
a5,2,2,5.0,a,"[0.2, -0.2]",,,,,,,,,,,,,,,,,,,,0,43,43,43,,,,,,,,,,,,,,,,,a,1,0.6374004000026616,,,,,,,,,,,,sja,m,21,2024_Apr_18_1838,mian,2021.2.3,60.15576734215231,
3E,1,1,E,a,"[0.2, 0.2]",,,,,,,,,,,,,,,,,,,,0,44,44,44,,,,,,,,,,,,,,,,,a,1,0.682592700002715,,,,,,,,,,,,sja,m,21,2024_Apr_18_1838,mian,2021.2.3,60.15576734215231,
6f,1,2,f,l,"[-0.2, 0.2]",,,,,,,,,,,,,,,,,,,,0,45,45,45,,,,,,,,,,,,,,,,,l,1,1.5194298999995226,,,,,,,,,,,,sja,m,21,2024_Apr_18_1838,mian,2021.2.3,60.15576734215231,
g8,2,1,8.0,l,"[-0.2, -0.2]",,,,,,,,,,,,,,,,,,,,0,46,46,46,,,,,,,,,,,,,,,,,l,1,1.0325127999967663,,,,,,,,,,,,sja,m,21,2024_Apr_18_1838,mian,2021.2.3,60.15576734215231,
4F,2,2,4.0,l,"[0.2, -0.2]",,,,,,,,,,,,,,,,,,,,0,47,47,47,,,,,,,,,,,,,,,,,l,1,1.1395362999974168,,,,,,,,,,,,sja,m,21,2024_Apr_18_1838,mian,2021.2.3,60.15576734215231,
4a,1,1,a,l,"[0.2, 0.2]",,,,,,,,,,,,,,,,,,,,0,48,48,48,,,,,,,,,,,,,,,,,l,1,1.5435309000022244,,,,,,,,,,,,sja,m,21,2024_Apr_18_1838,mian,2021.2.3,60.15576734215231,
e3,1,2,e,l,"[-0.2, 0.2]",,,,,,,,,,,,,,,,,,,,0,49,49,49,,,,,,,,,,,,,,,,,l,1,0.8047531999982311,,,,,,,,,,,,sja,m,21,2024_Apr_18_1838,mian,2021.2.3,60.15576734215231,
5g,2,1,5.0,a,"[-0.2, -0.2]",,,,,,,,,,,,,,,,,,,,0,50,50,50,,,,,,,,,,,,,,,,,a,1,1.315581499999098,,,,,,,,,,,,sja,m,21,2024_Apr_18_1838,mian,2021.2.3,60.15576734215231,
f4,2,2,4.0,l,"[0.2, -0.2]",,,,,,,,,,,,,,,,,,,,0,51,51,51,,,,,,,,,,,,,,,,,l,1,0.6210022000013851,,,,,,,,,,,,sja,m,21,2024_Apr_18_1838,mian,2021.2.3,60.15576734215231,
6E,1,1,E,a,"[0.2, 0.2]",,,,,,,,,,,,,,,,,,,,0,52,52,52,,,,,,,,,,,,,,,,,a,1,1.2988833999988856,,,,,,,,,,,,sja,m,21,2024_Apr_18_1838,mian,2021.2.3,60.15576734215231,
7A,1,2,A,a,"[-0.2, 0.2]",,,,,,,,,,,,,,,,,,,,0,53,53,53,,,,,,,,,,,,,,,,,a,1,0.6228513999958523,,,,,,,,,,,,sja,m,21,2024_Apr_18_1838,mian,2021.2.3,60.15576734215231,
F4,2,1,4.0,l,"[-0.2, -0.2]",,,,,,,,,,,,,,,,,,,,0,54,54,54,,,,,,,,,,,,,,,,,l,1,0.9246431999999913,,,,,,,,,,,,sja,m,21,2024_Apr_18_1838,mian,2021.2.3,60.15576734215231,
2g,2,2,2.0,l,"[0.2, -0.2]",,,,,,,,,,,,,,,,,,,,0,55,55,55,,,,,,,,,,,,,,,,,l,1,0.4964031999988947,,,,,,,,,,,,sja,m,21,2024_Apr_18_1838,mian,2021.2.3,60.15576734215231,
7E,1,1,E,a,"[0.2, 0.2]",,,,,,,,,,,,,,,,,,,,0,56,56,56,,,,,,,,,,,,,,,,,a,1,1.4835429999948246,,,,,,,,,,,,sja,m,21,2024_Apr_18_1838,mian,2021.2.3,60.15576734215231,
G4,1,2,G,a,"[-0.2, 0.2]",,,,,,,,,,,,,,,,,,,,0,57,57,57,,,,,,,,,,,,,,,,,a,1,1.7504172999979346,,,,,,,,,,,,sja,m,21,2024_Apr_18_1838,mian,2021.2.3,60.15576734215231,
2F,2,1,2.0,l,"[-0.2, -0.2]",,,,,,,,,,,,,,,,,,,,0,58,58,58,,,,,,,,,,,,,,,,,l,1,1.2566641000012169,,,,,,,,,,,,sja,m,21,2024_Apr_18_1838,mian,2021.2.3,60.15576734215231,
E9,2,2,9.0,a,"[0.2, -0.2]",,,,,,,,,,,,,,,,,,,,0,59,59,59,,,,,,,,,,,,,,,,,a,1,0.5904672000033315,,,,,,,,,,,,sja,m,21,2024_Apr_18_1838,mian,2021.2.3,60.15576734215231,
5f,1,1,f,l,"[0.2, 0.2]",,,,,,,,,,,,,,,,,,,,0,60,60,60,,,,,,,,,,,,,,,,,a,0,1.1421424000000115,,,,,,,,,,,,sja,m,21,2024_Apr_18_1838,mian,2021.2.3,60.15576734215231,
e7,1,2,e,l,"[-0.2, 0.2]",,,,,,,,,,,,,,,,,,,,0,61,61,61,,,,,,,,,,,,,,,,,l,1,2.2954687000019476,,,,,,,,,,,,sja,m,21,2024_Apr_18_1838,mian,2021.2.3,60.15576734215231,
f2,2,1,2.0,l,"[-0.2, -0.2]",,,,,,,,,,,,,,,,,,,,0,62,62,62,,,,,,,,,,,,,,,,,l,1,2.246411200001603,,,,,,,,,,,,sja,m,21,2024_Apr_18_1838,mian,2021.2.3,60.15576734215231,
G9,2,2,9.0,a,"[0.2, -0.2]",,,,,,,,,,,,,,,,,,,,0,63,63,63,,,,,,,,,,,,,,,,,a,1,0.5517982000019401,,,,,,,,,,,,sja,m,21,2024_Apr_18_1838,mian,2021.2.3,60.15576734215231,
7g,1,1,g,l,"[0.2, 0.2]",,,,,,,,,,,,,,,,,,,,0,64,64,64,,,,,,,,,,,,,,,,,None,0,,,,,,,,,,,,,sja,m,21,2024_Apr_18_1838,mian,2021.2.3,60.15576734215231,
F8,1,2,F,a,"[-0.2, 0.2]",,,,,,,,,,,,,,,,,,,,0,65,65,65,,,,,,,,,,,,,,,,,a,1,1.2661598999984562,,,,,,,,,,,,sja,m,21,2024_Apr_18_1838,mian,2021.2.3,60.15576734215231,
A7,2,1,7.0,a,"[-0.2, -0.2]",,,,,,,,,,,,,,,,,,,,0,66,66,66,,,,,,,,,,,,,,,,,a,1,1.865364999997837,,,,,,,,,,,,sja,m,21,2024_Apr_18_1838,mian,2021.2.3,60.15576734215231,
4G,2,2,4.0,l,"[0.2, -0.2]",,,,,,,,,,,,,,,,,,,,0,67,67,67,,,,,,,,,,,,,,,,,l,1,0.5415085999993607,,,,,,,,,,,,sja,m,21,2024_Apr_18_1838,mian,2021.2.3,60.15576734215231,
g2,1,1,g,l,"[0.2, 0.2]",,,,,,,,,,,,,,,,,,,,0,68,68,68,,,,,,,,,,,,,,,,,a,0,1.3307742000033613,,,,,,,,,,,,sja,m,21,2024_Apr_18_1838,mian,2021.2.3,60.15576734215231,
g4,1,2,g,l,"[-0.2, 0.2]",,,,,,,,,,,,,,,,,,,,0,69,69,69,,,,,,,,,,,,,,,,,l,1,1.0406514999995125,,,,,,,,,,,,sja,m,21,2024_Apr_18_1838,mian,2021.2.3,60.15576734215231,
7a,2,1,7.0,a,"[-0.2, -0.2]",,,,,,,,,,,,,,,,,,,,0,70,70,70,,,,,,,,,,,,,,,,,a,1,1.2581568000023253,,,,,,,,,,,,sja,m,21,2024_Apr_18_1838,mian,2021.2.3,60.15576734215231,
8e,2,2,8.0,l,"[0.2, -0.2]",,,,,,,,,,,,,,,,,,,,0,71,71,71,,,,,,,,,,,,,,,,,l,1,0.619432899999083,,,,,,,,,,,,sja,m,21,2024_Apr_18_1838,mian,2021.2.3,60.15576734215231,
h4,1,1,h,l,"[0.2, 0.2]",,,,,,,,,,,,,,,,,,,,0,72,72,72,,,,,,,,,,,,,,,,,l,1,1.8331276000026264,,,,,,,,,,,,sja,m,21,2024_Apr_18_1838,mian,2021.2.3,60.15576734215231,
G8,1,2,G,a,"[-0.2, 0.2]",,,,,,,,,,,,,,,,,,,,0,73,73,73,,,,,,,,,,,,,,,,,a,1,0.6519055999960983,,,,,,,,,,,,sja,m,21,2024_Apr_18_1838,mian,2021.2.3,60.15576734215231,
6F,2,1,6.0,l,"[-0.2, -0.2]",,,,,,,,,,,,,,,,,,,,0,74,74,74,,,,,,,,,,,,,,,,,l,1,2.288981400000921,,,,,,,,,,,,sja,m,21,2024_Apr_18_1838,mian,2021.2.3,60.15576734215231,
g5,2,2,5.0,a,"[0.2, -0.2]",,,,,,,,,,,,,,,,,,,,0,75,75,75,,,,,,,,,,,,,,,,,a,1,1.7759590999994543,,,,,,,,,,,,sja,m,21,2024_Apr_18_1838,mian,2021.2.3,60.15576734215231,
G5,1,1,G,a,"[0.2, 0.2]",,,,,,,,,,,,,,,,,,,,0,76,76,76,,,,,,,,,,,,,,,,,a,1,1.2100112999978592,,,,,,,,,,,,sja,m,21,2024_Apr_18_1838,mian,2021.2.3,60.15576734215231,
h5,1,2,h,l,"[-0.2, 0.2]",,,,,,,,,,,,,,,,,,,,0,77,77,77,,,,,,,,,,,,,,,,,l,1,0.5210261000029277,,,,,,,,,,,,sja,m,21,2024_Apr_18_1838,mian,2021.2.3,60.15576734215231,
9G,2,1,9.0,a,"[-0.2, -0.2]",,,,,,,,,,,,,,,,,,,,0,78,78,78,,,,,,,,,,,,,,,,,a,1,0.7005993999991915,,,,,,,,,,,,sja,m,21,2024_Apr_18_1838,mian,2021.2.3,60.15576734215231,
F3,2,2,3.0,a,"[0.2, -0.2]",,,,,,,,,,,,,,,,,,,,0,79,79,79,,,,,,,,,,,,,,,,,a,1,0.7967903999960981,,,,,,,,,,,,sja,m,21,2024_Apr_18_1838,mian,2021.2.3,60.15576734215231,
,,,,,,0,0,pic/flanker6.png,pic/flanker2.png,a,l,,,,,,,,,,,,,,,,,,0,0,0,0,0,0,0,1,,,,,,,,,,,,571.811764799997,None,570.6167108000009,571.8285503000006,None,0,鲁莽,l,1,1.9724311999962083,,sja,m,21,2024_Apr_18_1838,mian,2021.2.3,60.15576734215231,
,,,,,,0,1,pic/flanker5.png,pic/flanker1.png,s,k,,,,,,,,,,,,,,,,,,0,0,0,0,0,1,1,0,,,,,,,,,,,,577.1612562000009,None,575.9782790999961,577.1779552000007,s,1,廉洁,k,1,0.7593089000001783,0.7565931000062847,sja,m,21,2024_Apr_18_1838,mian,2021.2.3,60.15576734215231,
,,,,,,1,0,pic/flanker6.png,pic/flanker4.png,s,l,,,,,,,,,,,,,,,,,,0,0,0,0,0,2,2,5,,,,,,,,,,,,580.6618508999964,None,579.4779176000011,580.678456900001,s,1,逃避,l,1,1.0363294999988284,1.0515419000003021,sja,m,21,2024_Apr_18_1838,mian,2021.2.3,60.15576734215231,
,,,,,,0,1,pic/flanker6.png,pic/flanker2.png,a,k,,,,,,,,,,,,,,,,,,0,0,0,0,0,3,3,2,,,,,,,,,,,,584.6116038999971,None,583.4282821000015,584.6279979999963,s,0,顽强,k,1,0.9170276000004378,0.041342999997141305,sja,m,21,2024_Apr_18_1838,mian,2021.2.3,60.15576734215231,
,,,,,,0,0,pic/flanker5.png,pic/flanker1.png,s,l,,,,,,,,,,,,,,,,,,0,0,0,0,0,4,4,3,,,,,,,,,,,,587.6115653000015,None,586.4283340999973,587.6280762999959,s,1,悲观,l,1,0.900915400001395,0.8087214999977732,sja,m,21,2024_Apr_18_1838,mian,2021.2.3,60.15576734215231,
,,,,,,1,1,pic/flanker6.png,pic/flanker4.png,s,k,,,,,,,,,,,,,,,,,,0,0,0,0,0,5,5,6,,,,,,,,,,,,591.2616906999974,None,590.0786269999953,591.2783982999972,s,1,振作,k,1,1.009400300004927,0.5938265999939176,sja,m,21,2024_Apr_18_1838,mian,2021.2.3,60.15576734215231,
,,,,,,1,0,pic/flanker5.png,pic/flanker3.png,a,l,,,,,,,,,,,,,,,,,,0,0,0,0,0,6,6,7,,,,,,,,,,,,594.7116286000019,None,593.5281255000009,594.7284318999955,a,1,争吵,k,0,0.6423538999952143,0.5824175999950967,sja,m,21,2024_Apr_18_1838,mian,2021.2.3,60.15576734215231,
,,,,,,1,1,pic/flanker5.png,pic/flanker3.png,a,k,,,,,,,,,,,,,,,,,,0,0,0,0,0,7,7,4,,,,,,,,,,,,597.978534599999,None,596.7951317999978,597.995006899997,a,1,舒畅,k,1,1.0131010999975842,0.6663383999984944,sja,m,21,2024_Apr_18_1838,mian,2021.2.3,60.15576734215231,
,,,,,,,,,,,,,,,,,,,,,,,,,,,,,0,0,0,0,,,,,,,,,,,,,,,,,,,,,,,,,,,sja,m,21,2024_Apr_18_1838,mian,2021.2.3,60.15576734215231,
,,,,,,0,0,pic/flanker5.png,pic/flanker1.png,s,l,pic/AffRest1.png,,,,,,,,,,,,,,,,,,,,,,,,,0,0,0,0,0,0,0,59,,,,684.4611184999958,None,683.2637912999999,684.4783196999997,s,1,逃避,l,1,1.029617000000144,1.0594312000030186,sja,m,21,2024_Apr_18_1838,mian,2021.2.3,60.15576734215231,
,,,,,,1,1,pic/flanker6.png,pic/flanker4.png,s,k,pic/AffRest1.png,,,,,,,,,,,,,,,,,,,,,,,,,0,0,0,0,0,1,1,14,,,,688.3949979999961,None,687.2116630999953,688.4116748000015,s,1,正直,k,1,1.080381200001284,0.5664496000026702,sja,m,21,2024_Apr_18_1838,mian,2021.2.3,60.15576734215231,
,,,,,,0,0,pic/flanker5.png,pic/flanker1.png,s,l,pic/AffRest1.png,,,,,,,,,,,,,,,,,,,,,,,,,0,0,0,0,0,2,2,75,,,,691.878051300002,None,690.6946050999977,691.8946686999989,s,1,厌恶,l,1,0.6637371000033454,0.40961629999947036,sja,m,21,2024_Apr_18_1838,mian,2021.2.3,60.15576734215231,
,,,,,,0,1,pic/flanker5.png,pic/flanker1.png,s,k,pic/AffRest1.png,,,,,,,,,,,,,,,,,,,,,,,,,0,0,0,0,0,3,3,16,,,,694.9781139999977,None,693.7949422999955,694.9949720000004,s,1,永恒,k,1,0.9206128000005265,0.4021989000029862,sja,m,21,2024_Apr_18_1838,mian,2021.2.3,60.15576734215231,
,,,,,,0,0,pic/flanker6.png,pic/flanker2.png,a,l,pic/AffRest1.png,,,,,,,,,,,,,,,,,,,,,,,,,0,0,0,0,0,4,4,41,,,,698.2113526999965,None,697.0280629999979,698.2283126999973,a,1,损害,l,1,0.6945810000033816,0.5294876000043587,sja,m,21,2024_Apr_18_1838,mian,2021.2.3,60.15576734215231,
,,,,,,1,1,pic/flanker6.png,pic/flanker4.png,s,k,pic/AffRest1.png,,,,,,,,,,,,,,,,,,,,,,,,,0,0,0,0,0,5,5,46,,,,701.278117599999,None,700.094903600002,701.2946077000015,s,1,享受,k,1,0.8601623000067775,0.5268625000026077,sja,m,21,2024_Apr_18_1838,mian,2021.2.3,60.15576734215231,
,,,,,,1,1,pic/flanker6.png,pic/flanker4.png,s,k,pic/AffRest1.png,,,,,,,,,,,,,,,,,,,,,,,,,0,0,0,0,0,6,6,30,,,,704.5949227000019,None,703.4110576999956,704.6114067000017,s,1,羡慕,k,1,0.7679361000045901,0.5219687999997404,sja,m,21,2024_Apr_18_1838,mian,2021.2.3,60.15576734215231,
,,,,,,1,1,pic/flanker5.png,pic/flanker3.png,a,k,pic/AffRest1.png,,,,,,,,,,,,,,,,,,,,,,,,,0,0,0,0,0,7,7,28,,,,707.8282982999954,None,706.6446868999992,707.8449836,a,1,畅销,k,1,0.7277321000001393,0.5157741000002716,sja,m,21,2024_Apr_18_1838,mian,2021.2.3,60.15576734215231,
,,,,,,1,1,pic/flanker5.png,pic/flanker3.png,a,k,pic/AffRest1.png,,,,,,,,,,,,,,,,,,,,,,,,,0,0,0,0,0,8,8,20,,,,711.0949256999957,None,709.911394499999,711.1116279999987,s,0,富足,l,0,0.9255144000053406,0.2766955999977654,sja,m,21,2024_Apr_18_1838,mian,2021.2.3,60.15576734215231,
,,,,,,1,0,pic/flanker5.png,pic/flanker3.png,a,l,pic/AffRest1.png,,,,,,,,,,,,,,,,,,,,,,,,,0,0,0,0,0,9,9,7,,,,714.2947982999976,None,713.1108699999968,714.3113282999984,a,1,丢失,l,1,0.9147704000060912,0.44618910000281176,sja,m,21,2024_Apr_18_1838,mian,2021.2.3,60.15576734215231,
,,,,,,0,0,pic/flanker6.png,pic/flanker2.png,a,l,pic/AffRest1.png,,,,,,,,,,,,,,,,,,,,,,,,,0,0,0,0,0,10,10,1,,,,717.628753500001,None,716.4448372999977,717.645408999997,a,1,沮丧,l,1,0.8587483000010252,0.5182807000019238,sja,m,21,2024_Apr_18_1838,mian,2021.2.3,60.15576734215231,
,,,,,,0,0,pic/flanker5.png,pic/flanker1.png,s,l,pic/AffRest1.png,,,,,,,,,,,,,,,,,,,,,,,,,0,0,0,0,0,11,11,27,,,,720.8612348000024,None,719.6782917999953,720.8779098000014,s,1,消沉,l,1,0.6489096000004793,0.5290183000033721,sja,m,21,2024_Apr_18_1838,mian,2021.2.3,60.15576734215231,
,,,,,,0,1,pic/flanker6.png,pic/flanker2.png,a,k,pic/AffRest1.png,,,,,,,,,,,,,,,,,,,,,,,,,0,0,0,0,0,12,12,10,,,,723.9280186999968,None,722.7446665000025,723.9445589000024,a,1,奉献,k,1,0.6622294999979204,0.411978199997975,sja,m,21,2024_Apr_18_1838,mian,2021.2.3,60.15576734215231,
,,,,,,0,0,pic/flanker6.png,pic/flanker2.png,a,l,pic/AffRest1.png,,,,,,,,,,,,,,,,,,,,,,,,,0,0,0,0,0,13,13,73,,,,726.8610711000001,None,725.6782163000025,726.8777229999978,a,1,排斥,l,1,0.6355901999995694,0.2996084999977029,sja,m,21,2024_Apr_18_1838,mian,2021.2.3,60.15576734215231,
,,,,,,1,0,pic/flanker5.png,pic/flanker3.png,a,l,pic/AffRest1.png,,,,,,,,,,,,,,,,,,,,,,,,,0,0,0,0,0,14,14,71,,,,729.7948345999976,None,728.6114161000005,729.8113034999988,a,1,失意,l,1,0.5727649999971618,0.4549044000013964,sja,m,21,2024_Apr_18_1838,mian,2021.2.3,60.15576734215231,
,,,,,,1,0,pic/flanker6.png,pic/flanker4.png,s,l,pic/AffRest1.png,,,,,,,,,,,,,,,,,,,,,,,,,0,0,0,0,0,15,15,53,,,,732.8778768999982,None,731.694324899996,732.8948760999992,a,0,浪费,l,1,0.8395584999962011,0.24384719999943627,sja,m,21,2024_Apr_18_1838,mian,2021.2.3,60.15576734215231,
,,,,,,0,0,pic/flanker6.png,pic/flanker2.png,a,l,pic/AffRest1.png,,,,,,,,,,,,,,,,,,,,,,,,,0,0,0,0,0,16,16,57,,,,735.8945641999962,None,734.7129941999956,735.9278504999966,a,1,悲观,l,1,0.8695917000004556,0.5497247999956016,sja,m,21,2024_Apr_18_1838,mian,2021.2.3,60.15576734215231,
,,,,,,0,1,pic/flanker6.png,pic/flanker2.png,a,k,pic/AffRest1.png,,,,,,,,,,,,,,,,,,,,,,,,,0,0,0,0,0,17,17,34,,,,739.3115169000012,None,738.1276721999966,739.328118999998,a,1,廉洁,k,1,0.676530199998524,0.48311739999917336,sja,m,21,2024_Apr_18_1838,mian,2021.2.3,60.15576734215231,
,,,,,,0,1,pic/flanker6.png,pic/flanker2.png,a,k,pic/AffRest1.png,,,,,,,,,,,,,,,,,,,,,,,,,0,0,0,0,0,18,18,50,,,,742.4113627999977,None,741.2279963999972,742.4279826999991,a,1,秀丽,k,1,0.5939013000024715,0.41788719999749446,sja,m,21,2024_Apr_18_1838,mian,2021.2.3,60.15576734215231,
,,,,,,0,1,pic/flanker5.png,pic/flanker1.png,s,k,pic/AffRest1.png,,,,,,,,,,,,,,,,,,,,,,,,,0,0,0,0,0,19,19,48,,,,745.4113505999994,None,744.2283545999962,745.4282448000013,s,1,有利,k,1,0.6222968000001856,0.6720305999988341,sja,m,21,2024_Apr_18_1838,mian,2021.2.3,60.15576734215231,
,,,,,,0,1,pic/flanker6.png,pic/flanker2.png,a,k,pic/AffRest1.png,,,,,,,,,,,,,,,,,,,,,,,,,0,0,0,0,0,20,20,66,,,,748.7279668999981,None,747.5440260999967,748.7444711999997,a,1,顽强,k,1,0.6277606000003289,0.3634078999966732,sja,m,21,2024_Apr_18_1838,mian,2021.2.3,60.15576734215231,
,,,,,,1,0,pic/flanker5.png,pic/flanker3.png,a,l,pic/AffRest1.png,,,,,,,,,,,,,,,,,,,,,,,,,0,0,0,0,0,21,21,79,,,,751.6445687000014,None,750.4613719999979,751.661073700001,a,1,别扭,l,1,0.9362640000035753,0.4322822999965865,sja,m,21,2024_Apr_18_1838,mian,2021.2.3,60.15576734215231,
,,,,,,1,0,pic/flanker6.png,pic/flanker4.png,s,l,pic/AffRest1.png,,,,,,,,,,,,,,,,,,,,,,,,,0,0,0,0,0,22,22,45,,,,754.9445341999963,None,753.7611637000009,754.9615905999963,s,1,闷热,l,1,1.0059257000029902,0.5014028000005055,sja,m,21,2024_Apr_18_1838,mian,2021.2.3,60.15576734215231,
,,,,,,1,0,pic/flanker6.png,pic/flanker4.png,s,l,pic/AffRest1.png,,,,,,,,,,,,,,,,,,,,,,,,,0,0,0,0,0,23,23,37,,,,758.4445880999992,None,757.2613606000014,758.4613601999954,s,1,胡涂,l,1,0.8089528999989852,0.5328766000020551,sja,m,21,2024_Apr_18_1838,mian,2021.2.3,60.15576734215231,
,,,,,,0,1,pic/flanker5.png,pic/flanker1.png,s,k,pic/AffRest1.png,,,,,,,,,,,,,,,,,,,,,,,,,0,0,0,0,0,24,24,56,,,,761.661431499997,None,760.4780071999994,761.6781169000024,s,1,豪放,k,1,0.8994136999972397,0.47129059999861056,sja,m,21,2024_Apr_18_1838,mian,2021.2.3,60.15576734215231,
,,,,,,0,1,pic/flanker5.png,pic/flanker1.png,s,k,pic/AffRest1.png,,,,,,,,,,,,,,,,,,,,,,,,,0,0,0,0,0,25,25,32,,,,764.8780501000001,None,763.6946820000012,764.8946570999979,s,1,留恋,k,1,1.535757300000114,0.6383900000000722,sja,m,21,2024_Apr_18_1838,mian,2021.2.3,60.15576734215231,
,,,,,,1,1,pic/flanker5.png,pic/flanker3.png,a,k,pic/AffRest1.png,,,,,,,,,,,,,,,,,,,,,,,,,0,0,0,0,0,26,26,36,,,,768.911377700002,None,767.7279364999995,768.9279946999959,a,1,振作,k,1,0.69282050000038,0.4769328999973368,sja,m,21,2024_Apr_18_1838,mian,2021.2.3,60.15576734215231,
,,,,,,0,0,pic/flanker5.png,pic/flanker1.png,s,l,pic/AffRest1.png,,,,,,,,,,,,,,,,,,,,,,,,,0,0,0,0,0,27,27,3,,,,772.1113438999964,None,770.9281125999987,772.1279360999979,s,1,孤单,l,1,0.7154131999996025,0.32852360000106273,sja,m,21,2024_Apr_18_1838,mian,2021.2.3,60.15576734215231,
,,,,,,1,0,pic/flanker5.png,pic/flanker3.png,a,l,pic/AffRest1.png,,,,,,,,,,,,,,,,,,,,,,,,,0,0,0,0,0,28,28,47,,,,775.1279651000004,None,773.9445054000025,775.1446804000007,a,1,慌忙,l,1,0.7973841999992146,0.4379913000011584,sja,m,21,2024_Apr_18_1838,mian,2021.2.3,60.15576734215231,
,,,,,,0,0,pic/flanker6.png,pic/flanker2.png,a,l,pic/AffRest1.png,,,,,,,,,,,,,,,,,,,,,,,,,0,0,0,0,0,29,29,49,,,,778.2445931999973,None,777.0613718000022,778.2615135000015,a,1,假冒,l,1,0.8874267999999574,0.41754390000278363,sja,m,21,2024_Apr_18_1838,mian,2021.2.3,60.15576734215231,
,,,,,,0,0,pic/flanker6.png,pic/flanker2.png,a,l,pic/AffRest1.png,,,,,,,,,,,,,,,,,,,,,,,,,0,0,0,0,0,30,30,9,,,,781.5449206999983,None,780.3612810999985,781.5612626000002,a,1,伤心,l,1,0.9081340999982785,0.44597710000380175,sja,m,21,2024_Apr_18_1838,mian,2021.2.3,60.15576734215231,
,,,,,,0,0,pic/flanker5.png,pic/flanker1.png,s,l,pic/AffRest1.png,,,,,,,,,,,,,,,,,,,,,,,,,0,0,0,0,0,31,31,11,,,,784.7282373999988,None,783.5447350999966,784.7447833999977,s,1,鲁莽,l,1,0.7227637999967556,0.4158134000026621,sja,m,21,2024_Apr_18_1838,mian,2021.2.3,60.15576734215231,
,,,,,,0,0,pic/flanker6.png,pic/flanker2.png,a,l,pic/AffRest1.png,,,,,,,,,,,,,,,,,,,,,,,,,0,0,0,0,0,32,32,25,,,,787.8610354999983,None,786.678055299999,787.8773027999996,a,1,轻率,l,1,0.6571291999935056,0.41816300000209594,sja,m,21,2024_Apr_18_1838,mian,2021.2.3,60.15576734215231,
,,,,,,0,1,pic/flanker6.png,pic/flanker2.png,a,k,pic/AffRest1.png,,,,,,,,,,,,,,,,,,,,,,,,,0,0,0,0,0,33,33,18,,,,790.7780641999998,None,789.5976023999974,790.8112820999959,a,1,圣洁,k,1,0.9396055000033812,0.40142789999663364,sja,m,21,2024_Apr_18_1838,mian,2021.2.3,60.15576734215231,
,,,,,,1,1,pic/flanker5.png,pic/flanker3.png,a,k,pic/AffRest1.png,,,,,,,,,,,,,,,,,,,,,,,,,0,0,0,0,0,34,34,52,,,,794.0946333999964,None,792.9116123999993,794.1113951000007,a,1,充裕,k,1,1.0519306999995024,0.48821119999774965,sja,m,21,2024_Apr_18_1838,mian,2021.2.3,60.15576734215231,
,,,,,,1,1,pic/flanker6.png,pic/flanker4.png,s,k,pic/AffRest1.png,,,,,,,,,,,,,,,,,,,,,,,,,0,0,0,0,0,35,35,22,,,,797.5277847999969,None,796.3447593000019,797.5446677,s,1,富丽,k,1,0.5818841000000248,0.46033900000475114,sja,m,21,2024_Apr_18_1838,mian,2021.2.3,60.15576734215231,
,,,,,,0,1,pic/flanker6.png,pic/flanker2.png,a,k,pic/AffRest1.png,,,,,,,,,,,,,,,,,,,,,,,,,0,0,0,0,0,36,36,42,,,,800.6290535000007,None,799.4450386999961,800.6458218999978,a,1,优雅,k,1,0.6590901000017766,0.552419400002691,sja,m,21,2024_Apr_18_1838,mian,2021.2.3,60.15576734215231,
,,,,,,1,1,pic/flanker6.png,pic/flanker4.png,s,k,pic/AffRest1.png,,,,,,,,,,,,,,,,,,,,,,,,,0,0,0,0,0,37,37,62,,,,803.7448213000025,None,802.5612955999968,803.7615130999984,s,1,精致,k,1,0.5762842999974964,0.4713474000018323,sja,m,21,2024_Apr_18_1838,mian,2021.2.3,60.15576734215231,
,,,,,,0,0,pic/flanker6.png,pic/flanker2.png,a,l,pic/AffRest1.png,,,,,,,,,,,,,,,,,,,,,,,,,0,0,0,0,0,38,38,33,,,,806.6456198000014,None,805.4620953999984,806.6624480999963,a,1,杂乱,l,1,0.715653499995824,0.852473300001293,sja,m,21,2024_Apr_18_1838,mian,2021.2.3,60.15576734215231,
,,,,,,1,0,pic/flanker6.png,pic/flanker4.png,s,l,pic/AffRest1.png,,,,,,,,,,,,,,,,,,,,,,,,,0,0,0,0,0,39,39,77,,,,810.2782066,None,809.0945053999967,810.294905499999,s,1,冷笑,l,1,0.8145951999977115,0.4564518000042881,sja,m,21,2024_Apr_18_1838,mian,2021.2.3,60.15576734215231,
,,,,,,1,0,pic/flanker6.png,pic/flanker4.png,s,l,pic/AffRest1.png,,,,,,,,,,,,,,,,,,,,,,,,,0,0,0,0,0,40,40,13,,,,813.3949751999971,None,812.2112452000001,813.4114731000009,s,1,禁止,l,1,0.8193697000024258,0.4333914000017103,sja,m,21,2024_Apr_18_1838,mian,2021.2.3,60.15576734215231,
,,,,,,0,1,pic/flanker5.png,pic/flanker1.png,s,k,pic/AffRest1.png,,,,,,,,,,,,,,,,,,,,,,,,,0,0,0,0,0,41,41,72,,,,816.5800135999962,None,815.3947996999996,816.5966542999959,s,1,赞成,k,1,1.0066761000052793,0.45749029999569757,sja,m,21,2024_Apr_18_1838,mian,2021.2.3,60.15576734215231,
,,,,,,1,0,pic/flanker6.png,pic/flanker4.png,s,l,pic/AffRest1.png,,,,,,,,,,,,,,,,,,,,,,,,,0,0,0,0,0,42,42,61,,,,819.9110113999996,None,818.7279598999958,819.9280571999989,s,1,嘲笑,l,1,0.8864934000011999,0.4217629000049783,sja,m,21,2024_Apr_18_1838,mian,2021.2.3,60.15576734215231,
,,,,,,0,0,pic/flanker6.png,pic/flanker2.png,a,l,pic/AffRest1.png,,,,,,,,,,,,,,,,,,,,,,,,,0,0,0,0,0,43,43,17,,,,823.0614988000016,None,821.877745400001,823.0780976000024,a,1,堵塞,l,1,0.8493668000010075,0.47435630000109086,sja,m,21,2024_Apr_18_1838,mian,2021.2.3,60.15576734215231,
,,,,,,1,1,pic/flanker5.png,pic/flanker3.png,a,k,pic/AffRest1.png,,,,,,,,,,,,,,,,,,,,,,,,,0,0,0,0,0,44,44,12,,,,826.2108948000023,None,825.0280742999967,826.2280774999963,a,1,热切,k,1,0.5405122000011033,0.42749519999779295,sja,m,21,2024_Apr_18_1838,mian,2021.2.3,60.15576734215231,
,,,,,,1,0,pic/flanker6.png,pic/flanker4.png,s,l,pic/AffRest1.png,,,,,,,,,,,,,,,,,,,,,,,,,0,0,0,0,0,45,45,21,,,,829.0614758000011,None,827.8780516999977,829.0781117000006,s,1,撒谎,l,1,0.6753800000005867,0.46477180000511,sja,m,21,2024_Apr_18_1838,mian,2021.2.3,60.15576734215231,
,,,,,,1,1,pic/flanker6.png,pic/flanker4.png,s,k,pic/AffRest1.png,,,,,,,,,,,,,,,,,,,,,,,,,0,0,0,0,0,46,46,78,,,,832.1281119999985,None,830.9443555999969,832.1447769000006,s,1,公平,k,1,0.691863200001535,0.4244574000040302,sja,m,21,2024_Apr_18_1838,mian,2021.2.3,60.15576734215231,
,,,,,,1,0,pic/flanker5.png,pic/flanker3.png,a,l,pic/AffRest1.png,,,,,,,,,,,,,,,,,,,,,,,,,0,0,0,0,0,47,47,15,,,,835.0781052999955,None,833.8947074000025,835.0946844999999,a,1,穷苦,l,1,0.6814545000015642,0.44819100000313483,sja,m,21,2024_Apr_18_1838,mian,2021.2.3,60.15576734215231,
,,,,,,0,1,pic/flanker6.png,pic/flanker2.png,a,k,pic/AffRest1.png,,,,,,,,,,,,,,,,,,,,,,,,,0,0,0,0,0,48,48,74,,,,838.1445703999998,None,836.9613417,838.1610756000009,a,1,爽朗,k,1,0.9337617999990471,0.4552269999985583,sja,m,21,2024_Apr_18_1838,mian,2021.2.3,60.15576734215231,
,,,,,,1,0,pic/flanker6.png,pic/flanker4.png,s,l,pic/AffRest1.png,,,,,,,,,,,,,,,,,,,,,,,,,0,0,0,0,0,49,49,29,,,,841.4776977000001,None,840.2946284999998,841.4945003999965,s,1,郁闷,l,1,0.8466789000012795,0.46938690000388306,sja,m,21,2024_Apr_18_1838,mian,2021.2.3,60.15576734215231,
,,,,,,1,0,pic/flanker5.png,pic/flanker3.png,a,l,pic/AffRest1.png,,,,,,,,,,,,,,,,,,,,,,,,,0,0,0,0,0,50,50,39,,,,844.7279450999995,None,843.5445916999961,844.7446541999961,a,1,懒惰,l,1,0.8408884000018588,0.527885100003914,sja,m,21,2024_Apr_18_1838,mian,2021.2.3,60.15576734215231,
,,,,,,0,1,pic/flanker6.png,pic/flanker2.png,a,k,pic/AffRest1.png,,,,,,,,,,,,,,,,,,,,,,,,,0,0,0,0,0,51,51,26,,,,848.1446711999961,None,846.9615866000022,848.1614934999961,a,1,吉祥,k,1,0.8481466000012006,0.4817719999991823,sja,m,21,2024_Apr_18_1838,mian,2021.2.3,60.15576734215231,
,,,,,,1,0,pic/flanker5.png,pic/flanker3.png,a,l,pic/AffRest1.png,,,,,,,,,,,,,,,,,,,,,,,,,0,0,0,0,0,52,52,31,,,,851.2947217999972,None,850.1112310999961,851.311148599998,a,1,忧虑,l,1,0.6330242999974871,0.48864730000059353,sja,m,21,2024_Apr_18_1838,mian,2021.2.3,60.15576734215231,
,,,,,,1,1,pic/flanker5.png,pic/flanker3.png,a,k,pic/AffRest1.png,,,,,,,,,,,,,,,,,,,,,,,,,0,0,0,0,0,53,53,68,,,,854.2947723999969,None,853.1112221000003,854.3113274999996,a,1,典雅,k,1,0.6573552000045311,0.4666419999994105,sja,m,21,2024_Apr_18_1838,mian,2021.2.3,60.15576734215231,
,,,,,,1,1,pic/flanker6.png,pic/flanker4.png,s,k,pic/AffRest1.png,,,,,,,,,,,,,,,,,,,,,,,,,0,0,0,0,0,54,54,6,,,,857.3443026999958,None,856.1608427999963,857.3610869999975,s,1,诚恳,k,1,0.87046709999413,0.4619050999972387,sja,m,21,2024_Apr_18_1838,mian,2021.2.3,60.15576734215231,
,,,,,,0,0,pic/flanker5.png,pic/flanker1.png,s,l,pic/AffRest1.png,,,,,,,,,,,,,,,,,,,,,,,,,0,0,0,0,0,55,55,67,,,,860.7279168000023,None,859.5444016999973,860.7447829000012,s,1,争吵,l,1,0.637229899999511,0.5327562000020407,sja,m,21,2024_Apr_18_1838,mian,2021.2.3,60.15576734215231,
,,,,,,1,1,pic/flanker5.png,pic/flanker3.png,a,k,pic/AffRest1.png,,,,,,,,,,,,,,,,,,,,,,,,,0,0,0,0,0,56,56,76,,,,863.827678499998,None,862.6447292000012,863.8442856999973,a,1,如愿,k,1,0.6490641000054893,0.4338477999990573,sja,m,21,2024_Apr_18_1838,mian,2021.2.3,60.15576734215231,
,,,,,,1,1,pic/flanker5.png,pic/flanker3.png,a,k,pic/AffRest1.png,,,,,,,,,,,,,,,,,,,,,,,,,0,0,0,0,0,57,57,60,,,,866.9456371999986,None,865.7609612000015,866.9624287999977,a,1,敬佩,k,1,0.6568581999963499,0.40585750000172993,sja,m,21,2024_Apr_18_1838,mian,2021.2.3,60.15576734215231,
,,,,,,0,1,pic/flanker5.png,pic/flanker1.png,s,k,pic/AffRest1.png,,,,,,,,,,,,,,,,,,,,,,,,,0,0,0,0,0,58,58,8,,,,870.0111615999995,None,868.8288181000025,870.0279353000005,s,1,雄厚,k,1,0.5971965999997337,0.4799175000007381,sja,m,21,2024_Apr_18_1838,mian,2021.2.3,60.15576734215231,
,,,,,,1,1,pic/flanker6.png,pic/flanker4.png,s,k,pic/AffRest1.png,,,,,,,,,,,,,,,,,,,,,,,,,0,0,0,0,0,59,59,54,,,,872.9108397000018,None,871.7276674000022,872.9275491000008,s,1,俊秀,k,1,0.5675241999997525,0.500541700006579,sja,m,21,2024_Apr_18_1838,mian,2021.2.3,60.15576734215231,
,,,,,,0,0,pic/flanker5.png,pic/flanker1.png,s,l,pic/AffRest1.png,,,,,,,,,,,,,,,,,,,,,,,,,0,0,0,0,0,60,60,51,,,,875.9442063999959,None,874.7610824000003,875.9612620999978,s,1,焦躁,l,1,0.6469129000033718,0.3440665000016452,sja,m,21,2024_Apr_18_1838,mian,2021.2.3,60.15576734215231,
,,,,,,0,1,pic/flanker6.png,pic/flanker2.png,a,k,pic/AffRest1.png,,,,,,,,,,,,,,,,,,,,,,,,,0,0,0,0,0,61,61,58,,,,878.9109329999992,None,877.7277727999972,878.9278478999986,a,1,前进,k,1,1.0681327000056626,0.3824405999985174,sja,m,21,2024_Apr_18_1838,mian,2021.2.3,60.15576734215231,
,,,,,,1,0,pic/flanker6.png,pic/flanker4.png,s,l,pic/AffRest1.png,,,,,,,,,,,,,,,,,,,,,,,,,0,0,0,0,0,62,62,69,,,,882.2945598000006,None,881.1113321000012,882.3113451999961,s,1,落后,l,1,0.7629420000012033,0.5990156000043498,sja,m,21,2024_Apr_18_1838,mian,2021.2.3,60.15576734215231,
,,,,,,1,1,pic/flanker6.png,pic/flanker4.png,s,k,pic/AffRest1.png,,,,,,,,,,,,,,,,,,,,,,,,,0,0,0,0,0,63,63,70,,,,885.5443746000019,None,884.3607849999971,885.5610143000013,s,1,卓越,k,1,0.5648440000004484,0.4539703999980702,sja,m,21,2024_Apr_18_1838,mian,2021.2.3,60.15576734215231,
,,,,,,1,0,pic/flanker5.png,pic/flanker3.png,a,l,pic/AffRest1.png,,,,,,,,,,,,,,,,,,,,,,,,,0,0,0,0,0,64,64,23,,,,888.5444284999976,None,887.3608021999971,888.5611435999963,a,1,处罚,l,1,0.5863144000031753,0.47983689999819035,sja,m,21,2024_Apr_18_1838,mian,2021.2.3,60.15576734215231,
,,,,,,0,1,pic/flanker5.png,pic/flanker1.png,s,k,pic/AffRest1.png,,,,,,,,,,,,,,,,,,,,,,,,,0,0,0,0,0,65,65,24,,,,891.5446659000008,None,890.3614262999981,891.5611251000009,s,1,珍藏,k,1,0.6653045999992173,0.3422682999953395,sja,m,21,2024_Apr_18_1838,mian,2021.2.3,60.15576734215231,
,,,,,,1,1,pic/flanker6.png,pic/flanker4.png,s,k,pic/AffRest1.png,,,,,,,,,,,,,,,,,,,,,,,,,0,0,0,0,0,66,66,38,,,,894.5280081000019,None,893.3443770000013,894.5446134000013,s,1,旺盛,k,1,0.590786399996432,0.42343049999908544,sja,m,21,2024_Apr_18_1838,mian,2021.2.3,60.15576734215231,
,,,,,,1,0,pic/flanker5.png,pic/flanker3.png,a,l,pic/AffRest1.png,,,,,,,,,,,,,,,,,,,,,,,,,0,0,0,0,0,67,67,63,,,,897.3778099999981,None,896.1946497999961,897.3941179999965,a,1,烦恼,l,1,0.8229882000014186,0.47779129999980796,sja,m,21,2024_Apr_18_1838,mian,2021.2.3,60.15576734215231,
,,,,,,0,1,pic/flanker6.png,pic/flanker2.png,a,k,pic/AffRest1.png,,,,,,,,,,,,,,,,,,,,,,,,,0,0,0,0,0,68,68,2,,,,900.6112863000017,None,899.4279214999988,900.6275215999995,a,1,舒畅,k,1,0.7601723999978276,0.5783005000048433,sja,m,21,2024_Apr_18_1838,mian,2021.2.3,60.15576734215231,
,,,,,,1,1,pic/flanker5.png,pic/flanker3.png,a,k,pic/AffRest1.png,,,,,,,,,,,,,,,,,,,,,,,,,0,0,0,0,0,69,69,44,,,,903.8778701999981,None,902.6943825999988,903.8945517999964,a,1,清秀,k,1,0.5986904999954277,0.43641850000130944,sja,m,21,2024_Apr_18_1838,mian,2021.2.3,60.15576734215231,
,,,,,,0,1,pic/flanker5.png,pic/flanker1.png,s,k,pic/AffRest1.png,,,,,,,,,,,,,,,,,,,,,,,,,0,0,0,0,0,70,70,40,,,,906.8943671000015,None,905.711086299998,906.911067699999,s,1,丰满,k,1,0.5596605000027921,0.3811903000023449,sja,m,21,2024_Apr_18_1838,mian,2021.2.3,60.15576734215231,
,,,,,,0,0,pic/flanker6.png,pic/flanker2.png,a,l,pic/AffRest1.png,,,,,,,,,,,,,,,,,,,,,,,,,0,0,0,0,0,71,71,65,,,,909.7112882000001,None,908.5279482999977,909.7278291999974,a,1,缺乏,l,1,0.7365706999989925,0.48589699999865843,sja,m,21,2024_Apr_18_1838,mian,2021.2.3,60.15576734215231,
,,,,,,0,0,pic/flanker5.png,pic/flanker1.png,s,l,pic/AffRest1.png,,,,,,,,,,,,,,,,,,,,,,,,,0,0,0,0,0,72,72,19,,,,912.8278893999959,None,911.6444238999975,912.8443456000023,s,1,怀疑,k,0,0.5319737000027089,0.38429989999713143,sja,m,21,2024_Apr_18_1838,mian,2021.2.3,60.15576734215231,
,,,,,,1,0,pic/flanker5.png,pic/flanker3.png,a,l,pic/AffRest1.png,,,,,,,,,,,,,,,,,,,,,,,,,0,0,0,0,0,73,73,55,,,,915.6278748999976,None,914.4445683000013,915.6446542999984,a,1,心慌,l,1,0.8297915000002831,0.465446800000791,sja,m,21,2024_Apr_18_1838,mian,2021.2.3,60.15576734215231,
,,,,,,1,1,pic/flanker5.png,pic/flanker3.png,a,k,pic/AffRest1.png,,,,,,,,,,,,,,,,,,,,,,,,,0,0,0,0,0,74,74,4,,,,918.7946936000008,None,917.6108902999986,918.811389800001,a,1,鲜艳,k,1,0.8064699999958975,0.4327855000010459,sja,m,21,2024_Apr_18_1838,mian,2021.2.3,60.15576734215231,
,,,,,,0,1,pic/flanker5.png,pic/flanker1.png,s,k,pic/AffRest1.png,,,,,,,,,,,,,,,,,,,,,,,,,0,0,0,0,0,75,75,64,,,,921.9776006999964,None,920.7942159000013,921.9944411999968,s,1,生动,k,1,0.5770697999978438,0.38826759999938076,sja,m,21,2024_Apr_18_1838,mian,2021.2.3,60.15576734215231,
,,,,,,0,0,pic/flanker5.png,pic/flanker1.png,s,l,pic/AffRest1.png,,,,,,,,,,,,,,,,,,,,,,,,,0,0,0,0,0,76,76,35,,,,924.8779128000024,None,923.6946807999993,924.8945785999967,s,1,黑暗,l,1,0.6094130999990739,0.3408964999980526,sja,m,21,2024_Apr_18_1838,mian,2021.2.3,60.15576734215231,
,,,,,,0,1,pic/flanker5.png,pic/flanker1.png,s,k,pic/AffRest1.png,,,,,,,,,,,,,,,,,,,,,,,,,0,0,0,0,0,77,77,0,,,,927.8115736999971,None,926.6275868000012,927.8276820999963,s,1,瑰丽,k,1,0.6321979000058491,0.46867070000007516,sja,m,21,2024_Apr_18_1838,mian,2021.2.3,60.15576734215231,
,,,,,,0,0,pic/flanker5.png,pic/flanker1.png,s,l,pic/AffRest1.png,,,,,,,,,,,,,,,,,,,,,,,,,0,0,0,0,0,78,78,43,,,,930.8940035999985,None,929.7107487999965,930.9113526000001,s,1,自卑,l,1,0.6941024999978254,0.3573841000034008,sja,m,21,2024_Apr_18_1838,mian,2021.2.3,60.15576734215231,
,,,,,,1,0,pic/flanker6.png,pic/flanker4.png,s,l,pic/AffRest1.png,,,,,,,,,,,,,,,,,,,,,,,,,0,0,0,0,0,79,79,5,,,,933.7944177999962,None,932.6108591000011,933.8113976000022,s,1,罚款,l,1,0.8504198000009637,0.5133255000037025,sja,m,21,2024_Apr_18_1838,mian,2021.2.3,60.15576734215231,
,,,,,,,,,,,,pic/AffRest1.png,,,,,,,,,,,,,,,,,,,,,,,,,0,0,0,0,,,,,,,,,,,,,,,,,,,sja,m,21,2024_Apr_18_1838,mian,2021.2.3,60.15576734215231,
,,,,,,0,0,pic/flanker5.png,pic/flanker1.png,s,l,pic/AffRest2.png,,,,,,,,,,,,,,,,,,,,,,,,,0,1,1,1,0,0,0,19,,,,944.7440512999965,None,943.5433835000003,944.7440512999965,s,1,排斥,l,1,1.1211476999960723,0.3910388000003877,sja,m,21,2024_Apr_18_1838,mian,2021.2.3,60.15576734215231,
,,,,,,0,1,pic/flanker6.png,pic/flanker2.png,a,k,pic/AffRest2.png,,,,,,,,,,,,,,,,,,,,,,,,,0,1,1,1,0,1,1,50,,,,948.1107465000023,None,946.9276113000014,948.1279100999964,a,1,公平,k,1,0.6381223999997019,0.34220799999457086,sja,m,21,2024_Apr_18_1838,mian,2021.2.3,60.15576734215231,
,,,,,,0,0,pic/flanker6.png,pic/flanker2.png,a,l,pic/AffRest2.png,,,,,,,,,,,,,,,,,,,,,,,,,0,1,1,1,0,2,2,57,,,,951.0272690999991,None,949.8438553000015,951.0438891000013,a,1,杂乱,l,1,0.7789631999985431,0.6909755000015139,sja,m,21,2024_Apr_18_1838,mian,2021.2.3,60.15576734215231,
,,,,,,0,0,pic/flanker6.png,pic/flanker2.png,a,l,pic/AffRest2.png,,,,,,,,,,,,,,,,,,,,,,,,,0,1,1,1,0,3,3,33,,,,954.3946141999986,None,953.2110792000021,954.410999300002,a,1,懒惰,l,1,0.7777223000011873,0.37677340000664117,sja,m,21,2024_Apr_18_1838,mian,2021.2.3,60.15576734215231,
,,,,,,0,0,pic/flanker5.png,pic/flanker1.png,s,l,pic/AffRest2.png,,,,,,,,,,,,,,,,,,,,,,,,,0,1,1,1,0,4,4,75,,,,957.527098599996,None,956.3443034000011,957.5443004999979,s,1,别扭,l,1,0.7606985999955214,0.9984588999941479,sja,m,21,2024_Apr_18_1838,mian,2021.2.3,60.15576734215231,
,,,,,,1,0,pic/flanker6.png,pic/flanker4.png,s,l,pic/AffRest2.png,,,,,,,,,,,,,,,,,,,,,,,,,0,1,1,1,0,5,5,5,,,,961.1108531999998,None,959.9271588999982,961.1278695000001,s,1,罚款,l,1,0.7287112999983947,0.5474821000025258,sja,m,21,2024_Apr_18_1838,mian,2021.2.3,60.15576734215231,
,,,,,,1,0,pic/flanker6.png,pic/flanker4.png,s,l,pic/AffRest2.png,,,,,,,,,,,,,,,,,,,,,,,,,0,1,1,1,0,6,6,13,,,,964.2107990000004,None,963.0272272000002,964.2275251999963,s,1,悲观,l,1,0.6751800000056392,0.5943068999986281,sja,m,21,2024_Apr_18_1838,mian,2021.2.3,60.15576734215231,
,,,,,,1,0,pic/flanker5.png,pic/flanker3.png,a,l,pic/AffRest2.png,,,,,,,,,,,,,,,,,,,,,,,,,0,1,1,1,0,7,7,55,,,,967.4110946000001,None,966.2272378999987,967.4277909000011,a,1,自卑,l,1,0.9151166000010562,0.7858770999955595,sja,m,21,2024_Apr_18_1838,mian,2021.2.3,60.15576734215231,
,,,,,,0,0,pic/flanker6.png,pic/flanker2.png,a,l,pic/AffRest2.png,,,,,,,,,,,,,,,,,,,,,,,,,0,1,1,1,0,8,8,49,,,,970.9446253999995,None,969.7611518999984,970.9612230999992,a,1,冷笑,l,1,0.599902199995995,0.43591230000311043,sja,m,21,2024_Apr_18_1838,mian,2021.2.3,60.15576734215231,
,,,,,,0,0,pic/flanker5.png,pic/flanker1.png,s,l,pic/AffRest2.png,,,,,,,,,,,,,,,,,,,,,,,,,0,1,1,1,0,9,9,11,,,,973.8110145999963,None,972.6276689000006,973.8277490999972,s,1,缺乏,l,1,0.6695435000001453,0.8862688000008347,sja,m,21,2024_Apr_18_1838,mian,2021.2.3,60.15576734215231,
,,,,,,1,0,pic/flanker6.png,pic/flanker4.png,s,l,pic/AffRest2.png,,,,,,,,,,,,,,,,,,,,,,,,,0,1,1,1,0,10,10,61,,,,977.2108942999985,None,976.0279383000016,977.2277707999965,s,1,胡涂,l,1,1.0610012999968603,0.5836989999952493,sja,m,21,2024_Apr_18_1838,mian,2021.2.3,60.15576734215231,
,,,,,,1,1,pic/flanker5.png,pic/flanker3.png,a,k,pic/AffRest2.png,,,,,,,,,,,,,,,,,,,,,,,,,0,1,1,1,0,11,11,4,,,,980.727987899998,None,979.5442264000012,980.744566100002,a,1,畅销,k,1,1.0018449999988661,0.48458540000137873,sja,m,21,2024_Apr_18_1838,mian,2021.2.3,60.15576734215231,
,,,,,,1,0,pic/flanker6.png,pic/flanker4.png,s,l,pic/AffRest2.png,,,,,,,,,,,,,,,,,,,,,,,,,0,1,1,1,0,12,12,53,,,,984.2442473999981,None,983.0610917000013,984.2609962999995,s,1,烦恼,l,1,0.5881910999960382,0.5120112000004156,sja,m,21,2024_Apr_18_1838,mian,2021.2.3,60.15576734215231,
,,,,,,1,1,pic/flanker6.png,pic/flanker4.png,s,k,pic/AffRest2.png,,,,,,,,,,,,,,,,,,,,,,,,,0,1,1,1,0,13,13,54,,,,987.2779737999954,None,986.0944364999959,987.2944314999986,s,1,富丽,k,1,0.6362332999997307,0.5523105000029318,sja,m,21,2024_Apr_18_1838,mian,2021.2.3,60.15576734215231,
,,,,,,0,1,pic/flanker5.png,pic/flanker1.png,s,k,pic/AffRest2.png,,,,,,,,,,,,,,,,,,,,,,,,,0,1,1,1,0,14,14,40,,,,990.3612018999993,None,989.1775254999957,990.3771092000025,s,1,俊秀,k,1,0.5189166000054684,0.460865000000922,sja,m,21,2024_Apr_18_1838,mian,2021.2.3,60.15576734215231,
,,,,,,1,0,pic/flanker6.png,pic/flanker4.png,s,l,pic/AffRest2.png,,,,,,,,,,,,,,,,,,,,,,,,,0,1,1,1,0,15,15,21,,,,993.1777217999988,None,991.9943600999977,993.1944016999987,s,1,心慌,l,1,0.6600149000005331,0.48570370000379626,sja,m,21,2024_Apr_18_1838,mian,2021.2.3,60.15576734215231,
,,,,,,1,0,pic/flanker6.png,pic/flanker4.png,s,l,pic/AffRest2.png,,,,,,,,,,,,,,,,,,,,,,,,,0,1,1,1,0,16,16,45,,,,996.1608562999972,None,994.9772287000014,996.1776472999991,s,1,嘲笑,l,1,0.739474699999846,0.49273850000463426,sja,m,21,2024_Apr_18_1838,mian,2021.2.3,60.15576734215231,
,,,,,,1,1,pic/flanker5.png,pic/flanker3.png,a,k,pic/AffRest2.png,,,,,,,,,,,,,,,,,,,,,,,,,0,1,1,1,0,17,17,52,,,,999.3776762999987,None,998.1940543999954,999.3946081999966,a,1,前进,k,1,0.7590068999998039,0.48449810000602156,sja,m,21,2024_Apr_18_1838,mian,2021.2.3,60.15576734215231,
,,,,,,0,0,pic/flanker5.png,pic/flanker1.png,s,l,pic/AffRest2.png,,,,,,,,,,,,,,,,,,,,,,,,,0,1,1,1,0,18,18,67,,,,1002.4941094000023,None,1001.3116751999987,1002.5109310999978,s,1,孤单,l,1,0.7838075999970897,0.566856600002211,sja,m,21,2024_Apr_18_1838,mian,2021.2.3,60.15576734215231,
,,,,,,0,1,pic/flanker6.png,pic/flanker2.png,a,k,pic/AffRest2.png,,,,,,,,,,,,,,,,,,,,,,,,,0,1,1,1,0,19,19,26,,,,1005.8777647999959,None,1004.6943503000002,1005.894303000001,a,1,鲜艳,k,1,0.5916597000032198,0.4868701000013971,sja,m,21,2024_Apr_18_1838,mian,2021.2.3,60.15576734215231,
,,,,,,1,1,pic/flanker5.png,pic/flanker3.png,a,k,pic/AffRest2.png,,,,,,,,,,,,,,,,,,,,,,,,,0,1,1,1,0,20,20,12,,,,1008.7944179999977,None,1007.6105247000014,1008.8109153999976,a,1,羡慕,k,1,0.6214345000043977,0.503481699997792,sja,m,21,2024_Apr_18_1838,mian,2021.2.3,60.15576734215231,
,,,,,,1,1,pic/flanker6.png,pic/flanker4.png,s,k,pic/AffRest2.png,,,,,,,,,,,,,,,,,,,,,,,,,0,1,1,1,0,21,21,22,,,,1011.9610169000007,None,1010.7775933000012,1011.9775857999994,s,1,卓越,k,1,0.6064466999960132,0.6467343000040273,sja,m,21,2024_Apr_18_1838,mian,2021.2.3,60.15576734215231,
,,,,,,1,1,pic/flanker5.png,pic/flanker3.png,a,k,pic/AffRest2.png,,,,,,,,,,,,,,,,,,,,,,,,,0,1,1,1,0,22,22,68,,,,1015.0445040999984,None,1013.8611994000021,1015.060920099997,a,1,有利,k,1,0.5919821999996202,0.46997710000141524,sja,m,21,2024_Apr_18_1838,mian,2021.2.3,60.15576734215231,
,,,,,,1,1,pic/flanker5.png,pic/flanker3.png,a,k,pic/AffRest2.png,,,,,,,,,,,,,,,,,,,,,,,,,0,1,1,1,0,23,23,28,,,,1018.1443377999967,None,1016.9608791999999,1018.1609519999984,a,1,顽强,k,1,0.7195165000011912,0.4524593999958597,sja,m,21,2024_Apr_18_1838,mian,2021.2.3,60.15576734215231,
,,,,,,0,1,pic/flanker6.png,pic/flanker2.png,a,k,pic/AffRest2.png,,,,,,,,,,,,,,,,,,,,,,,,,0,1,1,1,0,24,24,34,,,,1021.2608543999959,None,1020.0776750000005,1021.2776582000006,a,1,如愿,k,1,0.561091800002032,0.41835140000330284,sja,m,21,2024_Apr_18_1838,mian,2021.2.3,60.15576734215231,
,,,,,,0,0,pic/flanker6.png,pic/flanker2.png,a,l,pic/AffRest2.png,,,,,,,,,,,,,,,,,,,,,,,,,0,1,1,1,0,25,25,41,,,,1024.1278026,None,1022.9443429000021,1024.144521000002,a,1,撒谎,l,1,0.6793355999980122,0.3736691999947652,sja,m,21,2024_Apr_18_1838,mian,2021.2.3,60.15576734215231,
,,,,,,0,0,pic/flanker5.png,pic/flanker1.png,s,l,pic/AffRest2.png,,,,,,,,,,,,,,,,,,,,,,,,,0,1,1,1,0,26,26,51,,,,1027.1108965999956,None,1025.927792800001,1027.127505700002,s,1,厌恶,l,1,0.6069482000020798,0.5673766000036267,sja,m,21,2024_Apr_18_1838,mian,2021.2.3,60.15576734215231,
,,,,,,1,0,pic/flanker6.png,pic/flanker4.png,s,l,pic/AffRest2.png,,,,,,,,,,,,,,,,,,,,,,,,,0,1,1,1,0,27,27,29,,,,1030.094011699999,None,1028.9107695999992,1030.1111421000023,s,1,忧虑,l,1,0.6112917999998899,0.5130136000007042,sja,m,21,2024_Apr_18_1838,mian,2021.2.3,60.15576734215231,
,,,,,,1,0,pic/flanker6.png,pic/flanker4.png,s,l,pic/AffRest2.png,,,,,,,,,,,,,,,,,,,,,,,,,0,1,1,1,0,28,28,77,,,,1033.1941892999967,None,1032.0110628999973,1033.2109963999974,s,1,落后,l,1,0.5389570000043022,0.5280943000034313,sja,m,21,2024_Apr_18_1838,mian,2021.2.3,60.15576734215231,
,,,,,,0,1,pic/flanker5.png,pic/flanker1.png,s,k,pic/AffRest2.png,,,,,,,,,,,,,,,,,,,,,,,,,0,1,1,1,0,29,29,8,,,,1036.144451399996,None,1034.9611268000008,1036.1611770000018,s,1,富足,k,1,0.9498497000022326,0.6866968999966048,sja,m,21,2024_Apr_18_1838,mian,2021.2.3,60.15576734215231,
,,,,,,1,1,pic/flanker6.png,pic/flanker4.png,s,k,pic/AffRest2.png,,,,,,,,,,,,,,,,,,,,,,,,,0,1,1,1,0,30,30,78,,,,1039.6110986999993,None,1038.4277767000021,1039.627774499997,s,1,秀丽,k,1,1.0869483000060427,0.5297041000012541,sja,m,21,2024_Apr_18_1838,mian,2021.2.3,60.15576734215231,
,,,,,,1,0,pic/flanker5.png,pic/flanker3.png,a,l,pic/AffRest2.png,,,,,,,,,,,,,,,,,,,,,,,,,0,1,1,1,0,31,31,71,,,,1043.2607587999955,None,1042.0777189,1043.2775526999976,a,1,堵塞,l,1,0.7461467000030098,0.5510409999988042,sja,m,21,2024_Apr_18_1838,mian,2021.2.3,60.15576734215231,
,,,,,,1,0,pic/flanker5.png,pic/flanker3.png,a,l,pic/AffRest2.png,,,,,,,,,,,,,,,,,,,,,,,,,0,1,1,1,0,32,32,79,,,,1046.3945459000024,None,1045.2109789000024,1046.4110913999975,a,1,鲁莽,l,1,0.6731413999950746,0.5247098999971058,sja,m,21,2024_Apr_18_1838,mian,2021.2.3,60.15576734215231,
,,,,,,1,0,pic/flanker5.png,pic/flanker3.png,a,l,pic/AffRest2.png,,,,,,,,,,,,,,,,,,,,,,,,,0,1,1,1,0,33,33,23,,,,1049.427756099998,None,1048.2440321999966,1049.4444339999973,a,1,损害,l,1,1.2569660000008298,0.4861354999957257,sja,m,21,2024_Apr_18_1838,mian,2021.2.3,60.15576734215231,
,,,,,,0,0,pic/flanker6.png,pic/flanker2.png,a,l,pic/AffRest2.png,,,,,,,,,,,,,,,,,,,,,,,,,0,1,1,1,0,34,34,65,,,,1053.0610545000018,None,1051.8783681999994,1053.0775853000014,a,1,禁止,l,1,1.6931616000001668,0.6916827999957604,sja,m,21,2024_Apr_18_1838,mian,2021.2.3,60.15576734215231,
,,,,,,1,1,pic/flanker5.png,pic/flanker3.png,a,k,pic/AffRest2.png,,,,,,,,,,,,,,,,,,,,,,,,,0,1,1,1,0,35,35,76,,,,1057.3276506999973,None,1056.1438807000013,1057.3443001999985,a,1,诚恳,k,1,0.7623203999974066,0.4003318999966723,sja,m,21,2024_Apr_18_1838,mian,2021.2.3,60.15576734215231,
,,,,,,1,0,pic/flanker5.png,pic/flanker3.png,a,l,pic/AffRest2.png,,,,,,,,,,,,,,,,,,,,,,,,,0,1,1,1,0,36,36,63,,,,1060.4940843000004,None,1059.310839400001,1060.5107997000014,a,1,沮丧,l,1,0.5465880000047036,0.4732252999965567,sja,m,21,2024_Apr_18_1838,mian,2021.2.3,60.15576734215231,
,,,,,,1,1,pic/flanker6.png,pic/flanker4.png,s,k,pic/AffRest2.png,,,,,,,,,,,,,,,,,,,,,,,,,0,1,1,1,0,37,37,14,,,,1063.3442133999997,None,1062.160946099997,1063.3609840999998,s,1,生动,k,1,0.9963250000000698,0.7483104999992065,sja,m,21,2024_Apr_18_1838,mian,2021.2.3,60.15576734215231,
,,,,,,0,0,pic/flanker6.png,pic/flanker2.png,a,l,pic/AffRest2.png,,,,,,,,,,,,,,,,,,,,,,,,,0,1,1,1,0,38,38,17,,,,1066.9109075000015,None,1065.7276676999973,1066.9274898000003,a,1,争吵,l,1,0.7741442000042298,0.43255849999695783,sja,m,21,2024_Apr_18_1838,mian,2021.2.3,60.15576734215231,
,,,,,,0,1,pic/flanker5.png,pic/flanker1.png,s,k,pic/AffRest2.png,,,,,,,,,,,,,,,,,,,,,,,,,0,1,1,1,0,39,39,16,,,,1069.9274806999965,None,1068.7442104000002,1069.9441772999999,s,1,吉祥,k,1,0.7507656999950996,0.7188527999969665,sja,m,21,2024_Apr_18_1838,mian,2021.2.3,60.15576734215231,
,,,,,,0,0,pic/flanker5.png,pic/flanker1.png,s,l,pic/AffRest2.png,,,,,,,,,,,,,,,,,,,,,,,,,0,1,1,1,0,40,40,59,,,,1073.394128,None,1072.2109578000018,1073.4106782000017,s,1,焦躁,l,1,0.7449860999986413,0.8468567999952938,sja,m,21,2024_Apr_18_1838,mian,2021.2.3,60.15576734215231,
,,,,,,0,0,pic/flanker6.png,pic/flanker2.png,a,l,pic/AffRest2.png,,,,,,,,,,,,,,,,,,,,,,,,,0,1,1,1,0,41,41,1,,,,1076.9618217000025,None,1075.7774877999982,1076.9783395999984,a,1,浪费,l,1,0.8047043999977177,0.44020540000201436,sja,m,21,2024_Apr_18_1838,mian,2021.2.3,60.15576734215231,
,,,,,,0,0,pic/flanker6.png,pic/flanker2.png,a,l,pic/AffRest2.png,,,,,,,,,,,,,,,,,,,,,,,,,0,1,1,1,0,42,42,25,,,,1080.1441856999954,None,1078.9609483000022,1080.1610619999992,a,1,失意,l,1,0.7324611999938497,0.42777709999791114,sja,m,21,2024_Apr_18_1838,mian,2021.2.3,60.15576734215231,
,,,,,,0,1,pic/flanker6.png,pic/flanker2.png,a,k,pic/AffRest2.png,,,,,,,,,,,,,,,,,,,,,,,,,0,1,1,1,0,43,43,42,,,,1083.1437940999967,None,1081.9607814999981,1083.1603523000013,a,1,热切,k,1,0.7739734000060707,0.4291215999983251,sja,m,21,2024_Apr_18_1838,mian,2021.2.3,60.15576734215231,
,,,,,,0,1,pic/flanker6.png,pic/flanker2.png,a,k,pic/AffRest2.png,,,,,,,,,,,,,,,,,,,,,,,,,0,1,1,1,0,44,44,10,,,,1086.327829199996,None,1085.1446017999988,1086.3439494999984,a,1,旺盛,k,1,0.8523993999988306,0.6193698999995831,sja,m,21,2024_Apr_18_1838,mian,2021.2.3,60.15576734215231,
,,,,,,0,0,pic/flanker6.png,pic/flanker2.png,a,l,pic/AffRest2.png,,,,,,,,,,,,,,,,,,,,,,,,,0,1,1,1,0,45,45,73,,,,1089.7444867000013,None,1088.561028600001,1089.7612258000008,a,1,慌忙,l,1,0.6446234999966691,0.3842940999966231,sja,m,21,2024_Apr_18_1838,mian,2021.2.3,60.15576734215231,
,,,,,,0,0,pic/flanker5.png,pic/flanker1.png,s,l,pic/AffRest2.png,,,,,,,,,,,,,,,,,,,,,,,,,0,1,1,1,0,46,46,35,,,,1092.6606170000014,None,1091.477030199996,1092.6774441000016,None,0,逃避,l,1,2.1657819999963976,,sja,m,21,2024_Apr_18_1838,mian,2021.2.3,60.15576734215231,
,,,,,,0,1,pic/flanker5.png,pic/flanker1.png,s,k,pic/AffRest2.png,,,,,,,,,,,,,,,,,,,,,,,,,0,1,1,1,0,47,47,24,,,,1098.1443446999983,None,1096.961029099999,1098.1610973999996,s,1,优雅,k,1,0.7959520000003977,0.5439419999966049,sja,m,21,2024_Apr_18_1838,mian,2021.2.3,60.15576734215231,
,,,,,,1,0,pic/flanker5.png,pic/flanker3.png,a,l,pic/AffRest2.png,,,,,,,,,,,,,,,,,,,,,,,,,0,1,1,1,0,48,48,7,,,,1101.410925600001,None,1100.227378399999,1101.4277118999962,a,1,闷热,l,1,0.9239156000039657,0.49922220000007655,sja,m,21,2024_Apr_18_1838,mian,2021.2.3,60.15576734215231,
,,,,,,0,1,pic/flanker6.png,pic/flanker2.png,a,k,pic/AffRest2.png,,,,,,,,,,,,,,,,,,,,,,,,,0,1,1,1,0,49,49,66,,,,1104.7107025000005,None,1103.5274982999981,1104.7277553999957,a,1,豪放,k,1,0.6420689999940805,0.3960196999978507,sja,m,21,2024_Apr_18_1838,mian,2021.2.3,60.15576734215231,
,,,,,,0,1,pic/flanker5.png,pic/flanker1.png,s,k,pic/AffRest2.png,,,,,,,,,,,,,,,,,,,,,,,,,0,1,1,1,0,50,50,64,,,,1107.7774435999963,None,1106.5938156999982,1107.7942993999968,s,1,廉洁,k,1,0.8948285000005853,0.6269676000010804,sja,m,21,2024_Apr_18_1838,mian,2021.2.3,60.15576734215231,
,,,,,,1,1,pic/flanker5.png,pic/flanker3.png,a,k,pic/AffRest2.png,,,,,,,,,,,,,,,,,,,,,,,,,0,1,1,1,0,51,51,36,,,,1111.3443458999973,None,1110.1606142000019,1111.360831799997,a,1,典雅,k,1,0.5166807999994489,0.4436993999988772,sja,m,21,2024_Apr_18_1838,mian,2021.2.3,60.15576734215231,
,,,,,,0,1,pic/flanker6.png,pic/flanker2.png,a,k,pic/AffRest2.png,,,,,,,,,,,,,,,,,,,,,,,,,0,1,1,1,0,52,52,74,,,,1114.2104729999992,None,1113.0277166000014,1114.2270825000014,a,1,敬佩,k,1,0.5083234000048833,0.3724431000009645,sja,m,21,2024_Apr_18_1838,mian,2021.2.3,60.15576734215231,
,,,,,,0,0,pic/flanker5.png,pic/flanker1.png,s,l,pic/AffRest2.png,,,,,,,,,,,,,,,,,,,,,,,,,0,1,1,1,0,53,53,3,,,,1116.9276074000009,None,1115.7442710999967,1116.9443482999995,s,1,郁闷,l,1,0.6580503000004683,0.5864348999966751,sja,m,21,2024_Apr_18_1838,mian,2021.2.3,60.15576734215231,
,,,,,,1,0,pic/flanker6.png,pic/flanker4.png,s,l,pic/AffRest2.png,,,,,,,,,,,,,,,,,,,,,,,,,0,1,1,1,0,54,54,37,,,,1120.194339499998,None,1119.0109008,1120.210923999999,s,1,丢失,l,1,0.7707724000065355,0.5519677999982378,sja,m,21,2024_Apr_18_1838,mian,2021.2.3,60.15576734215231,
,,,,,,1,1,pic/flanker5.png,pic/flanker3.png,a,k,pic/AffRest2.png,,,,,,,,,,,,,,,,,,,,,,,,,0,1,1,1,0,55,55,44,,,,1123.4940147000016,None,1122.3109478999977,1123.5110283999966,a,1,爽朗,k,1,0.605248500003654,0.4968466999998782,sja,m,21,2024_Apr_18_1838,mian,2021.2.3,60.15576734215231,
,,,,,,0,0,pic/flanker5.png,pic/flanker1.png,s,l,pic/AffRest2.png,,,,,,,,,,,,,,,,,,,,,,,,,0,1,1,1,0,56,56,43,,,,1126.5442709999988,None,1125.3610334999976,1126.5610062999986,s,1,怀疑,l,1,0.6828438999946229,0.46912300000258256,sja,m,21,2024_Apr_18_1838,mian,2021.2.3,60.15576734215231,
,,,,,,1,1,pic/flanker6.png,pic/flanker4.png,s,k,pic/AffRest2.png,,,,,,,,,,,,,,,,,,,,,,,,,0,1,1,1,0,57,57,46,,,,1129.5272990000012,None,1128.3441448000012,1129.5454276999953,s,1,奉献,k,1,0.6800289000020712,0.505991099998937,sja,m,21,2024_Apr_18_1838,mian,2021.2.3,60.15576734215231,
,,,,,,1,0,pic/flanker5.png,pic/flanker3.png,a,l,pic/AffRest2.png,,,,,,,,,,,,,,,,,,,,,,,,,0,1,1,1,0,58,58,15,,,,1132.6440516000002,None,1131.4601294999957,1132.6609291999994,a,1,穷苦,l,1,0.7271915000019362,0.45378570000320906,sja,m,21,2024_Apr_18_1838,mian,2021.2.3,60.15576734215231,
,,,,,,1,1,pic/flanker6.png,pic/flanker4.png,s,k,pic/AffRest2.png,,,,,,,,,,,,,,,,,,,,,,,,,0,1,1,1,0,59,59,38,,,,1135.7109452000004,None,1134.5276289999965,1135.7273064999972,s,1,振作,l,0,0.7052086999974563,0.45437639999727253,sja,m,21,2024_Apr_18_1838,mian,2021.2.3,60.15576734215231,
,,,,,,1,1,pic/flanker6.png,pic/flanker4.png,s,k,pic/AffRest2.png,,,,,,,,,,,,,,,,,,,,,,,,,0,1,1,1,0,60,60,30,,,,1138.8608804999967,None,1137.6777447999993,1138.8773655999976,s,1,充裕,k,1,0.5333834000048228,0.45278459999826737,sja,m,21,2024_Apr_18_1838,mian,2021.2.3,60.15576734215231,
,,,,,,0,0,pic/flanker5.png,pic/flanker1.png,s,l,pic/AffRest2.png,,,,,,,,,,,,,,,,,,,,,,,,,0,1,1,1,0,61,61,27,,,,1141.7774763999987,None,1140.5941774999956,1141.793922500001,s,1,消沉,l,1,0.6309557999993558,0.4622109999982058,sja,m,21,2024_Apr_18_1838,mian,2021.2.3,60.15576734215231,
,,,,,,1,1,pic/flanker6.png,pic/flanker4.png,s,k,pic/AffRest2.png,,,,,,,,,,,,,,,,,,,,,,,,,0,1,1,1,0,62,62,62,,,,1144.794303099996,None,1143.6103597999972,1144.810884300001,s,1,永恒,k,1,0.6228144999986398,0.47402709999732906,sja,m,21,2024_Apr_18_1838,mian,2021.2.3,60.15576734215231,
,,,,,,0,1,pic/flanker6.png,pic/flanker2.png,a,k,pic/AffRest2.png,,,,,,,,,,,,,,,,,,,,,,,,,0,1,1,1,0,63,63,58,,,,1147.8776345000006,None,1146.6939769000019,1147.8943381999998,a,1,赞成,k,1,0.5045549999995274,0.5346929999941494,sja,m,21,2024_Apr_18_1838,mian,2021.2.3,60.15576734215231,
,,,,,,1,1,pic/flanker5.png,pic/flanker3.png,a,k,pic/AffRest2.png,,,,,,,,,,,,,,,,,,,,,,,,,0,1,1,1,0,64,64,20,,,,1150.893862099998,None,1149.7106944999978,1150.9108536999993,a,1,享受,k,1,0.5458002000013948,0.4366924000059953,sja,m,21,2024_Apr_18_1838,mian,2021.2.3,60.15576734215231,
,,,,,,0,1,pic/flanker5.png,pic/flanker1.png,s,k,pic/AffRest2.png,,,,,,,,,,,,,,,,,,,,,,,,,0,1,1,1,0,65,65,72,,,,1153.8604949,None,1152.677402399997,1153.8773299000022,s,1,瑰丽,k,1,0.5065818000002764,0.7372752999945078,sja,m,21,2024_Apr_18_1838,mian,2021.2.3,60.15576734215231,
,,,,,,1,1,pic/flanker6.png,pic/flanker4.png,s,k,pic/AffRest2.png,,,,,,,,,,,,,,,,,,,,,,,,,0,1,1,1,0,66,66,70,,,,1156.9441837999984,None,1155.7607693999962,1156.9604739999995,s,1,雄厚,k,1,0.5099924000023748,0.4686906999995699,sja,m,21,2024_Apr_18_1838,mian,2021.2.3,60.15576734215231,
,,,,,,1,1,pic/flanker6.png,pic/flanker4.png,s,k,pic/AffRest2.png,,,,,,,,,,,,,,,,,,,,,,,,,0,1,1,1,0,67,67,6,,,,1159.8273192999986,None,1158.6440204999963,1159.8442342999988,s,1,精致,k,1,0.4945213999963016,0.4489205999998376,sja,m,21,2024_Apr_18_1838,mian,2021.2.3,60.15576734215231,
,,,,,,0,0,pic/flanker6.png,pic/flanker2.png,a,l,pic/AffRest2.png,,,,,,,,,,,,,,,,,,,,,,,,,0,1,1,1,0,68,68,9,,,,1162.6439871999974,None,1161.4608187999984,1162.6603667000018,a,1,轻率,l,1,1.045631399996637,0.6606434999994235,sja,m,21,2024_Apr_18_1838,mian,2021.2.3,60.15576734215231,
,,,,,,0,1,pic/flanker5.png,pic/flanker1.png,s,k,pic/AffRest2.png,,,,,,,,,,,,,,,,,,,,,,,,,0,1,1,1,0,69,69,32,,,,1166.2609513999996,None,1165.077322199999,1166.2775464000006,s,1,清秀,k,1,0.6536412999994354,1.1330786000035005,sja,m,21,2024_Apr_18_1838,mian,2021.2.3,60.15576734215231,
,,,,,,1,1,pic/flanker5.png,pic/flanker3.png,a,k,pic/AffRest2.png,,,,,,,,,,,,,,,,,,,,,,,,,0,1,1,1,0,70,70,60,,,,1169.977369399996,None,1168.7939020999984,1169.9941919999983,a,1,珍藏,k,1,0.5471498000042629,0.4821440000014263,sja,m,21,2024_Apr_18_1838,mian,2021.2.3,60.15576734215231,
,,,,,,0,1,pic/flanker5.png,pic/flanker1.png,s,k,pic/AffRest2.png,,,,,,,,,,,,,,,,,,,,,,,,,0,1,1,1,0,71,71,56,,,,1173.026961800002,None,1171.8437798000014,1173.043742599999,s,1,留恋,k,1,1.0040069999959087,0.4192890999984229,sja,m,21,2024_Apr_18_1838,mian,2021.2.3,60.15576734215231,
,,,,,,1,0,pic/flanker5.png,pic/flanker3.png,a,l,pic/AffRest2.png,,,,,,,,,,,,,,,,,,,,,,,,,0,1,1,1,0,72,72,39,,,,1176.4443449999962,None,1175.2605689999982,1176.4608634999968,a,1,处罚,l,1,0.6976675000041723,0.4416748000003281,sja,m,21,2024_Apr_18_1838,mian,2021.2.3,60.15576734215231,
,,,,,,0,1,pic/flanker5.png,pic/flanker1.png,s,k,pic/AffRest2.png,,,,,,,,,,,,,,,,,,,,,,,,,0,1,1,1,0,73,73,0,,,,1179.4107768999966,None,1178.232186299996,1179.4440727999972,s,1,舒畅,k,1,0.6272873999987496,0.5169864000054076,sja,m,21,2024_Apr_18_1838,mian,2021.2.3,60.15576734215231,
,,,,,,0,1,pic/flanker6.png,pic/flanker2.png,a,k,pic/AffRest2.png,,,,,,,,,,,,,,,,,,,,,,,,,0,1,1,1,0,74,74,2,,,,1182.4275882000002,None,1181.244005499997,1182.4442077999993,a,1,圣洁,k,1,0.5664999000000535,0.3898388999950839,sja,m,21,2024_Apr_18_1838,mian,2021.2.3,60.15576734215231,
,,,,,,1,0,pic/flanker6.png,pic/flanker4.png,s,l,pic/AffRest2.png,,,,,,,,,,,,,,,,,,,,,,,,,0,1,1,1,0,75,75,69,,,,1185.3940904999981,None,1184.2102880999955,1185.4108177000016,s,1,伤心,l,1,0.9270773000025656,0.5436046000031638,sja,m,21,2024_Apr_18_1838,mian,2021.2.3,60.15576734215231,
,,,,,,0,1,pic/flanker6.png,pic/flanker2.png,a,k,pic/AffRest2.png,,,,,,,,,,,,,,,,,,,,,,,,,0,1,1,1,0,76,76,18,,,,1188.7605447000024,None,1187.5774116999964,1188.7774267999994,a,1,丰满,k,1,0.6844968000004883,0.40119659999618307,sja,m,21,2024_Apr_18_1838,mian,2021.2.3,60.15576734215231,
,,,,,,0,1,pic/flanker5.png,pic/flanker1.png,s,k,pic/AffRest2.png,,,,,,,,,,,,,,,,,,,,,,,,,0,1,1,1,0,77,77,48,,,,1191.7442154999953,None,1190.5603713999953,1191.760688800001,s,1,正直,k,1,0.6495304999989457,0.5548443000006955,sja,m,21,2024_Apr_18_1838,mian,2021.2.3,60.15576734215231,
,,,,,,1,0,pic/flanker5.png,pic/flanker3.png,a,l,pic/AffRest2.png,,,,,,,,,,,,,,,,,,,,,,,,,0,1,1,1,0,78,78,47,,,,1194.9937064999976,None,1193.810703199997,1195.0107199999984,a,1,黑暗,l,1,0.6953739999953541,0.4441357999967295,sja,m,21,2024_Apr_18_1838,mian,2021.2.3,60.15576734215231,
,,,,,,1,0,pic/flanker5.png,pic/flanker3.png,a,l,pic/AffRest2.png,,,,,,,,,,,,,,,,,,,,,,,,,0,1,1,1,0,79,79,31,,,,1198.0272809000016,None,1196.8438823999968,1198.0441094999987,a,1,假冒,l,1,0.7951355999975931,0.42813910000404576,sja,m,21,2024_Apr_18_1838,mian,2021.2.3,60.15576734215231,
,,,,,,,,,,,,pic/AffRest2.png,,,,,,,,,,,,,,,,,,,,,,,,,0,1,1,1,,,,,,,,,,,,,,,,,,,sja,m,21,2024_Apr_18_1838,mian,2021.2.3,60.15576734215231,
,,,,,,1,1,pic/flanker6.png,pic/flanker4.png,s,k,pic/AffRest3.png,,,,,,,,,,,,,,,,,,,,,,,,,0,2,2,2,0,0,0,6,,,,1211.260526099999,None,1210.0754254999993,1211.277477399999,s,1,廉洁,k,1,0.6363734999977169,0.4658326999997371,sja,m,21,2024_Apr_18_1838,mian,2021.2.3,60.15576734215231,
,,,,,,0,0,pic/flanker6.png,pic/flanker2.png,a,l,pic/AffRest3.png,,,,,,,,,,,,,,,,,,,,,,,,,0,2,2,2,0,1,1,25,,,,1214.4108696999974,None,1213.2275738000026,1214.4272578999953,a,1,冷笑,l,1,0.9779410000046482,0.5044630000047619,sja,m,21,2024_Apr_18_1838,mian,2021.2.3,60.15576734215231,
,,,,,,0,0,pic/flanker5.png,pic/flanker1.png,s,l,pic/AffRest3.png,,,,,,,,,,,,,,,,,,,,,,,,,0,2,2,2,0,2,2,67,,,,1217.7271795999986,None,1216.544085499998,1217.7439290999973,s,1,损害,l,1,0.6693995000023278,0.419085499997891,sja,m,21,2024_Apr_18_1838,mian,2021.2.3,60.15576734215231,
,,,,,,1,0,pic/flanker5.png,pic/flanker3.png,a,l,pic/AffRest3.png,,,,,,,,,,,,,,,,,,,,,,,,,0,2,2,2,0,3,3,7,,,,1220.7270157999956,None,1219.5440629000004,1220.743239800002,a,1,鲁莽,l,1,0.6632919999974547,0.4077462999994168,sja,m,21,2024_Apr_18_1838,mian,2021.2.3,60.15576734215231,
,,,,,,0,0,pic/flanker5.png,pic/flanker1.png,s,l,pic/AffRest3.png,,,,,,,,,,,,,,,,,,,,,,,,,0,2,2,2,0,4,4,3,,,,1223.8940086000002,None,1222.710450599996,1223.9106902999993,s,1,闷热,l,1,0.6750860000029206,0.49932849999458995,sja,m,21,2024_Apr_18_1838,mian,2021.2.3,60.15576734215231,
,,,,,,1,1,pic/flanker5.png,pic/flanker3.png,a,k,pic/AffRest3.png,,,,,,,,,,,,,,,,,,,,,,,,,0,2,2,2,0,5,5,4,,,,1227.1109683999966,None,1225.9272140999965,1227.127535599997,a,1,富足,k,1,0.7072565999988001,0.4464843999958248,sja,m,21,2024_Apr_18_1838,mian,2021.2.3,60.15576734215231,
,,,,,,1,1,pic/flanker5.png,pic/flanker3.png,a,k,pic/AffRest3.png,,,,,,,,,,,,,,,,,,,,,,,,,0,2,2,2,0,6,6,60,,,,1230.2608104999963,None,1229.077341600001,1230.2770616999987,a,1,顽强,l,0,0.8826705999963451,0.46658799999568146,sja,m,21,2024_Apr_18_1838,mian,2021.2.3,60.15576734215231,
,,,,,,1,1,pic/flanker5.png,pic/flanker3.png,a,k,pic/AffRest3.png,,,,,,,,,,,,,,,,,,,,,,,,,0,2,2,2,0,7,7,36,,,,1233.577250299997,None,1232.3935741999958,1233.5939746000004,a,1,诚恳,k,1,0.7226318000030005,0.9958871999988332,sja,m,21,2024_Apr_18_1838,mian,2021.2.3,60.15576734215231,
,,,,,,1,0,pic/flanker5.png,pic/flanker3.png,a,l,pic/AffRest3.png,,,,,,,,,,,,,,,,,,,,,,,,,0,2,2,2,0,8,8,31,,,,1237.1279855999965,None,1235.9445025999958,1237.1446849999993,a,1,禁止,l,1,1.1260303000017302,0.43576519999623997,sja,m,21,2024_Apr_18_1838,mian,2021.2.3,60.15576734215231,
,,,,,,0,0,pic/flanker5.png,pic/flanker1.png,s,l,pic/AffRest3.png,,,,,,,,,,,,,,,,,,,,,,,,,0,2,2,2,0,9,9,75,,,,1240.5277262000018,None,1239.3440633999999,1240.5445440999974,s,1,焦躁,l,1,0.8262096000034944,0.5514295000029961,sja,m,21,2024_Apr_18_1838,mian,2021.2.3,60.15576734215231,
,,,,,,0,1,pic/flanker5.png,pic/flanker1.png,s,k,pic/AffRest3.png,,,,,,,,,,,,,,,,,,,,,,,,,0,2,2,2,0,10,10,56,,,,1243.8609503999978,None,1242.6774215999976,1243.8773460000011,s,1,俊秀,k,1,1.0997558999952162,0.5178261999972165,sja,m,21,2024_Apr_18_1838,mian,2021.2.3,60.15576734215231,
,,,,,,0,0,pic/flanker6.png,pic/flanker2.png,a,l,pic/AffRest3.png,,,,,,,,,,,,,,,,,,,,,,,,,0,2,2,2,0,11,11,41,,,,1247.3940795000017,None,1246.2102637999997,1247.4104157999973,a,1,消沉,l,1,0.6763155000007828,0.6110401999976602,sja,m,21,2024_Apr_18_1838,mian,2021.2.3,60.15576734215231,
,,,,,,1,0,pic/flanker5.png,pic/flanker3.png,a,l,pic/AffRest3.png,,,,,,,,,,,,,,,,,,,,,,,,,0,2,2,2,0,12,12,55,,,,1250.7102278999955,None,1249.527274699998,1250.7273674000025,a,1,嘲笑,l,1,0.8522564000013517,0.42926710000028834,sja,m,21,2024_Apr_18_1838,mian,2021.2.3,60.15576734215231,
,,,,,,0,1,pic/flanker5.png,pic/flanker1.png,s,k,pic/AffRest3.png,,,,,,,,,,,,,,,,,,,,,,,,,0,2,2,2,0,13,13,72,,,,1253.9274559999976,None,1252.7441655000002,1253.9440768999993,s,1,畅销,k,1,0.6287875000052736,0.5297946000064258,sja,m,21,2024_Apr_18_1838,mian,2021.2.3,60.15576734215231,
,,,,,,0,1,pic/flanker6.png,pic/flanker2.png,a,k,pic/AffRest3.png,,,,,,,,,,,,,,,,,,,,,,,,,0,2,2,2,0,14,14,34,,,,1257.110845700001,None,1255.9272868999979,1257.1273605999959,a,1,清秀,k,1,0.5441562999985763,0.44069089999538846,sja,m,21,2024_Apr_18_1838,mian,2021.2.3,60.15576734215231,
,,,,,,1,0,pic/flanker5.png,pic/flanker3.png,a,l,pic/AffRest3.png,,,,,,,,,,,,,,,,,,,,,,,,,0,2,2,2,0,15,15,39,,,,1260.0774944000004,None,1258.893871399996,1260.0941196999993,a,1,处罚,k,0,1.1915085000000545,0.4179160000057891,sja,m,21,2024_Apr_18_1838,mian,2021.2.3,60.15576734215231,
,,,,,,1,0,pic/flanker6.png,pic/flanker4.png,s,l,pic/AffRest3.png,,,,,,,,,,,,,,,,,,,,,,,,,0,2,2,2,0,16,16,5,,,,1263.6269580000007,None,1262.443785399999,1263.644093099996,s,1,浪费,l,1,0.3706760999994003,0.4662917999958154,sja,m,21,2024_Apr_18_1838,mian,2021.2.3,60.15576734215231,
,,,,,,0,0,pic/flanker5.png,pic/flanker1.png,s,l,pic/AffRest3.png,,,,,,,,,,,,,,,,,,,,,,,,,0,2,2,2,0,17,17,43,,,,1266.4941652999987,None,1265.3104362000013,1266.5104482000024,s,1,落后,l,1,0.5172353999951156,0.5091096000032849,sja,m,21,2024_Apr_18_1838,mian,2021.2.3,60.15576734215231,
,,,,,,0,1,pic/flanker6.png,pic/flanker2.png,a,k,pic/AffRest3.png,,,,,,,,,,,,,,,,,,,,,,,,,0,2,2,2,0,18,18,42,,,,1269.3433106000011,None,1268.160168800001,1269.3604885999957,a,1,旺盛,k,1,0.7051164000004064,0.39264469999761786,sja,m,21,2024_Apr_18_1838,mian,2021.2.3,60.15576734215231,
,,,,,,0,1,pic/flanker5.png,pic/flanker1.png,s,k,pic/AffRest3.png,,,,,,,,,,,,,,,,,,,,,,,,,0,2,2,2,0,19,19,40,,,,1272.343867399999,None,1271.1601766000022,1272.3605696000013,s,1,前进,k,1,0.57602880000195,0.43398660000093514,sja,m,21,2024_Apr_18_1838,mian,2021.2.3,60.15576734215231,
,,,,,,0,0,pic/flanker5.png,pic/flanker1.png,s,l,pic/AffRest3.png,,,,,,,,,,,,,,,,,,,,,,,,,0,2,2,2,0,20,20,11,,,,1275.2772220999977,None,1274.0941938999968,1275.293875299998,s,1,慌忙,l,1,0.6243766999978106,0.4154749000008451,sja,m,21,2024_Apr_18_1838,mian,2021.2.3,60.15576734215231,
,,,,,,0,1,pic/flanker6.png,pic/flanker2.png,a,k,pic/AffRest3.png,,,,,,,,,,,,,,,,,,,,,,,,,0,2,2,2,0,21,21,10,,,,1278.2440736999997,None,1277.0605006999976,1278.2607852,a,1,振作,k,1,0.5731166999976267,0.5060360999996192,sja,m,21,2024_Apr_18_1838,mian,2021.2.3,60.15576734215231,
,,,,,,1,1,pic/flanker6.png,pic/flanker4.png,s,k,pic/AffRest3.png,,,,,,,,,,,,,,,,,,,,,,,,,0,2,2,2,0,22,22,22,,,,1281.26066,None,1280.076870799996,1281.2772363999975,s,1,爽朗,k,1,0.7564750000019558,0.5223359000010532,sja,m,21,2024_Apr_18_1838,mian,2021.2.3,60.15576734215231,
,,,,,,0,0,pic/flanker5.png,pic/flanker1.png,s,l,pic/AffRest3.png,,,,,,,,,,,,,,,,,,,,,,,,,0,2,2,2,0,23,23,27,,,,1284.577322199999,None,1283.3938423,1284.594093300002,s,1,失意,l,1,0.67707099999825,0.5739298999978928,sja,m,21,2024_Apr_18_1838,mian,2021.2.3,60.15576734215231,
,,,,,,1,1,pic/flanker6.png,pic/flanker4.png,s,k,pic/AffRest3.png,,,,,,,,,,,,,,,,,,,,,,,,,0,2,2,2,0,24,24,38,,,,1287.6605133999983,None,1286.476800700002,1287.6769493999964,s,1,充裕,k,1,0.5989229999977397,0.5025048999959836,sja,m,21,2024_Apr_18_1838,mian,2021.2.3,60.15576734215231,
,,,,,,0,0,pic/flanker5.png,pic/flanker1.png,s,l,pic/AffRest3.png,,,,,,,,,,,,,,,,,,,,,,,,,0,2,2,2,0,25,25,19,,,,1290.743770699999,None,1289.5604845999987,1290.7605534999966,s,1,假冒,l,1,0.6414322999989963,0.44150229999650037,sja,m,21,2024_Apr_18_1838,mian,2021.2.3,60.15576734215231,
,,,,,,0,1,pic/flanker5.png,pic/flanker1.png,s,k,pic/AffRest3.png,,,,,,,,,,,,,,,,,,,,,,,,,0,2,2,2,0,26,26,24,,,,1293.8106430999978,None,1292.6274749000004,1293.8274078999966,s,1,羡慕,k,1,0.8915835999941919,0.4761387999969884,sja,m,21,2024_Apr_18_1838,mian,2021.2.3,60.15576734215231,
,,,,,,1,1,pic/flanker6.png,pic/flanker4.png,s,k,pic/AffRest3.png,,,,,,,,,,,,,,,,,,,,,,,,,0,2,2,2,0,27,27,78,,,,1297.0605539000026,None,1295.8769601000022,1297.0773563999974,s,1,富丽,k,1,0.7455533000029391,0.4118914999999106,sja,m,21,2024_Apr_18_1838,mian,2021.2.3,60.15576734215231,
,,,,,,1,1,pic/flanker5.png,pic/flanker3.png,a,k,pic/AffRest3.png,,,,,,,,,,,,,,,,,,,,,,,,,0,2,2,2,0,28,28,76,,,,1300.2439763000002,None,1299.0605438999992,1300.2606349999987,a,1,典雅,k,1,0.5513280000013765,0.43602309999550926,sja,m,21,2024_Apr_18_1838,mian,2021.2.3,60.15576734215231,
,,,,,,1,0,pic/flanker5.png,pic/flanker3.png,a,l,pic/AffRest3.png,,,,,,,,,,,,,,,,,,,,,,,,,0,2,2,2,0,29,29,47,,,,1303.260557499998,None,1302.0772071999963,1303.2774811999989,a,1,孤单,l,1,1.1352142000032472,0.4873163999945973,sja,m,21,2024_Apr_18_1838,mian,2021.2.3,60.15576734215231,
,,,,,,0,0,pic/flanker6.png,pic/flanker2.png,a,l,pic/AffRest3.png,,,,,,,,,,,,,,,,,,,,,,,,,0,2,2,2,0,30,30,9,,,,1306.7774644999954,None,1305.5939370999986,1306.7940406999987,a,1,伤心,k,0,1.1135441999940667,0.5087037999983295,sja,m,21,2024_Apr_18_1838,mian,2021.2.3,60.15576734215231,
,,,,,,1,1,pic/flanker5.png,pic/flanker3.png,a,k,pic/AffRest3.png,,,,,,,,,,,,,,,,,,,,,,,,,0,2,2,2,0,31,31,44,,,,1310.2772834999996,None,1309.093925000001,1310.2939215000006,a,1,秀丽,k,1,0.5661821999965468,0.4591463999968255,sja,m,21,2024_Apr_18_1838,mian,2021.2.3,60.15576734215231,
,,,,,,1,1,pic/flanker6.png,pic/flanker4.png,s,k,pic/AffRest3.png,,,,,,,,,,,,,,,,,,,,,,,,,0,2,2,2,0,32,32,62,,,,1313.209942100002,None,1312.0272693000006,1313.2267922999963,s,1,正直,k,1,0.47297940000134986,0.48841559999709716,sja,m,21,2024_Apr_18_1838,mian,2021.2.3,60.15576734215231,
,,,,,,1,1,pic/flanker6.png,pic/flanker4.png,s,k,pic/AffRest3.png,,,,,,,,,,,,,,,,,,,,,,,,,0,2,2,2,0,33,33,54,,,,1316.0106511999984,None,1314.826935600002,1316.0274311999965,s,1,生动,k,1,0.5564366000035079,0.44228470000234665,sja,m,21,2024_Apr_18_1838,mian,2021.2.3,60.15576734215231,
,,,,,,1,1,pic/flanker6.png,pic/flanker4.png,s,k,pic/AffRest3.png,,,,,,,,,,,,,,,,,,,,,,,,,0,2,2,2,0,34,34,46,,,,1318.9433562999984,None,1317.7603559999989,1318.9606052000017,s,1,圣洁,k,1,0.5410406000009971,0.4400436000069021,sja,m,21,2024_Apr_18_1838,mian,2021.2.3,60.15576734215231,
,,,,,,1,0,pic/flanker6.png,pic/flanker4.png,s,l,pic/AffRest3.png,,,,,,,,,,,,,,,,,,,,,,,,,0,2,2,2,0,35,35,77,,,,1321.7604734999986,None,1320.5769427999985,1321.7771533999985,s,1,悲观,l,1,0.6741347999995924,0.4141530999986571,sja,m,21,2024_Apr_18_1838,mian,2021.2.3,60.15576734215231,
,,,,,,1,0,pic/flanker6.png,pic/flanker4.png,s,l,pic/AffRest3.png,,,,,,,,,,,,,,,,,,,,,,,,,0,2,2,2,0,36,36,61,,,,1324.7770715000006,None,1323.5937436000022,1324.7936387000009,s,1,堵塞,l,1,0.7051212999940617,0.38611540000420064,sja,m,21,2024_Apr_18_1838,mian,2021.2.3,60.15576734215231,
,,,,,,0,0,pic/flanker6.png,pic/flanker2.png,a,l,pic/AffRest3.png,,,,,,,,,,,,,,,,,,,,,,,,,0,2,2,2,0,37,37,33,,,,1327.9107633999956,None,1326.7271880999979,1327.9273063,a,1,轻率,l,1,0.7165200999952503,0.4580275999978767,sja,m,21,2024_Apr_18_1838,mian,2021.2.3,60.15576734215231,
,,,,,,0,0,pic/flanker5.png,pic/flanker1.png,s,l,pic/AffRest3.png,,,,,,,,,,,,,,,,,,,,,,,,,0,2,2,2,0,38,38,51,,,,1331.1125905000008,None,1329.9273935999954,1331.1293845999971,s,1,杂乱,l,1,0.5036105999970459,0.4513204999966547,sja,m,21,2024_Apr_18_1838,mian,2021.2.3,60.15576734215231,
,,,,,,1,0,pic/flanker5.png,pic/flanker3.png,a,l,pic/AffRest3.png,,,,,,,,,,,,,,,,,,,,,,,,,0,2,2,2,0,39,39,23,,,,1333.9771312000012,None,1332.7936923000016,1333.9939070999972,a,1,忧虑,l,1,0.4687387000012677,0.3734104999966803,sja,m,21,2024_Apr_18_1838,mian,2021.2.3,60.15576734215231,
,,,,,,0,0,pic/flanker6.png,pic/flanker2.png,a,l,pic/AffRest3.png,,,,,,,,,,,,,,,,,,,,,,,,,0,2,2,2,0,40,40,17,,,,1336.6605525999985,None,1335.4772895999995,1336.6772412999999,a,1,争吵,l,1,0.7160149999981513,0.4485888999988674,sja,m,21,2024_Apr_18_1838,mian,2021.2.3,60.15576734215231,
,,,,,,0,1,pic/flanker6.png,pic/flanker2.png,a,k,pic/AffRest3.png,,,,,,,,,,,,,,,,,,,,,,,,,0,2,2,2,0,41,41,26,,,,1339.744157000001,None,1338.560596299998,1339.7607061000017,a,1,丰满,k,1,0.7697225000010803,0.36891739999555284,sja,m,21,2024_Apr_18_1838,mian,2021.2.3,60.15576734215231,
,,,,,,1,1,pic/flanker6.png,pic/flanker4.png,s,k,pic/AffRest3.png,,,,,,,,,,,,,,,,,,,,,,,,,0,2,2,2,0,42,42,70,,,,1342.7271993999966,None,1341.5440925000003,1342.7439918000018,s,1,珍藏,k,1,0.565565199998673,0.48391320000519045,sja,m,21,2024_Apr_18_1838,mian,2021.2.3,60.15576734215231,
,,,,,,1,1,pic/flanker5.png,pic/flanker3.png,a,k,pic/AffRest3.png,,,,,,,,,,,,,,,,,,,,,,,,,0,2,2,2,0,43,43,52,,,,1345.6435896999974,None,1344.4597070000018,1345.6604392000008,a,1,享受,k,1,0.7785098999956972,0.4972979999947711,sja,m,21,2024_Apr_18_1838,mian,2021.2.3,60.15576734215231,
,,,,,,0,1,pic/flanker6.png,pic/flanker2.png,a,k,pic/AffRest3.png,,,,,,,,,,,,,,,,,,,,,,,,,0,2,2,2,0,44,44,2,,,,1348.7938694999975,None,1347.6103535000002,1348.8101225999999,a,1,精致,k,1,0.676973800000269,0.35844920000090497,sja,m,21,2024_Apr_18_1838,mian,2021.2.3,60.15576734215231,
,,,,,,1,1,pic/flanker5.png,pic/flanker3.png,a,k,pic/AffRest3.png,,,,,,,,,,,,,,,,,,,,,,,,,0,2,2,2,0,45,45,20,,,,1351.6938292999985,None,1350.5102793999977,1351.7107037999958,a,1,留恋,k,1,0.8755348999984562,0.5519215999956941,sja,m,21,2024_Apr_18_1838,mian,2021.2.3,60.15576734215231,
,,,,,,1,0,pic/flanker6.png,pic/flanker4.png,s,l,pic/AffRest3.png,,,,,,,,,,,,,,,,,,,,,,,,,0,2,2,2,0,46,46,37,,,,1355.1767739999996,None,1353.9940487999993,1355.1939749000012,s,1,心慌,l,1,1.5455202000011923,0.490814999997383,sja,m,21,2024_Apr_18_1838,mian,2021.2.3,60.15576734215231,
,,,,,,0,1,pic/flanker6.png,pic/flanker2.png,a,k,pic/AffRest3.png,,,,,,,,,,,,,,,,,,,,,,,,,0,2,2,2,0,47,47,66,,,,1359.0437534000012,None,1357.8605554000023,1359.0605381999994,a,1,卓越,k,1,0.5795243999964441,0.3808431999932509,sja,m,21,2024_Apr_18_1838,mian,2021.2.3,60.15576734215231,
,,,,,,0,1,pic/flanker5.png,pic/flanker1.png,s,k,pic/AffRest3.png,,,,,,,,,,,,,,,,,,,,,,,,,0,2,2,2,0,48,48,48,,,,1361.8940182000006,None,1360.7101572999964,1361.910510499998,s,1,吉祥,k,1,0.5681182999978773,0.3139842999953544,sja,m,21,2024_Apr_18_1838,mian,2021.2.3,60.15576734215231,
,,,,,,1,0,pic/flanker5.png,pic/flanker3.png,a,l,pic/AffRest3.png,,,,,,,,,,,,,,,,,,,,,,,,,0,2,2,2,0,49,49,79,,,,1364.760665599999,None,1363.5770618000024,1364.7771883000023,s,0,罚款,k,0,1.0894896000027074,0.37639109999872744,sja,m,21,2024_Apr_18_1838,mian,2021.2.3,60.15576734215231,
,,,,,,1,0,pic/flanker6.png,pic/flanker4.png,s,l,pic/AffRest3.png,,,,,,,,,,,,,,,,,,,,,,,,,0,2,2,2,0,50,50,53,,,,1368.2101760000005,None,1367.0270769999988,1368.227269199997,s,1,排斥,l,1,0.5457628000003751,0.48012670000025537,sja,m,21,2024_Apr_18_1838,mian,2021.2.3,60.15576734215231,
,,,,,,0,1,pic/flanker6.png,pic/flanker2.png,a,k,pic/AffRest3.png,,,,,,,,,,,,,,,,,,,,,,,,,0,2,2,2,0,51,51,50,,,,1371.2605941000002,None,1370.0772099000023,1371.2769417000018,a,1,赞成,None,0,,0.05821290000312729,sja,m,21,2024_Apr_18_1838,mian,2021.2.3,60.15576734215231,
,,,,,,0,1,pic/flanker5.png,pic/flanker1.png,s,k,pic/AffRest3.png,,,,,,,,,,,,,,,,,,,,,,,,,0,2,2,2,0,52,52,8,,,,1375.6771385999964,None,1374.4934986000007,1375.6935292999988,s,1,雄厚,k,1,0.5319244000056642,0.5965694999977131,sja,m,21,2024_Apr_18_1838,mian,2021.2.3,60.15576734215231,
,,,,,,0,1,pic/flanker6.png,pic/flanker2.png,a,k,pic/AffRest3.png,,,,,,,,,,,,,,,,,,,,,,,,,0,2,2,2,0,53,53,18,,,,1378.7273249999998,None,1377.5440780999998,1378.7440564999997,a,1,瑰丽,k,1,0.551810299999488,0.5907225999981165,sja,m,21,2024_Apr_18_1838,mian,2021.2.3,60.15576734215231,
,,,,,,1,1,pic/flanker6.png,pic/flanker4.png,s,k,pic/AffRest3.png,,,,,,,,,,,,,,,,,,,,,,,,,0,2,2,2,0,54,54,14,,,,1381.8603193000017,None,1380.6768937000015,1381.8772186999995,s,1,敬佩,k,1,0.48834440000064205,0.5051134999957867,sja,m,21,2024_Apr_18_1838,mian,2021.2.3,60.15576734215231,
,,,,,,0,1,pic/flanker5.png,pic/flanker1.png,s,k,pic/AffRest3.png,,,,,,,,,,,,,,,,,,,,,,,,,0,2,2,2,0,55,55,0,,,,1384.8771086999986,None,1383.6938346000024,1384.8937970999978,s,1,热切,k,1,0.5993035999999847,0.490369399994961,sja,m,21,2024_Apr_18_1838,mian,2021.2.3,60.15576734215231,
,,,,,,1,1,pic/flanker5.png,pic/flanker3.png,a,k,pic/AffRest3.png,,,,,,,,,,,,,,,,,,,,,,,,,0,2,2,2,0,56,56,68,,,,1387.9937598999968,None,1386.8103728999995,1388.0103653999977,a,1,鲜艳,k,1,0.6718389000016032,0.4766109000047436,sja,m,21,2024_Apr_18_1838,mian,2021.2.3,60.15576734215231,
,,,,,,0,1,pic/flanker5.png,pic/flanker1.png,s,k,pic/AffRest3.png,,,,,,,,,,,,,,,,,,,,,,,,,0,2,2,2,0,57,57,64,,,,1391.1111208000002,None,1389.9271174000023,1391.127748699997,s,1,优雅,k,1,0.44697240000095917,0.438805500001763,sja,m,21,2024_Apr_18_1838,mian,2021.2.3,60.15576734215231,
,,,,,,0,0,pic/flanker6.png,pic/flanker2.png,a,l,pic/AffRest3.png,,,,,,,,,,,,,,,,,,,,,,,,,0,2,2,2,0,58,58,57,,,,1393.9935266999964,None,1392.8103522999954,1394.010669299998,a,1,厌恶,l,1,0.6787707000039518,0.4277451000016299,sja,m,21,2024_Apr_18_1838,mian,2021.2.3,60.15576734215231,
,,,,,,1,0,pic/flanker6.png,pic/flanker4.png,s,l,pic/AffRest3.png,,,,,,,,,,,,,,,,,,,,,,,,,0,2,2,2,0,59,59,13,,,,1397.0270717999956,None,1395.843882699999,1397.0435023999962,s,1,缺乏,l,1,0.6557799000001978,0.5093760000017937,sja,m,21,2024_Apr_18_1838,mian,2021.2.3,60.15576734215231,
,,,,,,1,0,pic/flanker5.png,pic/flanker3.png,a,l,pic/AffRest3.png,,,,,,,,,,,,,,,,,,,,,,,,,0,2,2,2,0,60,60,15,,,,1400.143682199996,None,1398.9602535000013,1400.160245799998,a,1,自卑,l,1,0.7765708000006271,0.5978853999986313,sja,m,21,2024_Apr_18_1838,mian,2021.2.3,60.15576734215231,
,,,,,,0,0,pic/flanker6.png,pic/flanker2.png,a,l,pic/AffRest3.png,,,,,,,,,,,,,,,,,,,,,,,,,0,2,2,2,0,61,61,73,,,,1403.4938774999973,None,1402.310354299996,1403.5101051999955,a,1,郁闷,l,1,0.7181007999970461,0.5394780999995419,sja,m,21,2024_Apr_18_1838,mian,2021.2.3,60.15576734215231,
,,,,,,1,0,pic/flanker6.png,pic/flanker4.png,s,l,pic/AffRest3.png,,,,,,,,,,,,,,,,,,,,,,,,,0,2,2,2,0,62,62,45,,,,1406.7602618999954,None,1405.5768408000004,1406.7769425000006,s,1,黑暗,l,1,0.6077408000055584,0.544237999994948,sja,m,21,2024_Apr_18_1838,mian,2021.2.3,60.15576734215231,
,,,,,,0,0,pic/flanker6.png,pic/flanker2.png,a,l,pic/AffRest3.png,,,,,,,,,,,,,,,,,,,,,,,,,0,2,2,2,0,63,63,49,,,,1409.810190600001,None,1408.6267881000022,1409.827142299997,a,1,丢失,l,1,0.6773008000018308,0.41319929999735905,sja,m,21,2024_Apr_18_1838,mian,2021.2.3,60.15576734215231,
,,,,,,1,1,pic/flanker5.png,pic/flanker3.png,a,k,pic/AffRest3.png,,,,,,,,,,,,,,,,,,,,,,,,,0,2,2,2,0,64,64,28,,,,1412.7933782999971,None,1411.6104995999995,1412.810141199996,a,1,豪放,k,1,0.6866322999994736,0.46589660000609,sja,m,21,2024_Apr_18_1838,mian,2021.2.3,60.15576734215231,
,,,,,,1,0,pic/flanker6.png,pic/flanker4.png,s,l,pic/AffRest3.png,,,,,,,,,,,,,,,,,,,,,,,,,0,2,2,2,0,65,65,29,,,,1415.7770888000014,None,1414.5938100999992,1415.793496899998,s,1,撒谎,l,1,0.6769791999977315,0.943099500000244,sja,m,21,2024_Apr_18_1838,mian,2021.2.3,60.15576734215231,
,,,,,,1,1,pic/flanker6.png,pic/flanker4.png,s,k,pic/AffRest3.png,,,,,,,,,,,,,,,,,,,,,,,,,0,2,2,2,0,66,66,30,,,,1419.243588199999,None,1418.0604821000015,1419.2603869000013,s,1,如愿,k,1,0.7239687999972375,0.4857973999969545,sja,m,21,2024_Apr_18_1838,mian,2021.2.3,60.15576734215231,
