target,反应类型,条件,truetarget,CorAns,Position,congruency,AffValue,flankerPic,targetPic,corAnsF,corAnsA,RestPic,returnPractice.thisRepN,returnPractice.thisTrialN,returnPractice.thisN,returnPractice.thisIndex,pracNum.thisRepN,pracNum.thisTrialN,pracNum.thisN,pracNum.thisIndex,NumBlock1.thisRepN,NumBlock1.thisTrialN,NumBlock1.thisN,NumBlock1.thisIndex,NumBlock2.thisRepN,NumBlock2.thisTrialN,NumBlock2.thisN,NumBlock2.thisIndex,returnPrac.thisRepN,returnPrac.thisTrialN,returnPrac.thisN,returnPrac.thisIndex,PracAff.thisRepN,PracAff.thisTrialN,PracAff.thisN,PracAff.thisIndex,AffBlocks.thisRepN,AffBlocks.thisTrialN,AffBlocks.thisN,AffBlocks.thisIndex,AffBlock1.thisRepN,AffBlock1.thisTrialN,AffBlock1.thisN,AffBlock1.thisIndex,respNum2word.keys,respNum2word.corr,respNum2word.rt,blank.started,text.started,blank.stopped,text.stopped,respFlanker.keys,respFlanker.corr,thisWord,respAffWord.keys,respAffWord.corr,respAffWord.rt,respFlanker.rt,姓名,性别,年龄（周岁）,date,expName,psychopyVersion,frameRate,
2A,1,1,A,a,"[0.2, 0.2]",,,,,,,,0,0,0,0,0,0,0,0,,,,,,,,,,,,,,,,,,,,,,,,,a,1,1.1522128001088277,,,,,,,,,,,,sxc,m,22,2024-04-11_15h34.28.642,mian,2022.2.4,60.01774128159565,
A9,1,2,A,a,"[-0.2, 0.2]",,,,,,,,0,0,0,0,0,1,1,1,,,,,,,,,,,,,,,,,,,,,,,,,a,1,0.6810313999885693,,,,,,,,,,,,sxc,m,22,2024-04-11_15h34.28.642,mian,2022.2.4,60.01774128159565,
7e,2,1,7.0,a,"[-0.2, -0.2]",,,,,,,,0,0,0,0,0,2,2,2,,,,,,,,,,,,,,,,,,,,,,,,,l,0,0.6612867000512779,,,,,,,,,,,,sxc,m,22,2024-04-11_15h34.28.642,mian,2022.2.4,60.01774128159565,
9H,2,2,9.0,a,"[0.2, -0.2]",,,,,,,,0,0,0,0,0,3,3,3,,,,,,,,,,,,,,,,,,,,,,,,,l,0,0.8266810999484733,,,,,,,,,,,,sxc,m,22,2024-04-11_15h34.28.642,mian,2022.2.4,60.01774128159565,
h4,1,1,h,l,"[0.2, 0.2]",,,,,,,,0,0,0,0,0,4,4,4,,,,,,,,,,,,,,,,,,,,,,,,,l,1,1.2095656000310555,,,,,,,,,,,,sxc,m,22,2024-04-11_15h34.28.642,mian,2022.2.4,60.01774128159565,
4H,1,2,H,a,"[-0.2, 0.2]",,,,,,,,0,0,0,0,0,5,5,5,,,,,,,,,,,,,,,,,,,,,,,,,a,1,0.7851523000281304,,,,,,,,,,,,sxc,m,22,2024-04-11_15h34.28.642,mian,2022.2.4,60.01774128159565,
F8,2,1,8.0,l,"[-0.2, -0.2]",,,,,,,,0,0,0,0,0,6,6,6,,,,,,,,,,,,,,,,,,,,,,,,,l,1,1.1214626000728458,,,,,,,,,,,,sxc,m,22,2024-04-11_15h34.28.642,mian,2022.2.4,60.01774128159565,
h7,2,2,7.0,a,"[0.2, -0.2]",,,,,,,,0,0,0,0,0,7,7,7,,,,,,,,,,,,,,,,,,,,,,,,,l,0,0.9812629000516608,,,,,,,,,,,,sxc,m,22,2024-04-11_15h34.28.642,mian,2022.2.4,60.01774128159565,
5e,1,1,e,l,"[0.2, 0.2]",,,,,,,,0,0,0,0,0,8,8,8,,,,,,,,,,,,,,,,,,,,,,,,,l,1,1.0299320999765769,,,,,,,,,,,,sxc,m,22,2024-04-11_15h34.28.642,mian,2022.2.4,60.01774128159565,
e8,1,2,e,l,"[-0.2, 0.2]",,,,,,,,0,0,0,0,0,9,9,9,,,,,,,,,,,,,,,,,,,,,,,,,l,1,1.2695014000637457,,,,,,,,,,,,sxc,m,22,2024-04-11_15h34.28.642,mian,2022.2.4,60.01774128159565,
4E,2,1,4.0,l,"[-0.2, -0.2]",,,,,,,,0,0,0,0,0,10,10,10,,,,,,,,,,,,,,,,,,,,,,,,,l,1,1.010060100001283,,,,,,,,,,,,sxc,m,22,2024-04-11_15h34.28.642,mian,2022.2.4,60.01774128159565,
5H,2,2,5.0,a,"[0.2, -0.2]",,,,,,,,0,0,0,0,0,11,11,11,,,,,,,,,,,,,,,,,,,,,,,,,l,0,1.0257298999931663,,,,,,,,,,,,sxc,m,22,2024-04-11_15h34.28.642,mian,2022.2.4,60.01774128159565,
9E,1,1,E,a,"[0.2, 0.2]",,,,,,,,0,0,0,0,0,12,12,12,,,,,,,,,,,,,,,,,,,,,,,,,a,1,1.1124840000411496,,,,,,,,,,,,sxc,m,22,2024-04-11_15h34.28.642,mian,2022.2.4,60.01774128159565,
h9,1,2,h,l,"[-0.2, 0.2]",,,,,,,,0,0,0,0,0,13,13,13,,,,,,,,,,,,,,,,,,,,,,,,,l,1,1.309073399985209,,,,,,,,,,,,sxc,m,22,2024-04-11_15h34.28.642,mian,2022.2.4,60.01774128159565,
2a,2,1,2.0,l,"[-0.2, -0.2]",,,,,,,,0,0,0,0,0,14,14,14,,,,,,,,,,,,,,,,,,,,,,,,,a,0,1.6244173001032323,,,,,,,,,,,,sxc,m,22,2024-04-11_15h34.28.642,mian,2022.2.4,60.01774128159565,
e5,2,2,5.0,a,"[0.2, -0.2]",,,,,,,,0,0,0,0,0,15,15,15,,,,,,,,,,,,,,,,,,,,,,,,,a,1,0.847967499983497,,,,,,,,,,,,sxc,m,22,2024-04-11_15h34.28.642,mian,2022.2.4,60.01774128159565,
A5,1,1,A,a,"[0.2, 0.2]",,,,,,,,0,0,0,0,0,16,16,16,,,,,,,,,,,,,,,,,,,,,,,,,a,1,1.118121900013648,,,,,,,,,,,,sxc,m,22,2024-04-11_15h34.28.642,mian,2022.2.4,60.01774128159565,
a6,1,2,a,l,"[-0.2, 0.2]",,,,,,,,0,0,0,0,0,17,17,17,,,,,,,,,,,,,,,,,,,,,,,,,l,1,0.7371839999686927,,,,,,,,,,,,sxc,m,22,2024-04-11_15h34.28.642,mian,2022.2.4,60.01774128159565,
2F,2,1,2.0,l,"[-0.2, -0.2]",,,,,,,,0,0,0,0,0,18,18,18,,,,,,,,,,,,,,,,,,,,,,,,,a,0,0.8750153000000864,,,,,,,,,,,,sxc,m,22,2024-04-11_15h34.28.642,mian,2022.2.4,60.01774128159565,
e4,2,2,4.0,l,"[0.2, -0.2]",,,,,,,,0,0,0,0,0,19,19,19,,,,,,,,,,,,,,,,,,,,,,,,,a,0,1.3598613999783993,,,,,,,,,,,,sxc,m,22,2024-04-11_15h34.28.642,mian,2022.2.4,60.01774128159565,
,,,,,,,,,,,,,0,0,0,0,,,,,,,,,,,,,,,,,,,,,,,,,,,,,,,,,,,,,,,,,,,sxc,m,22,2024-04-11_15h34.28.642,mian,2022.2.4,60.01774128159565,
2A,1,1,A,a,"[0.2, 0.2]",,,,,,,,1,0,1,0,0,0,0,0,,,,,,,,,,,,,,,,,,,,,,,,,a,1,0.8157864999957383,,,,,,,,,,,,sxc,m,22,2024-04-11_15h34.28.642,mian,2022.2.4,60.01774128159565,
A9,1,2,A,a,"[-0.2, 0.2]",,,,,,,,1,0,1,0,0,1,1,1,,,,,,,,,,,,,,,,,,,,,,,,,a,1,0.767613000003621,,,,,,,,,,,,sxc,m,22,2024-04-11_15h34.28.642,mian,2022.2.4,60.01774128159565,
7e,2,1,7.0,a,"[-0.2, -0.2]",,,,,,,,1,0,1,0,0,2,2,2,,,,,,,,,,,,,,,,,,,,,,,,,l,0,1.248213000013493,,,,,,,,,,,,sxc,m,22,2024-04-11_15h34.28.642,mian,2022.2.4,60.01774128159565,
9H,2,2,9.0,a,"[0.2, -0.2]",,,,,,,,1,0,1,0,0,3,3,3,,,,,,,,,,,,,,,,,,,,,,,,,a,1,1.1667575999163091,,,,,,,,,,,,sxc,m,22,2024-04-11_15h34.28.642,mian,2022.2.4,60.01774128159565,
h4,1,1,h,l,"[0.2, 0.2]",,,,,,,,1,0,1,0,0,4,4,4,,,,,,,,,,,,,,,,,,,,,,,,,l,1,1.3515587999718264,,,,,,,,,,,,sxc,m,22,2024-04-11_15h34.28.642,mian,2022.2.4,60.01774128159565,
4H,1,2,H,a,"[-0.2, 0.2]",,,,,,,,1,0,1,0,0,5,5,5,,,,,,,,,,,,,,,,,,,,,,,,,a,1,0.8096612000372261,,,,,,,,,,,,sxc,m,22,2024-04-11_15h34.28.642,mian,2022.2.4,60.01774128159565,
F8,2,1,8.0,l,"[-0.2, -0.2]",,,,,,,,1,0,1,0,0,6,6,6,,,,,,,,,,,,,,,,,,,,,,,,,l,1,1.0975982999661937,,,,,,,,,,,,sxc,m,22,2024-04-11_15h34.28.642,mian,2022.2.4,60.01774128159565,
h7,2,2,7.0,a,"[0.2, -0.2]",,,,,,,,1,0,1,0,0,7,7,7,,,,,,,,,,,,,,,,,,,,,,,,,a,1,1.4612334000412375,,,,,,,,,,,,sxc,m,22,2024-04-11_15h34.28.642,mian,2022.2.4,60.01774128159565,
5e,1,1,e,l,"[0.2, 0.2]",,,,,,,,1,0,1,0,0,8,8,8,,,,,,,,,,,,,,,,,,,,,,,,,l,1,1.2110948000336066,,,,,,,,,,,,sxc,m,22,2024-04-11_15h34.28.642,mian,2022.2.4,60.01774128159565,
e8,1,2,e,l,"[-0.2, 0.2]",,,,,,,,1,0,1,0,0,9,9,9,,,,,,,,,,,,,,,,,,,,,,,,,l,1,1.122953200014308,,,,,,,,,,,,sxc,m,22,2024-04-11_15h34.28.642,mian,2022.2.4,60.01774128159565,
4E,2,1,4.0,l,"[-0.2, -0.2]",,,,,,,,1,0,1,0,0,10,10,10,,,,,,,,,,,,,,,,,,,,,,,,,l,1,1.3424035999923944,,,,,,,,,,,,sxc,m,22,2024-04-11_15h34.28.642,mian,2022.2.4,60.01774128159565,
5H,2,2,5.0,a,"[0.2, -0.2]",,,,,,,,1,0,1,0,0,11,11,11,,,,,,,,,,,,,,,,,,,,,,,,,l,0,1.3452734999591485,,,,,,,,,,,,sxc,m,22,2024-04-11_15h34.28.642,mian,2022.2.4,60.01774128159565,
9E,1,1,E,a,"[0.2, 0.2]",,,,,,,,1,0,1,0,0,12,12,12,,,,,,,,,,,,,,,,,,,,,,,,,a,1,0.7153096999973059,,,,,,,,,,,,sxc,m,22,2024-04-11_15h34.28.642,mian,2022.2.4,60.01774128159565,
h9,1,2,h,l,"[-0.2, 0.2]",,,,,,,,1,0,1,0,0,13,13,13,,,,,,,,,,,,,,,,,,,,,,,,,l,1,1.2468273000558838,,,,,,,,,,,,sxc,m,22,2024-04-11_15h34.28.642,mian,2022.2.4,60.01774128159565,
2a,2,1,2.0,l,"[-0.2, -0.2]",,,,,,,,1,0,1,0,0,14,14,14,,,,,,,,,,,,,,,,,,,,,,,,,l,1,0.8533757000695914,,,,,,,,,,,,sxc,m,22,2024-04-11_15h34.28.642,mian,2022.2.4,60.01774128159565,
e5,2,2,5.0,a,"[0.2, -0.2]",,,,,,,,1,0,1,0,0,15,15,15,,,,,,,,,,,,,,,,,,,,,,,,,a,1,1.722826800076291,,,,,,,,,,,,sxc,m,22,2024-04-11_15h34.28.642,mian,2022.2.4,60.01774128159565,
A5,1,1,A,a,"[0.2, 0.2]",,,,,,,,1,0,1,0,0,16,16,16,,,,,,,,,,,,,,,,,,,,,,,,,l,0,1.487009400036186,,,,,,,,,,,,sxc,m,22,2024-04-11_15h34.28.642,mian,2022.2.4,60.01774128159565,
a6,1,2,a,l,"[-0.2, 0.2]",,,,,,,,1,0,1,0,0,17,17,17,,,,,,,,,,,,,,,,,,,,,,,,,l,1,1.594972399994731,,,,,,,,,,,,sxc,m,22,2024-04-11_15h34.28.642,mian,2022.2.4,60.01774128159565,
2F,2,1,2.0,l,"[-0.2, -0.2]",,,,,,,,1,0,1,0,0,18,18,18,,,,,,,,,,,,,,,,,,,,,,,,,l,1,1.6040314000565559,,,,,,,,,,,,sxc,m,22,2024-04-11_15h34.28.642,mian,2022.2.4,60.01774128159565,
e4,2,2,4.0,l,"[0.2, -0.2]",,,,,,,,1,0,1,0,0,19,19,19,,,,,,,,,,,,,,,,,,,,,,,,,l,1,0.7553167999722064,,,,,,,,,,,,sxc,m,22,2024-04-11_15h34.28.642,mian,2022.2.4,60.01774128159565,
,,,,,,,,,,,,,1,0,1,0,,,,,,,,,,,,,,,,,,,,,,,,,,,,,,,,,,,,,,,,,,,sxc,m,22,2024-04-11_15h34.28.642,mian,2022.2.4,60.01774128159565,
2A,1,1,A,a,"[0.2, 0.2]",,,,,,,,2,0,2,0,0,0,0,0,,,,,,,,,,,,,,,,,,,,,,,,,a,1,1.3482952000340447,,,,,,,,,,,,sxc,m,22,2024-04-11_15h34.28.642,mian,2022.2.4,60.01774128159565,
A9,1,2,A,a,"[-0.2, 0.2]",,,,,,,,2,0,2,0,0,1,1,1,,,,,,,,,,,,,,,,,,,,,,,,,a,1,0.7427005999488756,,,,,,,,,,,,sxc,m,22,2024-04-11_15h34.28.642,mian,2022.2.4,60.01774128159565,
7e,2,1,7.0,a,"[-0.2, -0.2]",,,,,,,,2,0,2,0,0,2,2,2,,,,,,,,,,,,,,,,,,,,,,,,,l,0,0.6654298999346793,,,,,,,,,,,,sxc,m,22,2024-04-11_15h34.28.642,mian,2022.2.4,60.01774128159565,
9H,2,2,9.0,a,"[0.2, -0.2]",,,,,,,,2,0,2,0,0,3,3,3,,,,,,,,,,,,,,,,,,,,,,,,,a,1,0.8708139000227675,,,,,,,,,,,,sxc,m,22,2024-04-11_15h34.28.642,mian,2022.2.4,60.01774128159565,
h4,1,1,h,l,"[0.2, 0.2]",,,,,,,,2,0,2,0,0,4,4,4,,,,,,,,,,,,,,,,,,,,,,,,,l,1,1.1238103000214323,,,,,,,,,,,,sxc,m,22,2024-04-11_15h34.28.642,mian,2022.2.4,60.01774128159565,
4H,1,2,H,a,"[-0.2, 0.2]",,,,,,,,2,0,2,0,0,5,5,5,,,,,,,,,,,,,,,,,,,,,,,,,a,1,0.6307015999918804,,,,,,,,,,,,sxc,m,22,2024-04-11_15h34.28.642,mian,2022.2.4,60.01774128159565,
F8,2,1,8.0,l,"[-0.2, -0.2]",,,,,,,,2,0,2,0,0,6,6,6,,,,,,,,,,,,,,,,,,,,,,,,,l,1,0.7496862000552937,,,,,,,,,,,,sxc,m,22,2024-04-11_15h34.28.642,mian,2022.2.4,60.01774128159565,
h7,2,2,7.0,a,"[0.2, -0.2]",,,,,,,,2,0,2,0,0,7,7,7,,,,,,,,,,,,,,,,,,,,,,,,,a,1,1.2634817000944167,,,,,,,,,,,,sxc,m,22,2024-04-11_15h34.28.642,mian,2022.2.4,60.01774128159565,
5e,1,1,e,l,"[0.2, 0.2]",,,,,,,,2,0,2,0,0,8,8,8,,,,,,,,,,,,,,,,,,,,,,,,,l,1,1.32548479991965,,,,,,,,,,,,sxc,m,22,2024-04-11_15h34.28.642,mian,2022.2.4,60.01774128159565,
e8,1,2,e,l,"[-0.2, 0.2]",,,,,,,,2,0,2,0,0,9,9,9,,,,,,,,,,,,,,,,,,,,,,,,,l,1,1.2162322000367567,,,,,,,,,,,,sxc,m,22,2024-04-11_15h34.28.642,mian,2022.2.4,60.01774128159565,
4E,2,1,4.0,l,"[-0.2, -0.2]",,,,,,,,2,0,2,0,0,10,10,10,,,,,,,,,,,,,,,,,,,,,,,,,l,1,1.3205131998984143,,,,,,,,,,,,sxc,m,22,2024-04-11_15h34.28.642,mian,2022.2.4,60.01774128159565,
5H,2,2,5.0,a,"[0.2, -0.2]",,,,,,,,2,0,2,0,0,11,11,11,,,,,,,,,,,,,,,,,,,,,,,,,a,1,0.8435531000141054,,,,,,,,,,,,sxc,m,22,2024-04-11_15h34.28.642,mian,2022.2.4,60.01774128159565,
9E,1,1,E,a,"[0.2, 0.2]",,,,,,,,2,0,2,0,0,12,12,12,,,,,,,,,,,,,,,,,,,,,,,,,a,1,1.2580630000447854,,,,,,,,,,,,sxc,m,22,2024-04-11_15h34.28.642,mian,2022.2.4,60.01774128159565,
h9,1,2,h,l,"[-0.2, 0.2]",,,,,,,,2,0,2,0,0,13,13,13,,,,,,,,,,,,,,,,,,,,,,,,,l,1,0.7432741998927668,,,,,,,,,,,,sxc,m,22,2024-04-11_15h34.28.642,mian,2022.2.4,60.01774128159565,
2a,2,1,2.0,l,"[-0.2, -0.2]",,,,,,,,2,0,2,0,0,14,14,14,,,,,,,,,,,,,,,,,,,,,,,,,l,1,0.7856232000049204,,,,,,,,,,,,sxc,m,22,2024-04-11_15h34.28.642,mian,2022.2.4,60.01774128159565,
e5,2,2,5.0,a,"[0.2, -0.2]",,,,,,,,2,0,2,0,0,15,15,15,,,,,,,,,,,,,,,,,,,,,,,,,l,0,0.8424750999547541,,,,,,,,,,,,sxc,m,22,2024-04-11_15h34.28.642,mian,2022.2.4,60.01774128159565,
A5,1,1,A,a,"[0.2, 0.2]",,,,,,,,2,0,2,0,0,16,16,16,,,,,,,,,,,,,,,,,,,,,,,,,a,1,0.9212736999616027,,,,,,,,,,,,sxc,m,22,2024-04-11_15h34.28.642,mian,2022.2.4,60.01774128159565,
a6,1,2,a,l,"[-0.2, 0.2]",,,,,,,,2,0,2,0,0,17,17,17,,,,,,,,,,,,,,,,,,,,,,,,,l,1,0.6676589999115095,,,,,,,,,,,,sxc,m,22,2024-04-11_15h34.28.642,mian,2022.2.4,60.01774128159565,
2F,2,1,2.0,l,"[-0.2, -0.2]",,,,,,,,2,0,2,0,0,18,18,18,,,,,,,,,,,,,,,,,,,,,,,,,l,1,1.2086913998937234,,,,,,,,,,,,sxc,m,22,2024-04-11_15h34.28.642,mian,2022.2.4,60.01774128159565,
e4,2,2,4.0,l,"[0.2, -0.2]",,,,,,,,2,0,2,0,0,19,19,19,,,,,,,,,,,,,,,,,,,,,,,,,l,1,0.7120935999555513,,,,,,,,,,,,sxc,m,22,2024-04-11_15h34.28.642,mian,2022.2.4,60.01774128159565,
,,,,,,,,,,,,,2,0,2,0,,,,,,,,,,,,,,,,,,,,,,,,,,,,,,,,,,,,,,,,,,,sxc,m,22,2024-04-11_15h34.28.642,mian,2022.2.4,60.01774128159565,
7h,1,1,h,l,"[0.2, 0.2]",,,,,,,,,,,,,,,,0,0,0,0,,,,,,,,,,,,,,,,,,,,,l,1,0.7886116999434307,,,,,,,,,,,,sxc,m,22,2024-04-11_15h34.28.642,mian,2022.2.4,60.01774128159565,
8F,1,2,F,a,"[-0.2, 0.2]",,,,,,,,,,,,,,,,0,1,1,1,,,,,,,,,,,,,,,,,,,,,a,1,0.8802255999762565,,,,,,,,,,,,sxc,m,22,2024-04-11_15h34.28.642,mian,2022.2.4,60.01774128159565,
8h,2,1,8.0,l,"[-0.2, -0.2]",,,,,,,,,,,,,,,,0,2,2,2,,,,,,,,,,,,,,,,,,,,,l,1,1.0734412999590859,,,,,,,,,,,,sxc,m,22,2024-04-11_15h34.28.642,mian,2022.2.4,60.01774128159565,
a2,2,2,2.0,l,"[0.2, -0.2]",,,,,,,,,,,,,,,,0,3,3,3,,,,,,,,,,,,,,,,,,,,,l,1,0.721699699992314,,,,,,,,,,,,sxc,m,22,2024-04-11_15h34.28.642,mian,2022.2.4,60.01774128159565,
8f,1,1,f,l,"[0.2, 0.2]",,,,,,,,,,,,,,,,0,4,4,4,,,,,,,,,,,,,,,,,,,,,l,1,1.0490455001126975,,,,,,,,,,,,sxc,m,22,2024-04-11_15h34.28.642,mian,2022.2.4,60.01774128159565,
6a,1,2,a,l,"[-0.2, 0.2]",,,,,,,,,,,,,,,,0,5,5,5,,,,,,,,,,,,,,,,,,,,,l,1,0.8747722998959944,,,,,,,,,,,,sxc,m,22,2024-04-11_15h34.28.642,mian,2022.2.4,60.01774128159565,
h6,2,1,6.0,l,"[-0.2, -0.2]",,,,,,,,,,,,,,,,0,6,6,6,,,,,,,,,,,,,,,,,,,,,l,1,0.8277548999758437,,,,,,,,,,,,sxc,m,22,2024-04-11_15h34.28.642,mian,2022.2.4,60.01774128159565,
f9,2,2,9.0,a,"[0.2, -0.2]",,,,,,,,,,,,,,,,0,7,7,7,,,,,,,,,,,,,,,,,,,,,a,1,0.8700495000230148,,,,,,,,,,,,sxc,m,22,2024-04-11_15h34.28.642,mian,2022.2.4,60.01774128159565,
E4,1,1,E,a,"[0.2, 0.2]",,,,,,,,,,,,,,,,0,8,8,8,,,,,,,,,,,,,,,,,,,,,a,1,0.9995395999867469,,,,,,,,,,,,sxc,m,22,2024-04-11_15h34.28.642,mian,2022.2.4,60.01774128159565,
6e,1,2,e,l,"[-0.2, 0.2]",,,,,,,,,,,,,,,,0,9,9,9,,,,,,,,,,,,,,,,,,,,,l,1,0.8111133000347763,,,,,,,,,,,,sxc,m,22,2024-04-11_15h34.28.642,mian,2022.2.4,60.01774128159565,
5G,2,1,5.0,a,"[-0.2, -0.2]",,,,,,,,,,,,,,,,0,10,10,10,,,,,,,,,,,,,,,,,,,,,a,1,1.1103422999149188,,,,,,,,,,,,sxc,m,22,2024-04-11_15h34.28.642,mian,2022.2.4,60.01774128159565,
h3,2,2,3.0,a,"[0.2, -0.2]",,,,,,,,,,,,,,,,0,11,11,11,,,,,,,,,,,,,,,,,,,,,a,1,1.0855753000359982,,,,,,,,,,,,sxc,m,22,2024-04-11_15h34.28.642,mian,2022.2.4,60.01774128159565,
9e,1,1,e,l,"[0.2, 0.2]",,,,,,,,,,,,,,,,0,12,12,12,,,,,,,,,,,,,,,,,,,,,l,1,0.9422118000220507,,,,,,,,,,,,sxc,m,22,2024-04-11_15h34.28.642,mian,2022.2.4,60.01774128159565,
a8,1,2,a,l,"[-0.2, 0.2]",,,,,,,,,,,,,,,,0,13,13,13,,,,,,,,,,,,,,,,,,,,,l,1,0.7081629000604153,,,,,,,,,,,,sxc,m,22,2024-04-11_15h34.28.642,mian,2022.2.4,60.01774128159565,
e8,2,1,8.0,l,"[-0.2, -0.2]",,,,,,,,,,,,,,,,0,14,14,14,,,,,,,,,,,,,,,,,,,,,a,0,1.0115878999931738,,,,,,,,,,,,sxc,m,22,2024-04-11_15h34.28.642,mian,2022.2.4,60.01774128159565,
3f,2,2,3.0,a,"[0.2, -0.2]",,,,,,,,,,,,,,,,0,15,15,15,,,,,,,,,,,,,,,,,,,,,a,1,1.0391076999949291,,,,,,,,,,,,sxc,m,22,2024-04-11_15h34.28.642,mian,2022.2.4,60.01774128159565,
7f,1,1,f,l,"[0.2, 0.2]",,,,,,,,,,,,,,,,0,16,16,16,,,,,,,,,,,,,,,,,,,,,a,0,1.0972770999651402,,,,,,,,,,,,sxc,m,22,2024-04-11_15h34.28.642,mian,2022.2.4,60.01774128159565,
a7,1,2,a,l,"[-0.2, 0.2]",,,,,,,,,,,,,,,,0,17,17,17,,,,,,,,,,,,,,,,,,,,,l,1,1.5686707999557257,,,,,,,,,,,,sxc,m,22,2024-04-11_15h34.28.642,mian,2022.2.4,60.01774128159565,
5A,2,1,5.0,a,"[-0.2, -0.2]",,,,,,,,,,,,,,,,0,18,18,18,,,,,,,,,,,,,,,,,,,,,a,1,1.1903878999873996,,,,,,,,,,,,sxc,m,22,2024-04-11_15h34.28.642,mian,2022.2.4,60.01774128159565,
8g,2,2,8.0,l,"[0.2, -0.2]",,,,,,,,,,,,,,,,0,19,19,19,,,,,,,,,,,,,,,,,,,,,l,1,0.8422352999914438,,,,,,,,,,,,sxc,m,22,2024-04-11_15h34.28.642,mian,2022.2.4,60.01774128159565,
9a,1,1,a,l,"[0.2, 0.2]",,,,,,,,,,,,,,,,0,20,20,20,,,,,,,,,,,,,,,,,,,,,l,1,1.691738500026986,,,,,,,,,,,,sxc,m,22,2024-04-11_15h34.28.642,mian,2022.2.4,60.01774128159565,
f7,1,2,f,l,"[-0.2, 0.2]",,,,,,,,,,,,,,,,0,21,21,21,,,,,,,,,,,,,,,,,,,,,l,1,1.8442211999790743,,,,,,,,,,,,sxc,m,22,2024-04-11_15h34.28.642,mian,2022.2.4,60.01774128159565,
g9,2,1,9.0,a,"[-0.2, -0.2]",,,,,,,,,,,,,,,,0,22,22,22,,,,,,,,,,,,,,,,,,,,,a,1,1.4389654999831691,,,,,,,,,,,,sxc,m,22,2024-04-11_15h34.28.642,mian,2022.2.4,60.01774128159565,
3h,2,2,3.0,a,"[0.2, -0.2]",,,,,,,,,,,,,,,,0,23,23,23,,,,,,,,,,,,,,,,,,,,,a,1,0.9774481999920681,,,,,,,,,,,,sxc,m,22,2024-04-11_15h34.28.642,mian,2022.2.4,60.01774128159565,
E6,1,1,E,a,"[0.2, 0.2]",,,,,,,,,,,,,,,,0,24,24,24,,,,,,,,,,,,,,,,,,,,,a,1,0.97390570002608,,,,,,,,,,,,sxc,m,22,2024-04-11_15h34.28.642,mian,2022.2.4,60.01774128159565,
F6,1,2,F,a,"[-0.2, 0.2]",,,,,,,,,,,,,,,,0,25,25,25,,,,,,,,,,,,,,,,,,,,,a,1,0.6273523999843746,,,,,,,,,,,,sxc,m,22,2024-04-11_15h34.28.642,mian,2022.2.4,60.01774128159565,
3A,2,1,3.0,a,"[-0.2, -0.2]",,,,,,,,,,,,,,,,0,26,26,26,,,,,,,,,,,,,,,,,,,,,a,1,1.2854589000344276,,,,,,,,,,,,sxc,m,22,2024-04-11_15h34.28.642,mian,2022.2.4,60.01774128159565,
8H,2,2,8.0,l,"[0.2, -0.2]",,,,,,,,,,,,,,,,0,27,27,27,,,,,,,,,,,,,,,,,,,,,l,1,0.862201499985531,,,,,,,,,,,,sxc,m,22,2024-04-11_15h34.28.642,mian,2022.2.4,60.01774128159565,
5a,1,1,a,l,"[0.2, 0.2]",,,,,,,,,,,,,,,,0,28,28,28,,,,,,,,,,,,,,,,,,,,,a,0,1.198880499927327,,,,,,,,,,,,sxc,m,22,2024-04-11_15h34.28.642,mian,2022.2.4,60.01774128159565,
2h,1,2,h,l,"[-0.2, 0.2]",,,,,,,,,,,,,,,,0,29,29,29,,,,,,,,,,,,,,,,,,,,,l,1,1.6115685000550002,,,,,,,,,,,,sxc,m,22,2024-04-11_15h34.28.642,mian,2022.2.4,60.01774128159565,
e5,2,1,5.0,a,"[-0.2, -0.2]",,,,,,,,,,,,,,,,0,30,30,30,,,,,,,,,,,,,,,,,,,,,a,1,2.4396548999939114,,,,,,,,,,,,sxc,m,22,2024-04-11_15h34.28.642,mian,2022.2.4,60.01774128159565,
a3,2,2,3.0,a,"[0.2, -0.2]",,,,,,,,,,,,,,,,0,31,31,31,,,,,,,,,,,,,,,,,,,,,a,1,1.1702705000061542,,,,,,,,,,,,sxc,m,22,2024-04-11_15h34.28.642,mian,2022.2.4,60.01774128159565,
f3,1,1,f,l,"[0.2, 0.2]",,,,,,,,,,,,,,,,0,32,32,32,,,,,,,,,,,,,,,,,,,,,l,1,1.3265599999576807,,,,,,,,,,,,sxc,m,22,2024-04-11_15h34.28.642,mian,2022.2.4,60.01774128159565,
2E,1,2,E,a,"[-0.2, 0.2]",,,,,,,,,,,,,,,,0,33,33,33,,,,,,,,,,,,,,,,,,,,,a,1,0.9733739000512287,,,,,,,,,,,,sxc,m,22,2024-04-11_15h34.28.642,mian,2022.2.4,60.01774128159565,
2H,2,1,2.0,l,"[-0.2, -0.2]",,,,,,,,,,,,,,,,0,34,34,34,,,,,,,,,,,,,,,,,,,,,l,1,2.434519900009036,,,,,,,,,,,,sxc,m,22,2024-04-11_15h34.28.642,mian,2022.2.4,60.01774128159565,
H8,2,2,8.0,l,"[0.2, -0.2]",,,,,,,,,,,,,,,,0,35,35,35,,,,,,,,,,,,,,,,,,,,,l,1,1.156955900019966,,,,,,,,,,,,sxc,m,22,2024-04-11_15h34.28.642,mian,2022.2.4,60.01774128159565,
9g,1,1,g,l,"[0.2, 0.2]",,,,,,,,,,,,,,,,0,36,36,36,,,,,,,,,,,,,,,,,,,,,l,1,1.730471400078386,,,,,,,,,,,,sxc,m,22,2024-04-11_15h34.28.642,mian,2022.2.4,60.01774128159565,
5h,1,2,h,l,"[-0.2, 0.2]",,,,,,,,,,,,,,,,0,37,37,37,,,,,,,,,,,,,,,,,,,,,l,1,0.6733968999469653,,,,,,,,,,,,sxc,m,22,2024-04-11_15h34.28.642,mian,2022.2.4,60.01774128159565,
e4,2,1,4.0,l,"[-0.2, -0.2]",,,,,,,,,,,,,,,,0,38,38,38,,,,,,,,,,,,,,,,,,,,,l,1,1.4265733000356704,,,,,,,,,,,,sxc,m,22,2024-04-11_15h34.28.642,mian,2022.2.4,60.01774128159565,
9h,2,2,9.0,a,"[0.2, -0.2]",,,,,,,,,,,,,,,,0,39,39,39,,,,,,,,,,,,,,,,,,,,,a,1,0.8058426000643522,,,,,,,,,,,,sxc,m,22,2024-04-11_15h34.28.642,mian,2022.2.4,60.01774128159565,
G3,1,1,G,a,"[0.2, 0.2]",,,,,,,,,,,,,,,,0,40,40,40,,,,,,,,,,,,,,,,,,,,,a,1,1.2245487000327557,,,,,,,,,,,,sxc,m,22,2024-04-11_15h34.28.642,mian,2022.2.4,60.01774128159565,
9A,1,2,A,a,"[-0.2, 0.2]",,,,,,,,,,,,,,,,0,41,41,41,,,,,,,,,,,,,,,,,,,,,a,1,0.8195554000558332,,,,,,,,,,,,sxc,m,22,2024-04-11_15h34.28.642,mian,2022.2.4,60.01774128159565,
H5,2,1,5.0,a,"[-0.2, -0.2]",,,,,,,,,,,,,,,,0,42,42,42,,,,,,,,,,,,,,,,,,,,,a,1,2.078607099945657,,,,,,,,,,,,sxc,m,22,2024-04-11_15h34.28.642,mian,2022.2.4,60.01774128159565,
4e,2,2,4.0,l,"[0.2, -0.2]",,,,,,,,,,,,,,,,0,43,43,43,,,,,,,,,,,,,,,,,,,,,l,1,1.3512336999410763,,,,,,,,,,,,sxc,m,22,2024-04-11_15h34.28.642,mian,2022.2.4,60.01774128159565,
E2,1,1,E,a,"[0.2, 0.2]",,,,,,,,,,,,,,,,0,44,44,44,,,,,,,,,,,,,,,,,,,,,a,1,2.1337504000402987,,,,,,,,,,,,sxc,m,22,2024-04-11_15h34.28.642,mian,2022.2.4,60.01774128159565,
A5,1,2,A,a,"[-0.2, 0.2]",,,,,,,,,,,,,,,,0,45,45,45,,,,,,,,,,,,,,,,,,,,,a,1,0.7721741000423208,,,,,,,,,,,,sxc,m,22,2024-04-11_15h34.28.642,mian,2022.2.4,60.01774128159565,
2A,2,1,2.0,l,"[-0.2, -0.2]",,,,,,,,,,,,,,,,0,46,46,46,,,,,,,,,,,,,,,,,,,,,l,1,2.272490100003779,,,,,,,,,,,,sxc,m,22,2024-04-11_15h34.28.642,mian,2022.2.4,60.01774128159565,
6G,2,2,6.0,l,"[0.2, -0.2]",,,,,,,,,,,,,,,,0,47,47,47,,,,,,,,,,,,,,,,,,,,,l,1,0.8182368000270799,,,,,,,,,,,,sxc,m,22,2024-04-11_15h34.28.642,mian,2022.2.4,60.01774128159565,
H3,1,1,H,a,"[0.2, 0.2]",,,,,,,,,,,,,,,,0,48,48,48,,,,,,,,,,,,,,,,,,,,,a,1,1.1727498000254855,,,,,,,,,,,,sxc,m,22,2024-04-11_15h34.28.642,mian,2022.2.4,60.01774128159565,
H2,1,2,H,a,"[-0.2, 0.2]",,,,,,,,,,,,,,,,0,49,49,49,,,,,,,,,,,,,,,,,,,,,a,1,0.5290849000448361,,,,,,,,,,,,sxc,m,22,2024-04-11_15h34.28.642,mian,2022.2.4,60.01774128159565,
e9,2,1,9.0,a,"[-0.2, -0.2]",,,,,,,,,,,,,,,,0,50,50,50,,,,,,,,,,,,,,,,,,,,,a,1,1.4882115001091734,,,,,,,,,,,,sxc,m,22,2024-04-11_15h34.28.642,mian,2022.2.4,60.01774128159565,
2G,2,2,2.0,l,"[0.2, -0.2]",,,,,,,,,,,,,,,,0,51,51,51,,,,,,,,,,,,,,,,,,,,,l,1,0.7440800999756902,,,,,,,,,,,,sxc,m,22,2024-04-11_15h34.28.642,mian,2022.2.4,60.01774128159565,
4f,1,1,f,l,"[0.2, 0.2]",,,,,,,,,,,,,,,,0,52,52,52,,,,,,,,,,,,,,,,,,,,,l,1,2.134531799936667,,,,,,,,,,,,sxc,m,22,2024-04-11_15h34.28.642,mian,2022.2.4,60.01774128159565,
H6,1,2,H,a,"[-0.2, 0.2]",,,,,,,,,,,,,,,,0,53,53,53,,,,,,,,,,,,,,,,,,,,,a,1,2.388894799980335,,,,,,,,,,,,sxc,m,22,2024-04-11_15h34.28.642,mian,2022.2.4,60.01774128159565,
A4,2,1,4.0,l,"[-0.2, -0.2]",,,,,,,,,,,,,,,,0,54,54,54,,,,,,,,,,,,,,,,,,,,,l,1,1.3937640999210998,,,,,,,,,,,,sxc,m,22,2024-04-11_15h34.28.642,mian,2022.2.4,60.01774128159565,
3F,2,2,3.0,a,"[0.2, -0.2]",,,,,,,,,,,,,,,,0,55,55,55,,,,,,,,,,,,,,,,,,,,,a,1,2.622459699981846,,,,,,,,,,,,sxc,m,22,2024-04-11_15h34.28.642,mian,2022.2.4,60.01774128159565,
7e,1,1,e,l,"[0.2, 0.2]",,,,,,,,,,,,,,,,0,56,56,56,,,,,,,,,,,,,,,,,,,,,l,1,0.9622595999389887,,,,,,,,,,,,sxc,m,22,2024-04-11_15h34.28.642,mian,2022.2.4,60.01774128159565,
F9,1,2,F,a,"[-0.2, 0.2]",,,,,,,,,,,,,,,,0,57,57,57,,,,,,,,,,,,,,,,,,,,,a,1,0.9430135000729933,,,,,,,,,,,,sxc,m,22,2024-04-11_15h34.28.642,mian,2022.2.4,60.01774128159565,
e2,2,1,2.0,l,"[-0.2, -0.2]",,,,,,,,,,,,,,,,0,58,58,58,,,,,,,,,,,,,,,,,,,,,l,1,3.3648054000223055,,,,,,,,,,,,sxc,m,22,2024-04-11_15h34.28.642,mian,2022.2.4,60.01774128159565,
5F,2,2,5.0,a,"[0.2, -0.2]",,,,,,,,,,,,,,,,0,59,59,59,,,,,,,,,,,,,,,,,,,,,a,1,1.0194884999655187,,,,,,,,,,,,sxc,m,22,2024-04-11_15h34.28.642,mian,2022.2.4,60.01774128159565,
f6,1,1,f,l,"[0.2, 0.2]",,,,,,,,,,,,,,,,0,60,60,60,,,,,,,,,,,,,,,,,,,,,l,1,1.51852190005593,,,,,,,,,,,,sxc,m,22,2024-04-11_15h34.28.642,mian,2022.2.4,60.01774128159565,
7G,1,2,G,a,"[-0.2, 0.2]",,,,,,,,,,,,,,,,0,61,61,61,,,,,,,,,,,,,,,,,,,,,a,1,1.1415726999985054,,,,,,,,,,,,sxc,m,22,2024-04-11_15h34.28.642,mian,2022.2.4,60.01774128159565,
e6,2,1,6.0,l,"[-0.2, -0.2]",,,,,,,,,,,,,,,,0,62,62,62,,,,,,,,,,,,,,,,,,,,,l,1,1.6590882999589667,,,,,,,,,,,,sxc,m,22,2024-04-11_15h34.28.642,mian,2022.2.4,60.01774128159565,
3G,2,2,3.0,a,"[0.2, -0.2]",,,,,,,,,,,,,,,,0,63,63,63,,,,,,,,,,,,,,,,,,,,,a,1,1.4692098998930305,,,,,,,,,,,,sxc,m,22,2024-04-11_15h34.28.642,mian,2022.2.4,60.01774128159565,
5E,1,1,E,a,"[0.2, 0.2]",,,,,,,,,,,,,,,,0,64,64,64,,,,,,,,,,,,,,,,,,,,,a,1,1.3828092999756336,,,,,,,,,,,,sxc,m,22,2024-04-11_15h34.28.642,mian,2022.2.4,60.01774128159565,
A6,1,2,A,a,"[-0.2, 0.2]",,,,,,,,,,,,,,,,0,65,65,65,,,,,,,,,,,,,,,,,,,,,a,1,0.5796205999795347,,,,,,,,,,,,sxc,m,22,2024-04-11_15h34.28.642,mian,2022.2.4,60.01774128159565,
E3,2,1,3.0,a,"[-0.2, -0.2]",,,,,,,,,,,,,,,,0,66,66,66,,,,,,,,,,,,,,,,,,,,,a,1,0.895807099994272,,,,,,,,,,,,sxc,m,22,2024-04-11_15h34.28.642,mian,2022.2.4,60.01774128159565,
2f,2,2,2.0,l,"[0.2, -0.2]",,,,,,,,,,,,,,,,0,67,67,67,,,,,,,,,,,,,,,,,,,,,l,1,1.2803909999784082,,,,,,,,,,,,sxc,m,22,2024-04-11_15h34.28.642,mian,2022.2.4,60.01774128159565,
g3,1,1,g,l,"[0.2, 0.2]",,,,,,,,,,,,,,,,0,68,68,68,,,,,,,,,,,,,,,,,,,,,l,1,1.5128802999388427,,,,,,,,,,,,sxc,m,22,2024-04-11_15h34.28.642,mian,2022.2.4,60.01774128159565,
E8,1,2,E,a,"[-0.2, 0.2]",,,,,,,,,,,,,,,,0,69,69,69,,,,,,,,,,,,,,,,,,,,,a,1,0.7608542999951169,,,,,,,,,,,,sxc,m,22,2024-04-11_15h34.28.642,mian,2022.2.4,60.01774128159565,
6g,2,1,6.0,l,"[-0.2, -0.2]",,,,,,,,,,,,,,,,0,70,70,70,,,,,,,,,,,,,,,,,,,,,l,1,0.7821476999670267,,,,,,,,,,,,sxc,m,22,2024-04-11_15h34.28.642,mian,2022.2.4,60.01774128159565,
5H,2,2,5.0,a,"[0.2, -0.2]",,,,,,,,,,,,,,,,0,71,71,71,,,,,,,,,,,,,,,,,,,,,a,1,1.4985875999554992,,,,,,,,,,,,sxc,m,22,2024-04-11_15h34.28.642,mian,2022.2.4,60.01774128159565,
4A,1,1,A,a,"[0.2, 0.2]",,,,,,,,,,,,,,,,0,72,72,72,,,,,,,,,,,,,,,,,,,,,a,1,1.0351620999863371,,,,,,,,,,,,sxc,m,22,2024-04-11_15h34.28.642,mian,2022.2.4,60.01774128159565,
7F,1,2,F,a,"[-0.2, 0.2]",,,,,,,,,,,,,,,,0,73,73,73,,,,,,,,,,,,,,,,,,,,,a,1,0.8450101000489667,,,,,,,,,,,,sxc,m,22,2024-04-11_15h34.28.642,mian,2022.2.4,60.01774128159565,
6H,2,1,6.0,l,"[-0.2, -0.2]",,,,,,,,,,,,,,,,0,74,74,74,,,,,,,,,,,,,,,,,,,,,l,1,1.087464899988845,,,,,,,,,,,,sxc,m,22,2024-04-11_15h34.28.642,mian,2022.2.4,60.01774128159565,
3a,2,2,3.0,a,"[0.2, -0.2]",,,,,,,,,,,,,,,,0,75,75,75,,,,,,,,,,,,,,,,,,,,,l,0,1.0071834999835119,,,,,,,,,,,,sxc,m,22,2024-04-11_15h34.28.642,mian,2022.2.4,60.01774128159565,
9F,1,1,F,a,"[0.2, 0.2]",,,,,,,,,,,,,,,,0,76,76,76,,,,,,,,,,,,,,,,,,,,,a,1,1.4587099000345916,,,,,,,,,,,,sxc,m,22,2024-04-11_15h34.28.642,mian,2022.2.4,60.01774128159565,
G7,1,2,G,a,"[-0.2, 0.2]",,,,,,,,,,,,,,,,0,77,77,77,,,,,,,,,,,,,,,,,,,,,a,1,1.092771299998276,,,,,,,,,,,,sxc,m,22,2024-04-11_15h34.28.642,mian,2022.2.4,60.01774128159565,
a6,2,1,6.0,l,"[-0.2, -0.2]",,,,,,,,,,,,,,,,0,78,78,78,,,,,,,,,,,,,,,,,,,,,l,1,2.069069499964826,,,,,,,,,,,,sxc,m,22,2024-04-11_15h34.28.642,mian,2022.2.4,60.01774128159565,
4h,2,2,4.0,l,"[0.2, -0.2]",,,,,,,,,,,,,,,,0,79,79,79,,,,,,,,,,,,,,,,,,,,,l,1,0.878214200027287,,,,,,,,,,,,sxc,m,22,2024-04-11_15h34.28.642,mian,2022.2.4,60.01774128159565,
6A,1,1,A,a,"[0.2, 0.2]",,,,,,,,,,,,,,,,,,,,0,0,0,0,,,,,,,,,,,,,,,,,a,1,0.938791900058277,,,,,,,,,,,,sxc,m,22,2024-04-11_15h34.28.642,mian,2022.2.4,60.01774128159565,
4H,1,2,H,a,"[-0.2, 0.2]",,,,,,,,,,,,,,,,,,,,0,1,1,1,,,,,,,,,,,,,,,,,a,1,1.1620438999962062,,,,,,,,,,,,sxc,m,22,2024-04-11_15h34.28.642,mian,2022.2.4,60.01774128159565,
3H,2,1,3.0,a,"[-0.2, -0.2]",,,,,,,,,,,,,,,,,,,,0,2,2,2,,,,,,,,,,,,,,,,,a,1,1.446785100037232,,,,,,,,,,,,sxc,m,22,2024-04-11_15h34.28.642,mian,2022.2.4,60.01774128159565,
a9,2,2,9.0,a,"[0.2, -0.2]",,,,,,,,,,,,,,,,,,,,0,3,3,3,,,,,,,,,,,,,,,,,a,1,1.0008055999642238,,,,,,,,,,,,sxc,m,22,2024-04-11_15h34.28.642,mian,2022.2.4,60.01774128159565,
E7,1,1,E,a,"[0.2, 0.2]",,,,,,,,,,,,,,,,,,,,0,4,4,4,,,,,,,,,,,,,,,,,a,1,0.9646966999862343,,,,,,,,,,,,sxc,m,22,2024-04-11_15h34.28.642,mian,2022.2.4,60.01774128159565,
6h,1,2,h,l,"[-0.2, 0.2]",,,,,,,,,,,,,,,,,,,,0,5,5,5,,,,,,,,,,,,,,,,,l,1,0.7938507000217214,,,,,,,,,,,,sxc,m,22,2024-04-11_15h34.28.642,mian,2022.2.4,60.01774128159565,
8A,2,1,8.0,l,"[-0.2, -0.2]",,,,,,,,,,,,,,,,,,,,0,6,6,6,,,,,,,,,,,,,,,,,a,0,1.0774839000077918,,,,,,,,,,,,sxc,m,22,2024-04-11_15h34.28.642,mian,2022.2.4,60.01774128159565,
f5,2,2,5.0,a,"[0.2, -0.2]",,,,,,,,,,,,,,,,,,,,0,7,7,7,,,,,,,,,,,,,,,,,a,1,2.711041499977,,,,,,,,,,,,sxc,m,22,2024-04-11_15h34.28.642,mian,2022.2.4,60.01774128159565,
2a,1,1,a,l,"[0.2, 0.2]",,,,,,,,,,,,,,,,,,,,0,8,8,8,,,,,,,,,,,,,,,,,l,1,1.1109158999752253,,,,,,,,,,,,sxc,m,22,2024-04-11_15h34.28.642,mian,2022.2.4,60.01774128159565,
F7,1,2,F,a,"[-0.2, 0.2]",,,,,,,,,,,,,,,,,,,,0,9,9,9,,,,,,,,,,,,,,,,,a,1,0.8146381999831647,,,,,,,,,,,,sxc,m,22,2024-04-11_15h34.28.642,mian,2022.2.4,60.01774128159565,
h2,2,1,2.0,l,"[-0.2, -0.2]",,,,,,,,,,,,,,,,,,,,0,10,10,10,,,,,,,,,,,,,,,,,l,1,0.9781110000330955,,,,,,,,,,,,sxc,m,22,2024-04-11_15h34.28.642,mian,2022.2.4,60.01774128159565,
F5,2,2,5.0,a,"[0.2, -0.2]",,,,,,,,,,,,,,,,,,,,0,11,11,11,,,,,,,,,,,,,,,,,a,1,0.9109828000655398,,,,,,,,,,,,sxc,m,22,2024-04-11_15h34.28.642,mian,2022.2.4,60.01774128159565,
A9,1,1,A,a,"[0.2, 0.2]",,,,,,,,,,,,,,,,,,,,0,12,12,12,,,,,,,,,,,,,,,,,a,1,2.1263237999519333,,,,,,,,,,,,sxc,m,22,2024-04-11_15h34.28.642,mian,2022.2.4,60.01774128159565,
3e,1,2,e,l,"[-0.2, 0.2]",,,,,,,,,,,,,,,,,,,,0,13,13,13,,,,,,,,,,,,,,,,,l,1,1.2290713000111282,,,,,,,,,,,,sxc,m,22,2024-04-11_15h34.28.642,mian,2022.2.4,60.01774128159565,
f8,2,1,8.0,l,"[-0.2, -0.2]",,,,,,,,,,,,,,,,,,,,0,14,14,14,,,,,,,,,,,,,,,,,l,1,1.192070999997668,,,,,,,,,,,,sxc,m,22,2024-04-11_15h34.28.642,mian,2022.2.4,60.01774128159565,
G2,2,2,2.0,l,"[0.2, -0.2]",,,,,,,,,,,,,,,,,,,,0,15,15,15,,,,,,,,,,,,,,,,,l,1,1.675995699944906,,,,,,,,,,,,sxc,m,22,2024-04-11_15h34.28.642,mian,2022.2.4,60.01774128159565,
F2,1,1,F,a,"[0.2, 0.2]",,,,,,,,,,,,,,,,,,,,0,16,16,16,,,,,,,,,,,,,,,,,a,1,3.725368600105867,,,,,,,,,,,,sxc,m,22,2024-04-11_15h34.28.642,mian,2022.2.4,60.01774128159565,
5e,1,2,e,l,"[-0.2, 0.2]",,,,,,,,,,,,,,,,,,,,0,17,17,17,,,,,,,,,,,,,,,,,l,1,1.2296659999992698,,,,,,,,,,,,sxc,m,22,2024-04-11_15h34.28.642,mian,2022.2.4,60.01774128159565,
A3,2,1,3.0,a,"[-0.2, -0.2]",,,,,,,,,,,,,,,,,,,,0,18,18,18,,,,,,,,,,,,,,,,,a,1,0.9681724000256509,,,,,,,,,,,,sxc,m,22,2024-04-11_15h34.28.642,mian,2022.2.4,60.01774128159565,
4g,2,2,4.0,l,"[0.2, -0.2]",,,,,,,,,,,,,,,,,,,,0,19,19,19,,,,,,,,,,,,,,,,,l,1,0.9329056000569835,,,,,,,,,,,,sxc,m,22,2024-04-11_15h34.28.642,mian,2022.2.4,60.01774128159565,
h7,1,1,h,l,"[0.2, 0.2]",,,,,,,,,,,,,,,,,,,,0,20,20,20,,,,,,,,,,,,,,,,,l,1,1.356431399937719,,,,,,,,,,,,sxc,m,22,2024-04-11_15h34.28.642,mian,2022.2.4,60.01774128159565,
3g,1,2,g,l,"[-0.2, 0.2]",,,,,,,,,,,,,,,,,,,,0,21,21,21,,,,,,,,,,,,,,,,,l,1,0.5612208000384271,,,,,,,,,,,,sxc,m,22,2024-04-11_15h34.28.642,mian,2022.2.4,60.01774128159565,
8a,2,1,8.0,l,"[-0.2, -0.2]",,,,,,,,,,,,,,,,,,,,0,22,22,22,,,,,,,,,,,,,,,,,l,1,1.3667737999930978,,,,,,,,,,,,sxc,m,22,2024-04-11_15h34.28.642,mian,2022.2.4,60.01774128159565,
4E,2,2,4.0,l,"[0.2, -0.2]",,,,,,,,,,,,,,,,,,,,0,23,23,23,,,,,,,,,,,,,,,,,l,1,1.1313140999991447,,,,,,,,,,,,sxc,m,22,2024-04-11_15h34.28.642,mian,2022.2.4,60.01774128159565,
E5,1,1,E,a,"[0.2, 0.2]",,,,,,,,,,,,,,,,,,,,0,24,24,24,,,,,,,,,,,,,,,,,a,1,0.9703778000548482,,,,,,,,,,,,sxc,m,22,2024-04-11_15h34.28.642,mian,2022.2.4,60.01774128159565,
g6,1,2,g,l,"[-0.2, 0.2]",,,,,,,,,,,,,,,,,,,,0,25,25,25,,,,,,,,,,,,,,,,,l,1,0.7835601000115275,,,,,,,,,,,,sxc,m,22,2024-04-11_15h34.28.642,mian,2022.2.4,60.01774128159565,
2e,2,1,2.0,l,"[-0.2, -0.2]",,,,,,,,,,,,,,,,,,,,0,26,26,26,,,,,,,,,,,,,,,,,l,1,1.1712456999812275,,,,,,,,,,,,sxc,m,22,2024-04-11_15h34.28.642,mian,2022.2.4,60.01774128159565,
h8,2,2,8.0,l,"[0.2, -0.2]",,,,,,,,,,,,,,,,,,,,0,27,27,27,,,,,,,,,,,,,,,,,l,1,0.8159683000994846,,,,,,,,,,,,sxc,m,22,2024-04-11_15h34.28.642,mian,2022.2.4,60.01774128159565,
G6,1,1,G,a,"[0.2, 0.2]",,,,,,,,,,,,,,,,,,,,0,28,28,28,,,,,,,,,,,,,,,,,a,1,0.5792107000015676,,,,,,,,,,,,sxc,m,22,2024-04-11_15h34.28.642,mian,2022.2.4,60.01774128159565,
a4,1,2,a,l,"[-0.2, 0.2]",,,,,,,,,,,,,,,,,,,,0,29,29,29,,,,,,,,,,,,,,,,,l,1,0.6077367999823764,,,,,,,,,,,,sxc,m,22,2024-04-11_15h34.28.642,mian,2022.2.4,60.01774128159565,
9H,2,1,9.0,a,"[-0.2, -0.2]",,,,,,,,,,,,,,,,,,,,0,30,30,30,,,,,,,,,,,,,,,,,a,1,1.2838391000404954,,,,,,,,,,,,sxc,m,22,2024-04-11_15h34.28.642,mian,2022.2.4,60.01774128159565,
7H,2,2,7.0,a,"[0.2, -0.2]",,,,,,,,,,,,,,,,,,,,0,31,31,31,,,,,,,,,,,,,,,,,a,1,1.0996238999068737,,,,,,,,,,,,sxc,m,22,2024-04-11_15h34.28.642,mian,2022.2.4,60.01774128159565,
9f,1,1,f,l,"[0.2, 0.2]",,,,,,,,,,,,,,,,,,,,0,32,32,32,,,,,,,,,,,,,,,,,l,1,0.9394483999349177,,,,,,,,,,,,sxc,m,22,2024-04-11_15h34.28.642,mian,2022.2.4,60.01774128159565,
8E,1,2,E,a,"[-0.2, 0.2]",,,,,,,,,,,,,,,,,,,,0,33,33,33,,,,,,,,,,,,,,,,,a,1,1.4736830000765622,,,,,,,,,,,,sxc,m,22,2024-04-11_15h34.28.642,mian,2022.2.4,60.01774128159565,
A2,2,1,2.0,l,"[-0.2, -0.2]",,,,,,,,,,,,,,,,,,,,0,34,34,34,,,,,,,,,,,,,,,,,l,1,0.9786575000034645,,,,,,,,,,,,sxc,m,22,2024-04-11_15h34.28.642,mian,2022.2.4,60.01774128159565,
H7,2,2,7.0,a,"[0.2, -0.2]",,,,,,,,,,,,,,,,,,,,0,35,35,35,,,,,,,,,,,,,,,,,a,1,1.1749970000237226,,,,,,,,,,,,sxc,m,22,2024-04-11_15h34.28.642,mian,2022.2.4,60.01774128159565,
h9,1,1,h,l,"[0.2, 0.2]",,,,,,,,,,,,,,,,,,,,0,36,36,36,,,,,,,,,,,,,,,,,l,1,3.9004799000686035,,,,,,,,,,,,sxc,m,22,2024-04-11_15h34.28.642,mian,2022.2.4,60.01774128159565,
8G,1,2,G,a,"[-0.2, 0.2]",,,,,,,,,,,,,,,,,,,,0,37,37,37,,,,,,,,,,,,,,,,,a,1,1.3010268000653014,,,,,,,,,,,,sxc,m,22,2024-04-11_15h34.28.642,mian,2022.2.4,60.01774128159565,
H4,2,1,4.0,l,"[-0.2, -0.2]",,,,,,,,,,,,,,,,,,,,0,38,38,38,,,,,,,,,,,,,,,,,l,1,1.396898700040765,,,,,,,,,,,,sxc,m,22,2024-04-11_15h34.28.642,mian,2022.2.4,60.01774128159565,
A8,2,2,8.0,l,"[0.2, -0.2]",,,,,,,,,,,,,,,,,,,,0,39,39,39,,,,,,,,,,,,,,,,,l,1,2.0086918000597507,,,,,,,,,,,,sxc,m,22,2024-04-11_15h34.28.642,mian,2022.2.4,60.01774128159565,
g7,1,1,g,l,"[0.2, 0.2]",,,,,,,,,,,,,,,,,,,,0,40,40,40,,,,,,,,,,,,,,,,,l,1,1.5094095999374986,,,,,,,,,,,,sxc,m,22,2024-04-11_15h34.28.642,mian,2022.2.4,60.01774128159565,
H9,1,2,H,a,"[-0.2, 0.2]",,,,,,,,,,,,,,,,,,,,0,41,41,41,,,,,,,,,,,,,,,,,a,1,1.2611938000191003,,,,,,,,,,,,sxc,m,22,2024-04-11_15h34.28.642,mian,2022.2.4,60.01774128159565,
9E,2,1,9.0,a,"[-0.2, -0.2]",,,,,,,,,,,,,,,,,,,,0,42,42,42,,,,,,,,,,,,,,,,,a,1,1.7099876999855042,,,,,,,,,,,,sxc,m,22,2024-04-11_15h34.28.642,mian,2022.2.4,60.01774128159565,
a5,2,2,5.0,a,"[0.2, -0.2]",,,,,,,,,,,,,,,,,,,,0,43,43,43,,,,,,,,,,,,,,,,,a,1,1.029685299959965,,,,,,,,,,,,sxc,m,22,2024-04-11_15h34.28.642,mian,2022.2.4,60.01774128159565,
3E,1,1,E,a,"[0.2, 0.2]",,,,,,,,,,,,,,,,,,,,0,44,44,44,,,,,,,,,,,,,,,,,a,1,1.6805039000464603,,,,,,,,,,,,sxc,m,22,2024-04-11_15h34.28.642,mian,2022.2.4,60.01774128159565,
6f,1,2,f,l,"[-0.2, 0.2]",,,,,,,,,,,,,,,,,,,,0,45,45,45,,,,,,,,,,,,,,,,,l,1,0.770279600052163,,,,,,,,,,,,sxc,m,22,2024-04-11_15h34.28.642,mian,2022.2.4,60.01774128159565,
g8,2,1,8.0,l,"[-0.2, -0.2]",,,,,,,,,,,,,,,,,,,,0,46,46,46,,,,,,,,,,,,,,,,,l,1,1.670479099964723,,,,,,,,,,,,sxc,m,22,2024-04-11_15h34.28.642,mian,2022.2.4,60.01774128159565,
4F,2,2,4.0,l,"[0.2, -0.2]",,,,,,,,,,,,,,,,,,,,0,47,47,47,,,,,,,,,,,,,,,,,l,1,1.9036563999252394,,,,,,,,,,,,sxc,m,22,2024-04-11_15h34.28.642,mian,2022.2.4,60.01774128159565,
4a,1,1,a,l,"[0.2, 0.2]",,,,,,,,,,,,,,,,,,,,0,48,48,48,,,,,,,,,,,,,,,,,l,1,0.7840025000041351,,,,,,,,,,,,sxc,m,22,2024-04-11_15h34.28.642,mian,2022.2.4,60.01774128159565,
e3,1,2,e,l,"[-0.2, 0.2]",,,,,,,,,,,,,,,,,,,,0,49,49,49,,,,,,,,,,,,,,,,,l,1,1.003750400035642,,,,,,,,,,,,sxc,m,22,2024-04-11_15h34.28.642,mian,2022.2.4,60.01774128159565,
5g,2,1,5.0,a,"[-0.2, -0.2]",,,,,,,,,,,,,,,,,,,,0,50,50,50,,,,,,,,,,,,,,,,,a,1,1.255503399996087,,,,,,,,,,,,sxc,m,22,2024-04-11_15h34.28.642,mian,2022.2.4,60.01774128159565,
f4,2,2,4.0,l,"[0.2, -0.2]",,,,,,,,,,,,,,,,,,,,0,51,51,51,,,,,,,,,,,,,,,,,l,1,0.9603921000380069,,,,,,,,,,,,sxc,m,22,2024-04-11_15h34.28.642,mian,2022.2.4,60.01774128159565,
6E,1,1,E,a,"[0.2, 0.2]",,,,,,,,,,,,,,,,,,,,0,52,52,52,,,,,,,,,,,,,,,,,a,1,2.0056821999605745,,,,,,,,,,,,sxc,m,22,2024-04-11_15h34.28.642,mian,2022.2.4,60.01774128159565,
7A,1,2,A,a,"[-0.2, 0.2]",,,,,,,,,,,,,,,,,,,,0,53,53,53,,,,,,,,,,,,,,,,,a,1,1.802445900044404,,,,,,,,,,,,sxc,m,22,2024-04-11_15h34.28.642,mian,2022.2.4,60.01774128159565,
F4,2,1,4.0,l,"[-0.2, -0.2]",,,,,,,,,,,,,,,,,,,,0,54,54,54,,,,,,,,,,,,,,,,,l,1,1.437464699964039,,,,,,,,,,,,sxc,m,22,2024-04-11_15h34.28.642,mian,2022.2.4,60.01774128159565,
2g,2,2,2.0,l,"[0.2, -0.2]",,,,,,,,,,,,,,,,,,,,0,55,55,55,,,,,,,,,,,,,,,,,l,1,1.9444697999861091,,,,,,,,,,,,sxc,m,22,2024-04-11_15h34.28.642,mian,2022.2.4,60.01774128159565,
7E,1,1,E,a,"[0.2, 0.2]",,,,,,,,,,,,,,,,,,,,0,56,56,56,,,,,,,,,,,,,,,,,a,1,0.9191852000076324,,,,,,,,,,,,sxc,m,22,2024-04-11_15h34.28.642,mian,2022.2.4,60.01774128159565,
G4,1,2,G,a,"[-0.2, 0.2]",,,,,,,,,,,,,,,,,,,,0,57,57,57,,,,,,,,,,,,,,,,,a,1,1.405037400079891,,,,,,,,,,,,sxc,m,22,2024-04-11_15h34.28.642,mian,2022.2.4,60.01774128159565,
2F,2,1,2.0,l,"[-0.2, -0.2]",,,,,,,,,,,,,,,,,,,,0,58,58,58,,,,,,,,,,,,,,,,,l,1,1.313294899999164,,,,,,,,,,,,sxc,m,22,2024-04-11_15h34.28.642,mian,2022.2.4,60.01774128159565,
E9,2,2,9.0,a,"[0.2, -0.2]",,,,,,,,,,,,,,,,,,,,0,59,59,59,,,,,,,,,,,,,,,,,a,1,1.0490544999483973,,,,,,,,,,,,sxc,m,22,2024-04-11_15h34.28.642,mian,2022.2.4,60.01774128159565,
5f,1,1,f,l,"[0.2, 0.2]",,,,,,,,,,,,,,,,,,,,0,60,60,60,,,,,,,,,,,,,,,,,l,1,1.1386989000020549,,,,,,,,,,,,sxc,m,22,2024-04-11_15h34.28.642,mian,2022.2.4,60.01774128159565,
e7,1,2,e,l,"[-0.2, 0.2]",,,,,,,,,,,,,,,,,,,,0,61,61,61,,,,,,,,,,,,,,,,,l,1,1.6490173999918625,,,,,,,,,,,,sxc,m,22,2024-04-11_15h34.28.642,mian,2022.2.4,60.01774128159565,
f2,2,1,2.0,l,"[-0.2, -0.2]",,,,,,,,,,,,,,,,,,,,0,62,62,62,,,,,,,,,,,,,,,,,l,1,1.283088400028646,,,,,,,,,,,,sxc,m,22,2024-04-11_15h34.28.642,mian,2022.2.4,60.01774128159565,
G9,2,2,9.0,a,"[0.2, -0.2]",,,,,,,,,,,,,,,,,,,,0,63,63,63,,,,,,,,,,,,,,,,,a,1,1.0840238999808207,,,,,,,,,,,,sxc,m,22,2024-04-11_15h34.28.642,mian,2022.2.4,60.01774128159565,
7g,1,1,g,l,"[0.2, 0.2]",,,,,,,,,,,,,,,,,,,,0,64,64,64,,,,,,,,,,,,,,,,,l,1,2.2440258000278845,,,,,,,,,,,,sxc,m,22,2024-04-11_15h34.28.642,mian,2022.2.4,60.01774128159565,
F8,1,2,F,a,"[-0.2, 0.2]",,,,,,,,,,,,,,,,,,,,0,65,65,65,,,,,,,,,,,,,,,,,a,1,1.814906100044027,,,,,,,,,,,,sxc,m,22,2024-04-11_15h34.28.642,mian,2022.2.4,60.01774128159565,
A7,2,1,7.0,a,"[-0.2, -0.2]",,,,,,,,,,,,,,,,,,,,0,66,66,66,,,,,,,,,,,,,,,,,a,1,1.882176199927926,,,,,,,,,,,,sxc,m,22,2024-04-11_15h34.28.642,mian,2022.2.4,60.01774128159565,
4G,2,2,4.0,l,"[0.2, -0.2]",,,,,,,,,,,,,,,,,,,,0,67,67,67,,,,,,,,,,,,,,,,,l,1,0.859204399981536,,,,,,,,,,,,sxc,m,22,2024-04-11_15h34.28.642,mian,2022.2.4,60.01774128159565,
g2,1,1,g,l,"[0.2, 0.2]",,,,,,,,,,,,,,,,,,,,0,68,68,68,,,,,,,,,,,,,,,,,l,1,1.1812782998895273,,,,,,,,,,,,sxc,m,22,2024-04-11_15h34.28.642,mian,2022.2.4,60.01774128159565,
g4,1,2,g,l,"[-0.2, 0.2]",,,,,,,,,,,,,,,,,,,,0,69,69,69,,,,,,,,,,,,,,,,,l,1,0.9698810999980196,,,,,,,,,,,,sxc,m,22,2024-04-11_15h34.28.642,mian,2022.2.4,60.01774128159565,
7a,2,1,7.0,a,"[-0.2, -0.2]",,,,,,,,,,,,,,,,,,,,0,70,70,70,,,,,,,,,,,,,,,,,a,1,1.0701825000578538,,,,,,,,,,,,sxc,m,22,2024-04-11_15h34.28.642,mian,2022.2.4,60.01774128159565,
8e,2,2,8.0,l,"[0.2, -0.2]",,,,,,,,,,,,,,,,,,,,0,71,71,71,,,,,,,,,,,,,,,,,l,1,1.7911060999613255,,,,,,,,,,,,sxc,m,22,2024-04-11_15h34.28.642,mian,2022.2.4,60.01774128159565,
h4,1,1,h,l,"[0.2, 0.2]",,,,,,,,,,,,,,,,,,,,0,72,72,72,,,,,,,,,,,,,,,,,l,1,1.5795529999304563,,,,,,,,,,,,sxc,m,22,2024-04-11_15h34.28.642,mian,2022.2.4,60.01774128159565,
G8,1,2,G,a,"[-0.2, 0.2]",,,,,,,,,,,,,,,,,,,,0,73,73,73,,,,,,,,,,,,,,,,,a,1,1.064731499995105,,,,,,,,,,,,sxc,m,22,2024-04-11_15h34.28.642,mian,2022.2.4,60.01774128159565,
6F,2,1,6.0,l,"[-0.2, -0.2]",,,,,,,,,,,,,,,,,,,,0,74,74,74,,,,,,,,,,,,,,,,,l,1,1.642165399971418,,,,,,,,,,,,sxc,m,22,2024-04-11_15h34.28.642,mian,2022.2.4,60.01774128159565,
g5,2,2,5.0,a,"[0.2, -0.2]",,,,,,,,,,,,,,,,,,,,0,75,75,75,,,,,,,,,,,,,,,,,a,1,1.6526544999796897,,,,,,,,,,,,sxc,m,22,2024-04-11_15h34.28.642,mian,2022.2.4,60.01774128159565,
G5,1,1,G,a,"[0.2, 0.2]",,,,,,,,,,,,,,,,,,,,0,76,76,76,,,,,,,,,,,,,,,,,a,1,1.1421375001082197,,,,,,,,,,,,sxc,m,22,2024-04-11_15h34.28.642,mian,2022.2.4,60.01774128159565,
h5,1,2,h,l,"[-0.2, 0.2]",,,,,,,,,,,,,,,,,,,,0,77,77,77,,,,,,,,,,,,,,,,,l,1,1.9403682999545708,,,,,,,,,,,,sxc,m,22,2024-04-11_15h34.28.642,mian,2022.2.4,60.01774128159565,
9G,2,1,9.0,a,"[-0.2, -0.2]",,,,,,,,,,,,,,,,,,,,0,78,78,78,,,,,,,,,,,,,,,,,a,1,1.2589210999431089,,,,,,,,,,,,sxc,m,22,2024-04-11_15h34.28.642,mian,2022.2.4,60.01774128159565,
F3,2,2,3.0,a,"[0.2, -0.2]",,,,,,,,,,,,,,,,,,,,0,79,79,79,,,,,,,,,,,,,,,,,a,1,0.8853027001023293,,,,,,,,,,,,sxc,m,22,2024-04-11_15h34.28.642,mian,2022.2.4,60.01774128159565,
,,,,,,1,1,pic/flanker6.png,pic/flanker4.png,s,k,,,,,,,,,,,,,,,,,,0,0,0,0,0,0,0,6,,,,,,,,,,,,620.8055268999888,622.0042503000004,622.0208731000312,622.6342164000962,None,0,富足,k,1,1.16518809995614,,sxc,m,22,2024-04-11_15h34.28.642,mian,2022.2.4,60.01774128159565,
,,,,,,1,0,pic/flanker5.png,pic/flanker3.png,a,l,,,,,,,,,,,,,,,,,,0,0,0,0,0,1,1,7,,,,,,,,,,,,625.3858865000075,626.5852321999846,626.5852321999846,627.1058709000936,s,0,假冒,l,1,1.5156241999939084,1.1012197999516502,sxc,m,22,2024-04-11_15h34.28.642,mian,2022.2.4,60.01774128159565,
,,,,,,0,0,pic/flanker5.png,pic/flanker1.png,s,l,,,,,,,,,,,,,,,,,,0,0,0,0,0,2,2,3,,,,,,,,,,,,629.8336431999924,631.0330123000313,631.0330123000313,631.6020304000704,s,1,冷笑,l,1,2.2312677999725565,0.6923032999038696,sxc,m,22,2024-04-11_15h34.28.642,mian,2022.2.4,60.01774128159565,
,,,,,,1,0,pic/flanker6.png,pic/flanker4.png,s,l,,,,,,,,,,,,,,,,,,0,0,0,0,0,3,3,5,,,,,,,,,,,,634.6478815000737,635.8472776000854,635.8472776000854,636.3621651000576,s,1,心慌,l,1,2.175667000003159,0.8392725000157952,sxc,m,22,2024-04-11_15h34.28.642,mian,2022.2.4,60.01774128159565,
,,,,,,0,1,pic/flanker6.png,pic/flanker2.png,a,k,,,,,,,,,,,,,,,,,,0,0,0,0,0,4,4,2,,,,,,,,,,,,639.4954315000214,640.6948408000171,640.6948408000171,641.1632204999914,a,1,热切,k,1,1.433665500022471,0.6739359999774024,sxc,m,22,2024-04-11_15h34.28.642,mian,2022.2.4,60.01774128159565,
,,,,,,0,0,pic/flanker6.png,pic/flanker2.png,a,l,,,,,,,,,,,,,,,,,,0,0,0,0,0,5,5,1,,,,,,,,,,,,643.393493300071,644.5928974000271,644.5928974000271,645.1646674000658,a,1,排斥,l,1,1.3508377000689507,0.7965690999990329,sxc,m,22,2024-04-11_15h34.28.642,mian,2022.2.4,60.01774128159565,
,,,,,,0,1,pic/flanker5.png,pic/flanker1.png,s,k,,,,,,,,,,,,,,,,,,0,0,0,0,0,6,6,0,,,,,,,,,,,,647.4247962000081,648.6241824000608,648.6241824000608,649.0864529000828,s,1,奉献,k,1,1.653382100048475,0.5201742999488488,sxc,m,22,2024-04-11_15h34.28.642,mian,2022.2.4,60.01774128159565,
,,,,,,1,1,pic/flanker5.png,pic/flanker3.png,a,k,,,,,,,,,,,,,,,,,,0,0,0,0,0,7,7,4,,,,,,,,,,,,651.3894612999866,652.5888615000295,652.5888615000295,653.0102555000922,a,1,畅销,k,1,1.6762301000999287,0.9016818000236526,sxc,m,22,2024-04-11_15h34.28.642,mian,2022.2.4,60.01774128159565,
,,,,,,,,,,,,,,,,,,,,,,,,,,,,,0,0,0,0,,,,,,,,,,,,,,,,,,,,,,,,,,,sxc,m,22,2024-04-11_15h34.28.642,mian,2022.2.4,60.01774128159565,
,,,,,,1,1,pic/flanker5.png,pic/flanker3.png,a,k,,,,,,,,,,,,,,,,,,1,0,1,0,0,0,0,4,,,,,,,,,,,,677.5596201000735,678.7590212000068,678.7590212000068,679.2800955000566,a,1,吉祥,k,1,0.8415475999936461,0.6000435999594629,sxc,m,22,2024-04-11_15h34.28.642,mian,2022.2.4,60.01774128159565,
,,,,,,0,0,pic/flanker5.png,pic/flanker1.png,s,l,,,,,,,,,,,,,,,,,,1,0,1,0,0,1,1,3,,,,,,,,,,,,680.8415831000311,682.040665699984,682.040665699984,682.5549962000223,s,1,自卑,l,1,0.836631300044246,0.4938222999917343,sxc,m,22,2024-04-11_15h34.28.642,mian,2022.2.4,60.01774128159565,
,,,,,,0,1,pic/flanker6.png,pic/flanker2.png,a,k,,,,,,,,,,,,,,,,,,1,0,1,0,0,2,2,2,,,,,,,,,,,,684.0063713000854,685.2058036000235,685.2058036000235,685.6744377000723,a,1,珍藏,k,1,0.8385109000373632,0.5709695999976248,sxc,m,22,2024-04-11_15h34.28.642,mian,2022.2.4,60.01774128159565,
,,,,,,1,1,pic/flanker6.png,pic/flanker4.png,s,k,,,,,,,,,,,,,,,,,,1,0,1,0,0,3,3,6,,,,,,,,,,,,687.2047559000785,688.4041395999957,688.4041395999957,688.9744738000445,s,1,正直,k,1,1.853355300030671,0.7446334999985993,sxc,m,22,2024-04-11_15h34.28.642,mian,2022.2.4,60.01774128159565,
,,,,,,1,0,pic/flanker5.png,pic/flanker3.png,a,l,,,,,,,,,,,,,,,,,,1,0,1,0,0,4,4,7,,,,,,,,,,,,691.685800599982,692.8852149000159,692.8852149000159,693.4067647000775,a,1,禁止,l,1,1.3177717999788001,0.7617813000688329,sxc,m,22,2024-04-11_15h34.28.642,mian,2022.2.4,60.01774128159565,
,,,,,,0,1,pic/flanker5.png,pic/flanker1.png,s,k,,,,,,,,,,,,,,,,,,1,0,1,0,0,5,5,0,,,,,,,,,,,,695.6005236000055,696.7999236000469,696.7999236000469,697.2703564000549,s,1,振作,k,1,1.1982556000584736,0.5125238000182435,sxc,m,22,2024-04-11_15h34.28.642,mian,2022.2.4,60.01774128159565,
,,,,,,1,0,pic/flanker6.png,pic/flanker4.png,s,l,,,,,,,,,,,,,,,,,,1,0,1,0,0,6,6,5,,,,,,,,,,,,699.0820959000848,700.2815204000799,700.2815204000799,700.7943747000536,s,1,别扭,l,1,1.8876151000149548,0.9890828999923542,sxc,m,22,2024-04-11_15h34.28.642,mian,2022.2.4,60.01774128159565,
,,,,,,0,0,pic/flanker6.png,pic/flanker2.png,a,l,,,,,,,,,,,,,,,,,,1,0,1,0,0,7,7,1,,,,,,,,,,,,703.796420800034,704.9957794999937,704.9957794999937,705.4578403000487,a,1,伤心,l,1,0.946912799961865,0.5161860999651253,sxc,m,22,2024-04-11_15h34.28.642,mian,2022.2.4,60.01774128159565,
,,,,,,,,,,,,,,,,,,,,,,,,,,,,,1,0,1,0,,,,,,,,,,,,,,,,,,,,,,,,,,,sxc,m,22,2024-04-11_15h34.28.642,mian,2022.2.4,60.01774128159565,
,,,,,,0,1,pic/flanker5.png,pic/flanker1.png,s,k,pic/AffRest1.png,,,,,,,,,,,,,,,,,,,,,,,,,0,0,0,0,0,0,0,64,,,,710.3078056999948,711.3759262000676,711.5092182999942,711.9974160999991,s,1,爽朗,k,1,0.8862824999960139,0.5633350999560207,sxc,m,22,2024-04-11_15h34.28.642,mian,2022.2.4,60.01774128159565,
,,,,,,1,1,pic/flanker5.png,pic/flanker3.png,a,k,pic/AffRest1.png,,,,,,,,,,,,,,,,,,,,,,,,,0,0,0,0,0,1,1,36,,,,713.5581708000973,714.7575246000197,714.7575246000197,715.3690241000149,a,1,富足,k,1,0.8199604999972507,0.6695885000517592,sxc,m,22,2024-04-11_15h34.28.642,mian,2022.2.4,60.01774128159565,
,,,,,,1,1,pic/flanker6.png,pic/flanker4.png,s,k,pic/AffRest1.png,,,,,,,,,,,,,,,,,,,,,,,,,0,0,0,0,0,2,2,30,,,,716.9897765000351,718.1891751000658,718.1891751000658,718.8126711000223,s,1,吉祥,k,1,1.0466224999399856,1.037287599989213,sxc,m,22,2024-04-11_15h34.28.642,mian,2022.2.4,60.01774128159565,
,,,,,,1,1,pic/flanker5.png,pic/flanker3.png,a,k,pic/AffRest1.png,,,,,,,,,,,,,,,,,,,,,,,,,0,0,0,0,0,3,3,52,,,,721.0043981000781,722.2038225000724,722.2038225000724,722.7180989000481,a,1,瑰丽,k,1,1.0226170000387356,0.978638399974443,sxc,m,22,2024-04-11_15h34.28.642,mian,2022.2.4,60.01774128159565,
,,,,,,0,1,pic/flanker6.png,pic/flanker2.png,a,k,pic/AffRest1.png,,,,,,,,,,,,,,,,,,,,,,,,,0,0,0,0,0,4,4,58,,,,724.8358365000458,726.0352050000802,726.0352050000802,726.6056215000572,a,1,珍藏,k,1,1.4342679999535903,0.6177054999861866,sxc,m,22,2024-04-11_15h34.28.642,mian,2022.2.4,60.01774128159565,
,,,,,,0,1,pic/flanker6.png,pic/flanker2.png,a,k,pic/AffRest1.png,,,,,,,,,,,,,,,,,,,,,,,,,0,0,0,0,0,5,5,2,,,,728.783836800023,729.983277500025,729.983277500025,730.4497032000218,a,1,奉献,k,1,0.8614538999972865,0.5614313000114635,sxc,m,22,2024-04-11_15h34.28.642,mian,2022.2.4,60.01774128159565,
,,,,,,1,0,pic/flanker6.png,pic/flanker4.png,s,l,pic/AffRest1.png,,,,,,,,,,,,,,,,,,,,,,,,,0,0,0,0,0,6,6,29,,,,731.9822474000975,733.1816254000878,733.1816254000878,733.5918938000686,s,1,杂乱,l,1,0.8634944999357685,0.6133962000021711,sxc,m,22,2024-04-11_15h34.28.642,mian,2022.2.4,60.01774128159565,
,,,,,,1,0,pic/flanker6.png,pic/flanker4.png,s,l,pic/AffRest1.png,,,,,,,,,,,,,,,,,,,,,,,,,0,0,0,0,0,7,7,37,,,,735.1972506000893,736.3966870000586,736.3966870000586,736.8347143999999,s,1,黑暗,l,1,0.8707423000596464,0.8298974999925122,sxc,m,22,2024-04-11_15h34.28.642,mian,2022.2.4,60.01774128159565,
,,,,,,1,0,pic/flanker6.png,pic/flanker4.png,s,l,pic/AffRest1.png,,,,,,,,,,,,,,,,,,,,,,,,,0,0,0,0,0,8,8,77,,,,738.6288914000615,739.8282823000336,739.8282823000336,740.2903026000131,s,1,心慌,l,1,0.9838877000147477,0.7561136001022533,sxc,m,22,2024-04-11_15h34.28.642,mian,2022.2.4,60.01774128159565,
,,,,,,1,1,pic/flanker6.png,pic/flanker4.png,s,k,pic/AffRest1.png,,,,,,,,,,,,,,,,,,,,,,,,,0,0,0,0,0,9,9,46,,,,742.160401500063,743.3597950000549,743.3597950000549,743.8746969000204,s,1,旺盛,k,1,1.0432190999854356,0.7347623000387102,sxc,m,22,2024-04-11_15h34.28.642,mian,2022.2.4,60.01774128159565,
,,,,,,0,1,pic/flanker5.png,pic/flanker1.png,s,k,pic/AffRest1.png,,,,,,,,,,,,,,,,,,,,,,,,,0,0,0,0,0,10,10,40,,,,745.7752603000263,746.9746571000433,746.9746571000433,747.5388534000376,s,1,公平,k,1,0.8675996999954805,0.5016480999765918,sxc,m,22,2024-04-11_15h34.28.642,mian,2022.2.4,60.01774128159565,
,,,,,,0,1,pic/flanker5.png,pic/flanker1.png,s,k,pic/AffRest1.png,,,,,,,,,,,,,,,,,,,,,,,,,0,0,0,0,0,11,11,0,,,,749.040272400016,750.2397295000264,750.2397295000264,750.7663674000651,s,1,清秀,k,1,1.2625948000932112,0.6313646000344306,sxc,m,22,2024-04-11_15h34.28.642,mian,2022.2.4,60.01774128159565,
,,,,,,0,0,pic/flanker6.png,pic/flanker2.png,a,l,pic/AffRest1.png,,,,,,,,,,,,,,,,,,,,,,,,,0,0,0,0,0,12,12,57,,,,752.7717360000825,753.97112500004,753.97112500004,754.5857614000561,a,1,烦恼,l,1,2.33678290003445,0.6155885000480339,sxc,m,22,2024-04-11_15h34.28.642,mian,2022.2.4,60.01774128159565,
,,,,,,1,1,pic/flanker5.png,pic/flanker3.png,a,k,pic/AffRest1.png,,,,,,,,,,,,,,,,,,,,,,,,,0,0,0,0,0,13,13,4,,,,757.669301200076,758.8687071000459,758.8687071000459,759.287251300062,a,1,舒畅,k,1,0.8387647001072764,0.8457101000240073,sxc,m,22,2024-04-11_15h34.28.642,mian,2022.2.4,60.01774128159565,
,,,,,,1,1,pic/flanker5.png,pic/flanker3.png,a,k,pic/AffRest1.png,,,,,,,,,,,,,,,,,,,,,,,,,0,0,0,0,0,14,14,28,,,,761.0842037000693,762.2836554000387,762.2836554000387,762.9010185000952,a,1,俊秀,k,1,1.0392802999122068,0.8468504999764264,sxc,m,22,2024-04-11_15h34.28.642,mian,2022.2.4,60.01774128159565,
,,,,,,0,0,pic/flanker5.png,pic/flanker1.png,s,l,pic/AffRest1.png,,,,,,,,,,,,,,,,,,,,,,,,,0,0,0,0,0,15,15,75,,,,764.8989594000159,766.098422100069,766.098422100069,766.6152455999982,s,1,丢失,l,1,1.4675344000570476,1.4766991999931633,sxc,m,22,2024-04-11_15h34.28.642,mian,2022.2.4,60.01774128159565,
,,,,,,1,0,pic/flanker5.png,pic/flanker3.png,a,l,pic/AffRest1.png,,,,,,,,,,,,,,,,,,,,,,,,,0,0,0,0,0,16,16,15,,,,769.6799376000417,770.8793105999939,770.8793105999939,771.3941165000433,a,1,悲观,l,1,2.449979299912229,0.6718434999929741,sxc,m,22,2024-04-11_15h34.28.642,mian,2022.2.4,60.01774128159565,
,,,,,,0,0,pic/flanker6.png,pic/flanker2.png,a,l,pic/AffRest1.png,,,,,,,,,,,,,,,,,,,,,,,,,0,0,0,0,0,17,17,25,,,,774.644084700034,775.8434488000348,775.8434488000348,776.3119160000933,a,1,损害,l,1,1.0617318999720737,0.6215992999495938,sxc,m,22,2024-04-11_15h34.28.642,mian,2022.2.4,60.01774128159565,
,,,,,,1,1,pic/flanker5.png,pic/flanker3.png,a,k,pic/AffRest1.png,,,,,,,,,,,,,,,,,,,,,,,,,0,0,0,0,0,18,18,76,,,,778.1089700000593,779.3083780000452,779.3083780000452,779.8309190000873,a,1,廉洁,k,1,0.7715479999314994,0.8019205000018701,sxc,m,22,2024-04-11_15h34.28.642,mian,2022.2.4,60.01774128159565,
,,,,,,1,1,pic/flanker6.png,pic/flanker4.png,s,k,pic/AffRest1.png,,,,,,,,,,,,,,,,,,,,,,,,,0,0,0,0,0,19,19,54,,,,781.5239264999982,782.7233742000535,782.7233742000535,783.2933952000458,s,1,鲜艳,k,1,2.1757011000299826,0.6817858999129385,sxc,m,22,2024-04-11_15h34.28.642,mian,2022.2.4,60.01774128159565,
,,,,,,1,0,pic/flanker6.png,pic/flanker4.png,s,l,pic/AffRest1.png,,,,,,,,,,,,,,,,,,,,,,,,,0,0,0,0,0,20,20,69,,,,786.271549200057,787.471001900034,787.471001900034,787.9993110999931,s,1,自卑,l,1,0.9321829999098554,0.7436933999415487,sxc,m,22,2024-04-11_15h34.28.642,mian,2022.2.4,60.01774128159565,
,,,,,,1,1,pic/flanker5.png,pic/flanker3.png,a,k,pic/AffRest1.png,,,,,,,,,,,,,,,,,,,,,,,,,0,0,0,0,0,21,21,20,,,,789.7697759000584,790.9692524999846,790.9692524999846,791.3895451000426,a,1,生动,k,1,1.9070964999264106,0.8492855000076815,sxc,m,22,2024-04-11_15h34.28.642,mian,2022.2.4,60.01774128159565,
,,,,,,1,0,pic/flanker5.png,pic/flanker3.png,a,l,pic/AffRest1.png,,,,,,,,,,,,,,,,,,,,,,,,,0,0,0,0,0,22,22,39,,,,794.2675137000624,795.4669419000857,795.4669419000857,795.8794573000632,a,1,罚款,l,1,0.804474400007166,0.7352178000146523,sxc,m,22,2024-04-11_15h34.28.642,mian,2022.2.4,60.01774128159565,
,,,,,,1,1,pic/flanker6.png,pic/flanker4.png,s,k,pic/AffRest1.png,,,,,,,,,,,,,,,,,,,,,,,,,0,0,0,0,0,23,23,70,,,,797.5492281999905,798.7486338000745,798.7486338000745,799.3671812000684,s,1,敬佩,k,1,2.384183199959807,0.7974854999920353,sxc,m,22,2024-04-11_15h34.28.642,mian,2022.2.4,60.01774128159565,
,,,,,,0,0,pic/flanker5.png,pic/flanker1.png,s,l,pic/AffRest1.png,,,,,,,,,,,,,,,,,,,,,,,,,0,0,0,0,0,24,24,43,,,,802.6632935000816,803.8627181000775,803.8627181000775,804.3312957000453,s,1,忧虑,l,1,1.5901685999706388,0.5385529999621212,sxc,m,22,2024-04-11_15h34.28.642,mian,2022.2.4,60.01774128159565,
,,,,,,1,0,pic/flanker6.png,pic/flanker4.png,s,l,pic/AffRest1.png,,,,,,,,,,,,,,,,,,,,,,,,,0,0,0,0,0,25,25,53,,,,806.5779740000144,807.7774131000042,807.7774131000042,808.3416622000514,s,1,排斥,l,1,1.2314274000236765,0.7474455999908969,sxc,m,22,2024-04-11_15h34.28.642,mian,2022.2.4,60.01774128159565,
,,,,,,1,0,pic/flanker6.png,pic/flanker4.png,s,l,pic/AffRest1.png,,,,,,,,,,,,,,,,,,,,,,,,,0,0,0,0,0,26,26,13,,,,810.4260614000959,811.6254795000423,811.6254795000423,812.2400822000345,s,1,郁闷,l,1,1.1362372000003234,0.7218127000378445,sxc,m,22,2024-04-11_15h34.28.642,mian,2022.2.4,60.01774128159565,
,,,,,,1,0,pic/flanker5.png,pic/flanker3.png,a,l,pic/AffRest1.png,,,,,,,,,,,,,,,,,,,,,,,,,0,0,0,0,0,27,27,63,,,,814.2408057000721,815.4402457000688,815.4402457000688,816.0131250000559,a,1,孤单,l,1,0.8790885999333113,0.7885149999056011,sxc,m,22,2024-04-11_15h34.28.642,mian,2022.2.4,60.01774128159565,
,,,,,,1,1,pic/flanker6.png,pic/flanker4.png,s,k,pic/AffRest1.png,,,,,,,,,,,,,,,,,,,,,,,,,0,0,0,0,0,28,28,22,,,,817.7890099000651,818.988480100059,818.988480100059,819.6008081000764,s,1,享受,k,1,0.8309744999278337,0.6461661000503227,sxc,m,22,2024-04-11_15h34.28.642,mian,2022.2.4,60.01774128159565,
,,,,,,0,0,pic/flanker5.png,pic/flanker1.png,s,l,pic/AffRest1.png,,,,,,,,,,,,,,,,,,,,,,,,,0,0,0,0,0,29,29,19,,,,821.1873325000051,822.3867324000457,822.3867324000457,822.8058407000499,s,1,争吵,l,1,0.9840497999684885,0.6476350999437273,sxc,m,22,2024-04-11_15h34.28.642,mian,2022.2.4,60.01774128159565,
,,,,,,1,1,pic/flanker6.png,pic/flanker4.png,s,k,pic/AffRest1.png,,,,,,,,,,,,,,,,,,,,,,,,,0,0,0,0,0,30,30,6,,,,824.5522895000177,825.7517029000446,825.7517029000446,826.1697216000175,s,1,卓越,None,0,,0.7630873000016436,sxc,m,22,2024-04-11_15h34.28.642,mian,2022.2.4,60.01774128159565,
,,,,,,0,0,pic/flanker6.png,pic/flanker2.png,a,l,pic/AffRest1.png,,,,,,,,,,,,,,,,,,,,,,,,,0,0,0,0,0,31,31,73,,,,829.5331212000456,830.7158434999874,830.7325291000307,831.2802885000128,a,1,禁止,l,1,0.8111283000325784,0.5205763999838382,sxc,m,22,2024-04-11_15h34.28.642,mian,2022.2.4,60.01774128159565,
,,,,,,0,0,pic/flanker6.png,pic/flanker2.png,a,l,pic/AffRest1.png,,,,,,,,,,,,,,,,,,,,,,,,,0,0,0,0,0,32,32,33,,,,832.7315137999831,833.9309210000793,833.9309210000793,834.4527866999852,a,1,穷苦,l,1,0.8980864000041038,0.48398800007998943,sxc,m,22,2024-04-11_15h34.28.642,mian,2022.2.4,60.01774128159565,
,,,,,,0,1,pic/flanker5.png,pic/flanker1.png,s,k,pic/AffRest1.png,,,,,,,,,,,,,,,,,,,,,,,,,0,0,0,0,0,33,33,56,,,,835.9465469000861,837.1459422000917,837.1459422000917,837.7607615999877,s,1,留恋,k,1,1.3193237000377849,0.49702130001969635,sxc,m,22,2024-04-11_15h34.28.642,mian,2022.2.4,60.01774128159565,
,,,,,,0,0,pic/flanker5.png,pic/flanker1.png,s,l,pic/AffRest1.png,,,,,,,,,,,,,,,,,,,,,,,,,0,0,0,0,0,34,34,59,,,,839.6946848999942,840.8941230000928,840.8941230000928,841.4062299000798,s,1,撒谎,l,1,0.7355355999898165,0.4812191999517381,sxc,m,22,2024-04-11_15h34.28.642,mian,2022.2.4,60.01774128159565,
,,,,,,0,0,pic/flanker6.png,pic/flanker2.png,a,l,pic/AffRest1.png,,,,,,,,,,,,,,,,,,,,,,,,,0,0,0,0,0,35,35,49,,,,842.7431412000442,843.9425980000524,843.9425980000524,844.3688813000917,a,1,鲁莽,l,1,1.3378662000177428,0.49187919998075813,sxc,m,22,2024-04-11_15h34.28.642,mian,2022.2.4,60.01774128159565,
,,,,,,1,0,pic/flanker5.png,pic/flanker3.png,a,l,pic/AffRest1.png,,,,,,,,,,,,,,,,,,,,,,,,,0,0,0,0,0,36,36,55,,,,846.3080371000106,847.5074147999985,847.5074147999985,848.1305907000788,a,1,堵塞,l,1,0.9246276998892426,0.6236343999626115,sxc,m,22,2024-04-11_15h34.28.642,mian,2022.2.4,60.01774128159565,
,,,,,,1,1,pic/flanker6.png,pic/flanker4.png,s,k,pic/AffRest1.png,,,,,,,,,,,,,,,,,,,,,,,,,0,0,0,0,0,37,37,62,,,,849.8062724000774,851.0056318000425,851.0056318000425,851.4732109000906,s,1,丰满,k,1,1.3895129999145865,0.594666299992241,sxc,m,22,2024-04-11_15h34.28.642,mian,2022.2.4,60.01774128159565,
,,,,,,0,0,pic/flanker5.png,pic/flanker1.png,s,l,pic/AffRest1.png,,,,,,,,,,,,,,,,,,,,,,,,,0,0,0,0,0,38,38,3,,,,853.5709926000563,854.7704132000217,854.7704132000217,855.24127150001,s,1,沮丧,l,1,0.9792521999916062,0.5185102999676019,sxc,m,22,2024-04-11_15h34.28.642,mian,2022.2.4,60.01774128159565,
,,,,,,0,0,pic/flanker6.png,pic/flanker2.png,a,l,pic/AffRest1.png,,,,,,,,,,,,,,,,,,,,,,,,,0,0,0,0,0,39,39,1,,,,856.8526754000923,858.0521368000191,858.0521368000191,858.6140377999982,a,1,焦躁,l,1,1.079130299971439,0.4803883000276983,sxc,m,22,2024-04-11_15h34.28.642,mian,2022.2.4,60.01774128159565,
,,,,,,1,0,pic/flanker6.png,pic/flanker4.png,s,l,pic/AffRest1.png,,,,,,,,,,,,,,,,,,,,,,,,,0,0,0,0,0,40,40,21,,,,860.2843132000417,861.4837263000663,861.4837263000663,861.9001489999937,s,1,闷热,l,1,1.2016200999496505,0.5910971999401227,sxc,m,22,2024-04-11_15h34.28.642,mian,2022.2.4,60.01774128159565,
,,,,,,0,0,pic/flanker5.png,pic/flanker1.png,s,l,pic/AffRest1.png,,,,,,,,,,,,,,,,,,,,,,,,,0,0,0,0,0,41,41,35,,,,863.8165208999999,865.0152791000437,865.0319695000071,865.4776009999914,s,1,厌恶,l,1,0.7488963999785483,0.5768325000535697,sxc,m,22,2024-04-11_15h34.28.642,mian,2022.2.4,60.01774128159565,
,,,,,,0,1,pic/flanker6.png,pic/flanker2.png,a,k,pic/AffRest1.png,,,,,,,,,,,,,,,,,,,,,,,,,0,0,0,0,0,42,42,50,,,,866.9309785000514,868.1304160000291,868.1304160000291,868.7558379999828,a,1,如愿,k,1,0.8929382999194786,0.720776499947533,sxc,m,22,2024-04-11_15h34.28.642,mian,2022.2.4,60.01774128159565,
,,,,,,0,0,pic/flanker5.png,pic/flanker1.png,s,l,pic/AffRest1.png,,,,,,,,,,,,,,,,,,,,,,,,,0,0,0,0,0,43,43,51,,,,870.4791755999904,871.6785374000901,871.6785374000901,872.2946480000392,s,1,浪费,l,1,0.9882751000113785,1.0442313000094146,sxc,m,22,2024-04-11_15h34.28.642,mian,2022.2.4,60.01774128159565,
,,,,,,0,0,pic/flanker5.png,pic/flanker1.png,s,l,pic/AffRest1.png,,,,,,,,,,,,,,,,,,,,,,,,,0,0,0,0,0,44,44,11,,,,874.4438612000085,875.6432428000262,875.6432428000262,876.2149839000776,s,1,落后,l,1,1.7263289000838995,0.5209437001030892,sxc,m,22,2024-04-11_15h34.28.642,mian,2022.2.4,60.01774128159565,
,,,,,,0,1,pic/flanker6.png,pic/flanker2.png,a,k,pic/AffRest1.png,,,,,,,,,,,,,,,,,,,,,,,,,0,0,0,0,0,45,45,42,,,,878.5751107000979,879.7744928000029,879.7744928000029,880.396717100055,a,1,豪放,k,1,1.154089599964209,0.4839887999696657,sxc,m,22,2024-04-11_15h34.28.642,mian,2022.2.4,60.01774128159565,
,,,,,,0,1,pic/flanker6.png,pic/flanker2.png,a,k,pic/AffRest1.png,,,,,,,,,,,,,,,,,,,,,,,,,0,0,0,0,0,46,46,74,,,,882.1566552000586,883.3560406999895,883.3560406999895,883.9304152000695,a,1,诚恳,k,1,0.6873583000851795,0.4967995999613777,sxc,m,22,2024-04-11_15h34.28.642,mian,2022.2.4,60.01774128159565,
,,,,,,1,0,pic/flanker5.png,pic/flanker3.png,a,l,pic/AffRest1.png,,,,,,,,,,,,,,,,,,,,,,,,,0,0,0,0,0,47,47,23,,,,885.2217819000361,886.4211207000772,886.4211207000772,886.9858648000518,a,1,别扭,l,1,0.9044280999805778,0.815415499964729,sxc,m,22,2024-04-11_15h34.28.642,mian,2022.2.4,60.01774128159565,
,,,,,,1,0,pic/flanker5.png,pic/flanker3.png,a,l,pic/AffRest1.png,,,,,,,,,,,,,,,,,,,,,,,,,0,0,0,0,0,48,48,7,,,,888.8365827000234,890.0359990000725,890.0359990000725,890.5983594000572,a,1,处罚,l,1,1.7445559999905527,0.640756200067699,sxc,m,22,2024-04-11_15h34.28.642,mian,2022.2.4,60.01774128159565,
,,,,,,1,0,pic/flanker5.png,pic/flanker3.png,a,l,pic/AffRest1.png,,,,,,,,,,,,,,,,,,,,,,,,,0,0,0,0,0,49,49,79,,,,893.1012259999989,894.3005265000975,894.3005265000975,894.8661797000095,a,1,嘲笑,l,1,0.8573319999268278,0.6155037999851629,sxc,m,22,2024-04-11_15h34.28.642,mian,2022.2.4,60.01774128159565,
,,,,,,0,1,pic/flanker6.png,pic/flanker2.png,a,k,pic/AffRest1.png,,,,,,,,,,,,,,,,,,,,,,,,,0,0,0,0,0,50,50,18,,,,896.4660917000147,897.6655461000046,897.6655461000046,898.2853504000232,a,1,正直,k,1,0.6923447001026943,0.5773252999642864,sxc,m,22,2024-04-11_15h34.28.642,mian,2022.2.4,60.01774128159565,
,,,,,,0,1,pic/flanker5.png,pic/flanker1.png,s,k,pic/AffRest1.png,,,,,,,,,,,,,,,,,,,,,,,,,0,0,0,0,0,51,51,72,,,,899.664522600011,900.8639175000135,900.8639175000135,901.3279070000863,s,1,永恒,k,1,1.1614567000651732,0.6402867001015693,sxc,m,22,2024-04-11_15h34.28.642,mian,2022.2.4,60.01774128159565,
,,,,,,0,0,pic/flanker6.png,pic/flanker2.png,a,l,pic/AffRest1.png,,,,,,,,,,,,,,,,,,,,,,,,,0,0,0,0,0,52,52,17,,,,903.2627173000947,904.4620923000621,904.4620923000621,904.8750922000036,a,1,失意,l,1,0.9514919000212103,0.572807400021702,sxc,m,22,2024-04-11_15h34.28.642,mian,2022.2.4,60.01774128159565,
,,,,,,0,1,pic/flanker6.png,pic/flanker2.png,a,k,pic/AffRest1.png,,,,,,,,,,,,,,,,,,,,,,,,,0,0,0,0,0,53,53,66,,,,906.5276768000331,907.7270613000728,907.7270613000728,908.24115050002,a,1,振作,k,1,1.1322653000243008,0.5273667000001296,sxc,m,22,2024-04-11_15h34.28.642,mian,2022.2.4,60.01774128159565,
,,,,,,0,1,pic/flanker5.png,pic/flanker1.png,s,k,pic/AffRest1.png,,,,,,,,,,,,,,,,,,,,,,,,,0,0,0,0,0,54,54,8,,,,910.0092963000061,911.208653000067,911.208653000067,911.780067200074,s,1,赞成,k,1,0.8410018000286072,0.5000750999897718,sxc,m,22,2024-04-11_15h34.28.642,mian,2022.2.4,60.01774128159565,
,,,,,,0,1,pic/flanker5.png,pic/flanker1.png,s,k,pic/AffRest1.png,,,,,,,,,,,,,,,,,,,,,,,,,0,0,0,0,0,55,55,48,,,,913.2409708000487,914.4404226000188,914.4404226000188,914.9103902000934,s,1,秀丽,k,1,0.7787824000697583,0.5679855000926182,sxc,m,22,2024-04-11_15h34.28.642,mian,2022.2.4,60.01774128159565,
,,,,,,0,0,pic/flanker6.png,pic/flanker2.png,a,l,pic/AffRest1.png,,,,,,,,,,,,,,,,,,,,,,,,,0,0,0,0,0,56,56,65,,,,916.3727398000192,917.5721164999995,917.5721164999995,918.0882756999927,a,1,懒惰,l,1,0.7453624999616295,0.4737930999835953,sxc,m,22,2024-04-11_15h34.28.642,mian,2022.2.4,60.01774128159565,
,,,,,,0,1,pic/flanker5.png,pic/flanker1.png,s,k,pic/AffRest1.png,,,,,,,,,,,,,,,,,,,,,,,,,0,0,0,0,0,57,57,24,,,,919.4378868000349,920.6372794000199,920.6372794000199,921.1577753000893,s,1,雄厚,k,1,1.1432811999693513,0.49705380003433675,sxc,m,22,2024-04-11_15h34.28.642,mian,2022.2.4,60.01774128159565,
,,,,,,0,0,pic/flanker5.png,pic/flanker1.png,s,l,pic/AffRest1.png,,,,,,,,,,,,,,,,,,,,,,,,,0,0,0,0,0,58,58,67,,,,922.902777899988,924.1022051000036,924.1022051000036,924.7206539000617,s,1,消沉,l,1,0.8430515999207273,0.48436270002275705,sxc,m,22,2024-04-11_15h34.28.642,mian,2022.2.4,60.01774128159565,
,,,,,,1,0,pic/flanker6.png,pic/flanker4.png,s,l,pic/AffRest1.png,,,,,,,,,,,,,,,,,,,,,,,,,0,0,0,0,0,59,59,45,,,,926.167836699984,927.3672458000947,927.3672458000947,927.9406563000521,s,1,轻率,l,1,1.2886225000256673,0.7735585999907926,sxc,m,22,2024-04-11_15h34.28.642,mian,2022.2.4,60.01774128159565,
,,,,,,0,0,pic/flanker5.png,pic/flanker1.png,s,l,pic/AffRest1.png,,,,,,,,,,,,,,,,,,,,,,,,,0,0,0,0,0,60,60,27,,,,930.1158761000261,931.3152422000421,931.3152422000421,931.842208600021,s,1,伤心,l,1,0.7508717000018805,0.56339480006136,sxc,m,22,2024-04-11_15h34.28.642,mian,2022.2.4,60.01774128159565,
,,,,,,1,1,pic/flanker5.png,pic/flanker3.png,a,k,pic/AffRest1.png,,,,,,,,,,,,,,,,,,,,,,,,,0,0,0,0,0,61,61,68,,,,933.2642179999966,934.4636177000357,934.4636177000357,935.0285790000344,a,1,顽强,k,1,1.7069253999507055,0.7086698000784963,sxc,m,22,2024-04-11_15h34.28.642,mian,2022.2.4,60.01774128159565,
,,,,,,1,0,pic/flanker6.png,pic/flanker4.png,s,l,pic/AffRest1.png,,,,,,,,,,,,,,,,,,,,,,,,,0,0,0,0,0,62,62,61,,,,937.5620870999992,938.7615034000482,938.7615034000482,939.2317292999942,s,1,逃避,l,1,0.9590679000830278,0.7905936000170186,sxc,m,22,2024-04-11_15h34.28.642,mian,2022.2.4,60.01774128159565,
,,,,,,0,0,pic/flanker6.png,pic/flanker2.png,a,l,pic/AffRest1.png,,,,,,,,,,,,,,,,,,,,,,,,,0,0,0,0,0,63,63,9,,,,941.1102863000706,942.3097267000703,942.3097267000703,942.7734744000481,a,1,慌忙,l,1,1.6707488000392914,0.5470748000079766,sxc,m,22,2024-04-11_15h34.28.642,mian,2022.2.4,60.01774128159565,
,,,,,,0,1,pic/flanker6.png,pic/flanker2.png,a,k,pic/AffRest1.png,,,,,,,,,,,,,,,,,,,,,,,,,0,0,0,0,0,64,64,34,,,,945.1082535000751,946.30769590009,946.30769590009,946.7318789000856,a,1,精致,k,1,1.2737207999452949,0.5665325000882149,sxc,m,22,2024-04-11_15h34.28.642,mian,2022.2.4,60.01774128159565,
,,,,,,1,0,pic/flanker6.png,pic/flanker4.png,s,l,pic/AffRest1.png,,,,,,,,,,,,,,,,,,,,,,,,,0,0,0,0,0,65,65,5,,,,948.689784700051,949.889177300036,949.889177300036,950.4074200000614,s,1,怀疑,l,1,0.8066114999819547,0.828925900044851,sxc,m,22,2024-04-11_15h34.28.642,mian,2022.2.4,60.01774128159565,
,,,,,,1,0,pic/flanker5.png,pic/flanker3.png,a,l,pic/AffRest1.png,,,,,,,,,,,,,,,,,,,,,,,,,0,0,0,0,0,66,66,31,,,,952.1547139000613,953.3541215000441,953.3541215000441,953.8709091000492,a,1,冷笑,l,1,1.0924886000575498,0.6363312000175938,sxc,m,22,2024-04-11_15h34.28.642,mian,2022.2.4,60.01774128159565,
,,,,,,0,1,pic/flanker6.png,pic/flanker2.png,a,k,pic/AffRest1.png,,,,,,,,,,,,,,,,,,,,,,,,,0,0,0,0,0,67,67,26,,,,955.7196234000148,956.9190223000478,956.9190223000478,957.3809685000451,a,1,畅销,k,1,0.7765718000009656,0.4734433999983594,sxc,m,22,2024-04-11_15h34.28.642,mian,2022.2.4,60.01774128159565,
,,,,,,0,1,pic/flanker5.png,pic/flanker1.png,s,k,pic/AffRest1.png,,,,,,,,,,,,,,,,,,,,,,,,,0,0,0,0,0,68,68,16,,,,958.7513983000536,959.950800199993,959.950800199993,960.3904845000943,s,1,热切,k,1,0.7133263999130577,0.5237760000163689,sxc,m,22,2024-04-11_15h34.28.642,mian,2022.2.4,60.01774128159565,
,,,,,,1,1,pic/flanker5.png,pic/flanker3.png,a,k,pic/AffRest1.png,,,,,,,,,,,,,,,,,,,,,,,,,0,0,0,0,0,69,69,44,,,,961.7332563000964,962.9327552000759,962.9327552000759,963.3995269000297,a,1,充裕,k,1,0.7598165000090376,0.7634565000189468,sxc,m,22,2024-04-11_15h34.28.642,mian,2022.2.4,60.01774128159565,
,,,,,,1,1,pic/flanker6.png,pic/flanker4.png,s,k,pic/AffRest1.png,,,,,,,,,,,,,,,,,,,,,,,,,0,0,0,0,0,70,70,14,,,,965.0316394000547,966.2309958999977,966.2309958999977,966.6414701000322,s,1,富丽,k,1,1.0490135001018643,0.6991415000520647,sxc,m,22,2024-04-11_15h34.28.642,mian,2022.2.4,60.01774128159565,
,,,,,,0,1,pic/flanker6.png,pic/flanker2.png,a,k,pic/AffRest1.png,,,,,,,,,,,,,,,,,,,,,,,,,0,0,0,0,0,71,71,10,,,,968.5131804000121,969.7125530000776,969.7125530000776,970.279069500044,a,1,有利,k,1,0.883214500034228,0.4677396999904886,sxc,m,22,2024-04-11_15h34.28.642,mian,2022.2.4,60.01774128159565,
,,,,,,1,1,pic/flanker5.png,pic/flanker3.png,a,k,pic/AffRest1.png,,,,,,,,,,,,,,,,,,,,,,,,,0,0,0,0,0,72,72,12,,,,971.7615410999861,972.9609476000769,972.9609476000769,973.4316231000703,a,1,羡慕,k,1,0.7576351000461727,0.9271123000653461,sxc,m,22,2024-04-11_15h34.28.642,mian,2022.2.4,60.01774128159565,
,,,,,,1,0,pic/flanker5.png,pic/flanker3.png,a,l,pic/AffRest1.png,,,,,,,,,,,,,,,,,,,,,,,,,0,0,0,0,0,73,73,47,,,,975.226446100045,976.4258798999945,976.4258798999945,976.9057768000057,a,1,缺乏,l,1,1.1275992000009865,0.6620697000762448,sxc,m,22,2024-04-11_15h34.28.642,mian,2022.2.4,60.01774128159565,
,,,,,,1,1,pic/flanker6.png,pic/flanker4.png,s,k,pic/AffRest1.png,,,,,,,,,,,,,,,,,,,,,,,,,0,0,0,0,0,74,74,38,,,,978.8079962000484,980.0073712000158,980.0073712000158,980.5768862999976,s,1,前进,k,1,1.150711299967952,0.6047750000143424,sxc,m,22,2024-04-11_15h34.28.642,mian,2022.2.4,60.01774128159565,
,,,,,,1,1,pic/flanker6.png,pic/flanker4.png,s,k,pic/AffRest1.png,,,,,,,,,,,,,,,,,,,,,,,,,0,0,0,0,0,75,75,78,,,,982.4561527000042,983.6555686000502,983.6555686000502,984.2218861000147,s,1,圣洁,k,1,0.7664211000083014,0.6293190000578761,sxc,m,22,2024-04-11_15h34.28.642,mian,2022.2.4,60.01774128159565,
,,,,,,1,0,pic/flanker5.png,pic/flanker3.png,a,l,pic/AffRest1.png,,,,,,,,,,,,,,,,,,,,,,,,,0,0,0,0,0,76,76,71,,,,985.7211363000097,986.9205885999836,986.9205885999836,987.4378179000923,a,1,假冒,l,1,1.4955526000121608,0.6059294000733644,sxc,m,22,2024-04-11_15h34.28.642,mian,2022.2.4,60.01774128159565,
,,,,,,1,1,pic/flanker5.png,pic/flanker3.png,a,k,pic/AffRest1.png,,,,,,,,,,,,,,,,,,,,,,,,,0,0,0,0,0,77,77,60,,,,989.6525282000657,990.851942300098,990.851942300098,991.2730083999922,a,1,优雅,k,1,1.2215906999772415,0.6781999000813812,sxc,m,22,2024-04-11_15h34.28.642,mian,2022.2.4,60.01774128159565,
,,,,,,0,0,pic/flanker6.png,pic/flanker2.png,a,l,pic/AffRest1.png,,,,,,,,,,,,,,,,,,,,,,,,,0,0,0,0,0,78,78,41,,,,993.284025000059,994.4834765000269,994.4834765000269,994.9571768000023,a,1,胡涂,l,1,1.8595572999911383,0.49257509992457926,sxc,m,22,2024-04-11_15h34.28.642,mian,2022.2.4,60.01774128159565,
,,,,,,0,1,pic/flanker5.png,pic/flanker1.png,s,k,pic/AffRest1.png,,,,,,,,,,,,,,,,,,,,,,,,,0,0,0,0,0,79,79,32,,,,997.4152900000336,998.6146623000968,998.6146623000968,999.0377792000072,s,1,典雅,k,1,0.74174009996932,0.5556579999392852,sxc,m,22,2024-04-11_15h34.28.642,mian,2022.2.4,60.01774128159565,
,,,,,,,,,,,,pic/AffRest1.png,,,,,,,,,,,,,,,,,,,,,,,,,0,0,0,0,,,,,,,,,,,,,,,,,,,sxc,m,22,2024-04-11_15h34.28.642,mian,2022.2.4,60.01774128159565,
,,,,,,1,1,pic/flanker5.png,pic/flanker3.png,a,k,pic/AffRest2.png,,,,,,,,,,,,,,,,,,,,,,,,,0,1,1,1,0,0,0,12,,,,1011.299233000027,1012.4910101999994,1012.5076898999978,1013.0138613000745,a,1,诚恳,k,1,0.6880229000234976,0.7228621999965981,sxc,m,22,2024-04-11_15h34.28.642,mian,2022.2.4,60.01774128159565,
,,,,,,0,0,pic/flanker5.png,pic/flanker1.png,s,l,pic/AffRest2.png,,,,,,,,,,,,,,,,,,,,,,,,,0,1,1,1,0,1,1,43,,,,1014.5400077000959,1015.7394295000704,1015.7394295000704,1016.206861600047,s,1,堵塞,l,1,0.7227949000662193,0.49253659998066723,sxc,m,22,2024-04-11_15h34.28.642,mian,2022.2.4,60.01774128159565,
,,,,,,0,1,pic/flanker6.png,pic/flanker2.png,a,k,pic/AffRest2.png,,,,,,,,,,,,,,,,,,,,,,,,,0,1,1,1,0,2,2,66,,,,1017.5384872000432,1018.7378846000647,1018.7378846000647,1019.3511969000101,a,1,羡慕,k,1,0.6537828000728041,0.5049047999782488,sxc,m,22,2024-04-11_15h34.28.642,mian,2022.2.4,60.01774128159565,
,,,,,,0,1,pic/flanker6.png,pic/flanker2.png,a,k,pic/AffRest2.png,,,,,,,,,,,,,,,,,,,,,,,,,0,1,1,1,0,3,3,42,,,,1020.6369649000699,1021.8363479999825,1021.8363479999825,1022.2510627000593,a,1,珍藏,k,1,0.7965439000399783,0.47788759996183217,sxc,m,22,2024-04-11_15h34.28.642,mian,2022.2.4,60.01774128159565,
,,,,,,1,1,pic/flanker5.png,pic/flanker3.png,a,k,pic/AffRest2.png,,,,,,,,,,,,,,,,,,,,,,,,,0,1,1,1,0,4,4,44,,,,1023.6354299000232,1024.8348180000903,1024.8348180000903,1025.3012065000366,a,1,秀丽,k,1,0.9447559000691399,0.7574229999445379,sxc,m,22,2024-04-11_15h34.28.642,mian,2022.2.4,60.01774128159565,
,,,,,,0,0,pic/flanker5.png,pic/flanker1.png,s,l,pic/AffRest2.png,,,,,,,,,,,,,,,,,,,,,,,,,0,1,1,1,0,5,5,59,,,,1027.117057400057,1028.3164187000366,1028.3164187000366,1028.8931088000536,s,1,烦恼,l,1,1.190670800046064,0.47172359994146973,sxc,m,22,2024-04-11_15h34.28.642,mian,2022.2.4,60.01774128159565,
,,,,,,1,1,pic/flanker6.png,pic/flanker4.png,s,k,pic/AffRest2.png,,,,,,,,,,,,,,,,,,,,,,,,,0,1,1,1,0,6,6,6,,,,1030.6652128000278,1031.8646082000341,1031.8646082000341,1032.4803484000731,s,1,豪放,k,1,1.0171795999631286,0.8656756000127643,sxc,m,22,2024-04-11_15h34.28.642,mian,2022.2.4,60.01774128159565,
,,,,,,0,1,pic/flanker6.png,pic/flanker2.png,a,k,pic/AffRest2.png,,,,,,,,,,,,,,,,,,,,,,,,,0,1,1,1,0,7,7,2,,,,1034.496628700057,1035.6960117000854,1035.6960117000854,1036.1633185000392,a,1,鲜艳,k,1,0.7414222999941558,0.5040175999747589,sxc,m,22,2024-04-11_15h34.28.642,mian,2022.2.4,60.01774128159565,
,,,,,,1,1,pic/flanker5.png,pic/flanker3.png,a,k,pic/AffRest2.png,,,,,,,,,,,,,,,,,,,,,,,,,0,1,1,1,0,8,8,4,,,,1037.5284626000794,1038.7278058000375,1038.7278058000375,1039.1936823000433,a,1,留恋,k,1,1.1734476001001894,0.7198511000024155,sxc,m,22,2024-04-11_15h34.28.642,mian,2022.2.4,60.01774128159565,
,,,,,,1,0,pic/flanker5.png,pic/flanker3.png,a,l,pic/AffRest2.png,,,,,,,,,,,,,,,,,,,,,,,,,0,1,1,1,0,9,9,55,,,,1041.2099149000132,1042.4093311000615,1042.4093311000615,1042.8740232000127,a,1,沮丧,l,1,0.8188046999275684,0.6875017000129446,sxc,m,22,2024-04-11_15h34.28.642,mian,2022.2.4,60.01774128159565,
,,,,,,0,1,pic/flanker5.png,pic/flanker1.png,s,k,pic/AffRest2.png,,,,,,,,,,,,,,,,,,,,,,,,,0,1,1,1,0,10,10,16,,,,1044.5082356000785,1045.7076689000241,1045.7076689000241,1046.1751162,s,1,享受,k,1,1.1359286000952125,0.5651326000224799,sxc,m,22,2024-04-11_15h34.28.642,mian,2022.2.4,60.01774128159565,
,,,,,,0,1,pic/flanker6.png,pic/flanker2.png,a,k,pic/AffRest2.png,,,,,,,,,,,,,,,,,,,,,,,,,0,1,1,1,0,11,11,50,,,,1048.0064529000083,1049.2059266000288,1049.2059266000288,1049.8191775000887,a,1,赞成,k,1,0.8732037999434397,0.516384799964726,sxc,m,22,2024-04-11_15h34.28.642,mian,2022.2.4,60.01774128159565,
,,,,,,1,1,pic/flanker6.png,pic/flanker4.png,s,k,pic/AffRest2.png,,,,,,,,,,,,,,,,,,,,,,,,,0,1,1,1,0,12,12,54,,,,1051.3381661000894,1052.537566300016,1052.537566300016,1052.9532965000253,s,1,雄厚,k,1,0.8182622999884188,0.6006476000184193,sxc,m,22,2024-04-11_15h34.28.642,mian,2022.2.4,60.01774128159565,
,,,,,,0,0,pic/flanker6.png,pic/flanker2.png,a,l,pic/AffRest2.png,,,,,,,,,,,,,,,,,,,,,,,,,0,1,1,1,0,13,13,41,,,,1054.5032346000662,1055.7026275000535,1055.7026275000535,1056.1240280000493,a,1,逃避,l,1,1.0003065000055358,0.5315723000094295,sxc,m,22,2024-04-11_15h34.28.642,mian,2022.2.4,60.01774128159565,
,,,,,,1,1,pic/flanker6.png,pic/flanker4.png,s,k,pic/AffRest2.png,,,,,,,,,,,,,,,,,,,,,,,,,0,1,1,1,0,14,14,62,,,,1057.7849195000017,1058.9843230000697,1058.9843230000697,1059.3938965999987,s,1,永恒,k,1,0.9430056000128388,0.729590900009498,sxc,m,22,2024-04-11_15h34.28.642,mian,2022.2.4,60.01774128159565,
,,,,,,0,1,pic/flanker5.png,pic/flanker1.png,s,k,pic/AffRest2.png,,,,,,,,,,,,,,,,,,,,,,,,,0,1,1,1,0,15,15,8,,,,1061.1832108000526,1062.3825649000937,1062.3825649000937,1062.797483600094,s,1,奉献,k,1,0.8940601999638602,0.6120388000272214,sxc,m,22,2024-04-11_15h34.28.642,mian,2022.2.4,60.01774128159565,
,,,,,,1,1,pic/flanker6.png,pic/flanker4.png,s,k,pic/AffRest2.png,,,,,,,,,,,,,,,,,,,,,,,,,0,1,1,1,0,16,16,46,,,,1064.4315924000693,1065.6309390000533,1065.6309390000533,1066.2000977999996,s,1,热切,k,1,0.8123067999258637,0.6854819000000134,sxc,m,22,2024-04-11_15h34.28.642,mian,2022.2.4,60.01774128159565,
,,,,,,0,0,pic/flanker6.png,pic/flanker2.png,a,l,pic/AffRest2.png,,,,,,,,,,,,,,,,,,,,,,,,,0,1,1,1,0,17,17,57,,,,1067.813167800079,1069.0125991000095,1069.0125991000095,1069.4802354000276,a,1,焦躁,l,1,0.8669040999375284,0.4757521999999881,sxc,m,22,2024-04-11_15h34.28.642,mian,2022.2.4,60.01774128159565,
,,,,,,0,1,pic/flanker6.png,pic/flanker2.png,a,k,pic/AffRest2.png,,,,,,,,,,,,,,,,,,,,,,,,,0,1,1,1,0,18,18,18,,,,1070.944935400039,1072.144347900059,1072.144347900059,1072.7094515000936,a,1,振作,k,1,0.7628265999956056,0.4844571000430733,sxc,m,22,2024-04-11_15h34.28.642,mian,2022.2.4,60.01774128159565,
,,,,,,1,1,pic/flanker5.png,pic/flanker3.png,a,k,pic/AffRest2.png,,,,,,,,,,,,,,,,,,,,,,,,,0,1,1,1,0,19,19,36,,,,1074.0767052000156,1075.2761288000038,1075.2761288000038,1075.744011700037,a,1,典雅,k,1,0.8168306000297889,0.7477849000133574,sxc,m,22,2024-04-11_15h34.28.642,mian,2022.2.4,60.01774128159565,
,,,,,,1,0,pic/flanker5.png,pic/flanker3.png,a,l,pic/AffRest2.png,,,,,,,,,,,,,,,,,,,,,,,,,0,1,1,1,0,20,20,31,,,,1077.4250328000635,1078.624424800044,1078.624424800044,1079.0980667000404,a,1,落后,l,1,0.8090989999473095,0.8239687999011949,sxc,m,22,2024-04-11_15h34.28.642,mian,2022.2.4,60.01774128159565,
,,,,,,1,1,pic/flanker5.png,pic/flanker3.png,a,k,pic/AffRest2.png,,,,,,,,,,,,,,,,,,,,,,,,,0,1,1,1,0,21,21,52,,,,1080.8399802000495,1082.0393860000186,1082.0393860000186,1082.617058700067,a,1,畅销,k,1,1.5684925999958068,0.6843332999851555,sxc,m,22,2024-04-11_15h34.28.642,mian,2022.2.4,60.01774128159565,
,,,,,,0,1,pic/flanker5.png,pic/flanker1.png,s,k,pic/AffRest2.png,,,,,,,,,,,,,,,,,,,,,,,,,0,1,1,1,0,22,22,32,,,,1084.9878863000777,1086.1873213000363,1086.1873213000363,1086.807636499987,s,1,如愿,k,1,0.8689140999922529,0.5110109000233933,sxc,m,22,2024-04-11_15h34.28.642,mian,2022.2.4,60.01774128159565,
,,,,,,0,1,pic/flanker5.png,pic/flanker1.png,s,k,pic/AffRest2.png,,,,,,,,,,,,,,,,,,,,,,,,,0,1,1,1,0,23,23,48,,,,1088.3028773000697,1089.5022815000266,1089.5022815000266,1089.9187425000127,s,1,吉祥,k,1,1.5192833000328392,0.5798205999890342,sxc,m,22,2024-04-11_15h34.28.642,mian,2022.2.4,60.01774128159565,
,,,,,,0,0,pic/flanker5.png,pic/flanker1.png,s,l,pic/AffRest2.png,,,,,,,,,,,,,,,,,,,,,,,,,0,1,1,1,0,24,24,75,,,,1092.1343019000487,1093.333698600065,1093.333698600065,1093.9553576000035,s,1,慌忙,l,1,0.8036736999638379,0.47618980007246137,sxc,m,22,2024-04-11_15h34.28.642,mian,2022.2.4,60.01774128159565,
,,,,,,1,1,pic/flanker6.png,pic/flanker4.png,s,k,pic/AffRest2.png,,,,,,,,,,,,,,,,,,,,,,,,,0,1,1,1,0,25,25,22,,,,1095.3493575000903,1096.5487583000213,1096.5487583000213,1097.0189967000624,s,1,廉洁,k,1,0.9377867999719456,0.6998881000326946,sxc,m,22,2024-04-11_15h34.28.642,mian,2022.2.4,60.01774128159565,
,,,,,,0,0,pic/flanker6.png,pic/flanker2.png,a,l,pic/AffRest2.png,,,,,,,,,,,,,,,,,,,,,,,,,0,1,1,1,0,26,26,9,,,,1098.780938000069,1099.980321100098,1099.980321100098,1100.5933788000839,a,1,冷笑,l,1,2.410029900027439,0.5498369000852108,sxc,m,22,2024-04-11_15h34.28.642,mian,2022.2.4,60.01774128159565,
,,,,,,0,1,pic/flanker6.png,pic/flanker2.png,a,k,pic/AffRest2.png,,,,,,,,,,,,,,,,,,,,,,,,,0,1,1,1,0,27,27,10,,,,1103.6784474999877,1104.8778889999958,1104.8778889999958,1105.2946282000048,a,1,前进,k,1,1.0507943999255076,0.5403438999783248,sxc,m,22,2024-04-11_15h34.28.642,mian,2022.2.4,60.01774128159565,
,,,,,,1,1,pic/flanker6.png,pic/flanker4.png,s,k,pic/AffRest2.png,,,,,,,,,,,,,,,,,,,,,,,,,0,1,1,1,0,28,28,30,,,,1107.0101094000274,1108.2095388000598,1108.2095388000598,1108.6759436000139,s,1,爽朗,k,1,1.2397384999785572,0.6227502999827266,sxc,m,22,2024-04-11_15h34.28.642,mian,2022.2.4,60.01774128159565,
,,,,,,0,1,pic/flanker6.png,pic/flanker2.png,a,k,pic/AffRest2.png,,,,,,,,,,,,,,,,,,,,,,,,,0,1,1,1,0,29,29,58,,,,1110.6582683000015,1111.8576573000755,1111.8576573000755,1112.3810222999891,a,1,丰满,k,1,2.281742899911478,0.5247364999959245,sxc,m,22,2024-04-11_15h34.28.642,mian,2022.2.4,60.01774128159565,
,,,,,,0,0,pic/flanker6.png,pic/flanker2.png,a,l,pic/AffRest2.png,,,,,,,,,,,,,,,,,,,,,,,,,0,1,1,1,0,30,30,33,,,,1115.2892947000219,1116.4886725000106,1116.4886725000106,1116.9273413000628,a,1,浪费,l,1,1.0481100999750197,0.4816502000903711,sxc,m,22,2024-04-11_15h34.28.642,mian,2022.2.4,60.01774128159565,
,,,,,,0,1,pic/flanker5.png,pic/flanker1.png,s,k,pic/AffRest2.png,,,,,,,,,,,,,,,,,,,,,,,,,0,1,1,1,0,31,31,40,,,,1118.5543233000208,1119.7537270000903,1119.7537270000903,1120.169275799999,s,1,旺盛,None,0,,0.5128971000667661,sxc,m,22,2024-04-11_15h34.28.642,mian,2022.2.4,60.01774128159565,
,,,,,,1,1,pic/flanker5.png,pic/flanker3.png,a,k,pic/AffRest2.png,,,,,,,,,,,,,,,,,,,,,,,,,0,1,1,1,0,32,32,68,,,,1123.2852783000562,1124.4679795000702,1124.4846703000367,1125.0890070000896,a,1,公平,k,1,0.6183976999018341,0.7343069000635296,sxc,m,22,2024-04-11_15h34.28.642,mian,2022.2.4,60.01774128159565,
,,,,,,1,1,pic/flanker6.png,pic/flanker4.png,s,k,pic/AffRest2.png,,,,,,,,,,,,,,,,,,,,,,,,,0,1,1,1,0,33,33,78,,,,1126.5669466999825,1127.7663208000595,1127.7663208000595,1128.3839608000126,s,1,精致,k,1,1.4423028000164777,0.555919999955222,sxc,m,22,2024-04-11_15h34.28.642,mian,2022.2.4,60.01774128159565,
,,,,,,1,0,pic/flanker5.png,pic/flanker3.png,a,l,pic/AffRest2.png,,,,,,,,,,,,,,,,,,,,,,,,,0,1,1,1,0,34,34,39,,,,1130.498329400085,1131.697740700096,1131.697740700096,1132.1683679000707,a,1,丢失,l,1,1.201150399981998,0.7743530999869108,sxc,m,22,2024-04-11_15h34.28.642,mian,2022.2.4,60.01774128159565,
,,,,,,0,0,pic/flanker6.png,pic/flanker2.png,a,l,pic/AffRest2.png,,,,,,,,,,,,,,,,,,,,,,,,,0,1,1,1,0,35,35,73,,,,1134.2630910000298,1135.4624590000603,1135.4624590000603,1135.9258192999987,a,1,损害,l,1,1.421163700055331,0.5774072000058368,sxc,m,22,2024-04-11_15h34.28.642,mian,2022.2.4,60.01774128159565,
,,,,,,0,0,pic/flanker5.png,pic/flanker1.png,s,l,pic/AffRest2.png,,,,,,,,,,,,,,,,,,,,,,,,,0,1,1,1,0,36,36,27,,,,1138.044506700011,1139.2439311000053,1139.2439311000053,1139.6820031000534,s,1,伤心,l,1,1.3395601999945939,0.5267828999785706,sxc,m,22,2024-04-11_15h34.28.642,mian,2022.2.4,60.01774128159565,
,,,,,,1,0,pic/flanker5.png,pic/flanker3.png,a,l,pic/AffRest2.png,,,,,,,,,,,,,,,,,,,,,,,,,0,1,1,1,0,37,37,7,,,,1141.6426774000283,1142.842096000095,1142.842096000095,1143.3650125000859,a,1,闷热,l,1,1.6800352000864223,0.5561224999837577,sxc,m,22,2024-04-11_15h34.28.642,mian,2022.2.4,60.01774128159565,
,,,,,,0,0,pic/flanker6.png,pic/flanker2.png,a,l,pic/AffRest2.png,,,,,,,,,,,,,,,,,,,,,,,,,0,1,1,1,0,38,38,1,,,,1145.7072958000936,1146.9066880000755,1146.9066880000755,1147.3766386000207,a,1,厌恶,l,1,0.8609862000448629,0.47704250004608184,sxc,m,22,2024-04-11_15h34.28.642,mian,2022.2.4,60.01774128159565,
,,,,,,1,0,pic/flanker6.png,pic/flanker4.png,s,l,pic/AffRest2.png,,,,,,,,,,,,,,,,,,,,,,,,,0,1,1,1,0,39,39,77,,,,1148.8224052999867,1150.0218105000677,1150.0218105000677,1150.6372213000432,s,1,消沉,l,1,0.9540534999687225,0.5649822000414133,sxc,m,22,2024-04-11_15h34.28.642,mian,2022.2.4,60.01774128159565,
,,,,,,0,1,pic/flanker5.png,pic/flanker1.png,s,k,pic/AffRest2.png,,,,,,,,,,,,,,,,,,,,,,,,,0,1,1,1,0,40,40,24,,,,1152.2873204000061,1153.4867382000666,1153.4867382000666,1154.0981715000235,s,1,圣洁,k,1,0.8328871000558138,0.5311491000466049,sxc,m,22,2024-04-11_15h34.28.642,mian,2022.2.4,60.01774128159565,
,,,,,,0,0,pic/flanker6.png,pic/flanker2.png,a,l,pic/AffRest2.png,,,,,,,,,,,,,,,,,,,,,,,,,0,1,1,1,0,41,41,49,,,,1155.5690132000018,1156.7684306000592,1156.7684306000592,1157.2373480000533,a,1,杂乱,l,1,0.9502454999601468,0.49542639998253435,sxc,m,22,2024-04-11_15h34.28.642,mian,2022.2.4,60.01774128159565,
,,,,,,0,0,pic/flanker6.png,pic/flanker2.png,a,l,pic/AffRest2.png,,,,,,,,,,,,,,,,,,,,,,,,,0,1,1,1,0,42,42,25,,,,1158.8007495000493,1160.0001288000494,1160.0001288000494,1160.5611486000707,a,1,缺乏,l,1,0.826946199988015,0.4679033999564126,sxc,m,22,2024-04-11_15h34.28.642,mian,2022.2.4,60.01774128159565,
,,,,,,1,0,pic/flanker6.png,pic/flanker4.png,s,l,pic/AffRest2.png,,,,,,,,,,,,,,,,,,,,,,,,,0,1,1,1,0,43,43,13,,,,1161.9824574000668,1163.1818275999976,1163.1818275999976,1163.7953106000787,s,1,禁止,l,1,0.7404037000378594,0.6441309000365436,sxc,m,22,2024-04-11_15h34.28.642,mian,2022.2.4,60.01774128159565,
,,,,,,0,0,pic/flanker6.png,pic/flanker2.png,a,l,pic/AffRest2.png,,,,,,,,,,,,,,,,,,,,,,,,,0,1,1,1,0,44,44,17,,,,1165.2974577000132,1166.4968772000866,1166.4968772000866,1166.9145199999912,a,1,懒惰,l,1,0.9355187000473961,0.4970501000061631,sxc,m,22,2024-04-11_15h34.28.642,mian,2022.2.4,60.01774128159565,
,,,,,,0,1,pic/flanker5.png,pic/flanker1.png,s,k,pic/AffRest2.png,,,,,,,,,,,,,,,,,,,,,,,,,0,1,1,1,0,45,45,0,,,,1168.4625141000142,1169.6619100000244,1169.6619100000244,1170.2801608000882,s,1,清秀,k,1,0.8169988999143243,0.540172899956815,sxc,m,22,2024-04-11_15h34.28.642,mian,2022.2.4,60.01774128159565,
,,,,,,0,1,pic/flanker5.png,pic/flanker1.png,s,k,pic/AffRest2.png,,,,,,,,,,,,,,,,,,,,,,,,,0,1,1,1,0,46,46,72,,,,1171.7608801000752,1172.960252800025,1172.960252800025,1173.5753545000916,s,1,俊秀,k,1,0.8725481999572366,0.48975199996493757,sxc,m,22,2024-04-11_15h34.28.642,mian,2022.2.4,60.01774128159565,
,,,,,,1,0,pic/flanker5.png,pic/flanker3.png,a,l,pic/AffRest2.png,,,,,,,,,,,,,,,,,,,,,,,,,0,1,1,1,0,47,47,63,,,,1175.0592266999884,1176.2585735000903,1176.2585735000903,1176.8751847000094,a,1,别扭,l,1,1.5858782000141218,0.583488600095734,sxc,m,22,2024-04-11_15h34.28.642,mian,2022.2.4,60.01774128159565,
,,,,,,0,0,pic/flanker6.png,pic/flanker2.png,a,l,pic/AffRest2.png,,,,,,,,,,,,,,,,,,,,,,,,,0,1,1,1,0,48,48,65,,,,1179.1737865000032,1180.3731790999882,1180.3731790999882,1180.7908178000944,a,1,忧虑,l,1,0.7622058000415564,0.5244959000265226,sxc,m,22,2024-04-11_15h34.28.642,mian,2022.2.4,60.01774128159565,
,,,,,,1,0,pic/flanker5.png,pic/flanker3.png,a,l,pic/AffRest2.png,,,,,,,,,,,,,,,,,,,,,,,,,0,1,1,1,0,49,49,79,,,,1182.188940800028,1183.388384400052,1183.388384400052,1183.8511740000686,a,1,轻率,l,1,1.7577535000164062,1.0113640999188647,sxc,m,22,2024-04-11_15h34.28.642,mian,2022.2.4,60.01774128159565,
,,,,,,1,0,pic/flanker6.png,pic/flanker4.png,s,l,pic/AffRest2.png,,,,,,,,,,,,,,,,,,,,,,,,,0,1,1,1,0,50,50,53,,,,1186.7367411000887,1187.9360777999973,1187.9360777999973,1188.5087616000092,s,1,怀疑,l,1,0.8480225000530481,0.5638377999421209,sxc,m,22,2024-04-11_15h34.28.642,mian,2022.2.4,60.01774128159565,
,,,,,,1,1,pic/flanker6.png,pic/flanker4.png,s,k,pic/AffRest2.png,,,,,,,,,,,,,,,,,,,,,,,,,0,1,1,1,0,51,51,70,,,,1190.0183593999827,1191.217744500027,1191.217744500027,1191.8561139000813,s,1,瑰丽,k,1,2.2173515999456868,0.6320433000801131,sxc,m,22,2024-04-11_15h34.28.642,mian,2022.2.4,60.01774128159565,
,,,,,,1,1,pic/flanker5.png,pic/flanker3.png,a,k,pic/AffRest2.png,,,,,,,,,,,,,,,,,,,,,,,,,0,1,1,1,0,52,52,76,,,,1194.8159488000674,1196.0153715000488,1196.0153715000488,1196.4358308000956,a,1,优雅,k,1,0.7716150999767706,0.618606899981387,sxc,m,22,2024-04-11_15h34.28.642,mian,2022.2.4,60.01774128159565,
,,,,,,0,1,pic/flanker6.png,pic/flanker2.png,a,k,pic/AffRest2.png,,,,,,,,,,,,,,,,,,,,,,,,,0,1,1,1,0,53,53,34,,,,1197.9476604000665,1199.1470820000395,1199.1470820000395,1199.658004200086,a,1,富足,k,1,1.9737910000840202,0.5795103000709787,sxc,m,22,2024-04-11_15h34.28.642,mian,2022.2.4,60.01774128159565,
,,,,,,1,0,pic/flanker6.png,pic/flanker4.png,s,l,pic/AffRest2.png,,,,,,,,,,,,,,,,,,,,,,,,,0,1,1,1,0,54,54,5,,,,1202.3288644000422,1203.528237599996,1203.528237599996,1204.094133000006,s,1,处罚,l,1,0.8416608000406995,0.7079590000212193,sxc,m,22,2024-04-11_15h34.28.642,mian,2022.2.4,60.01774128159565,
,,,,,,1,1,pic/flanker6.png,pic/flanker4.png,s,k,pic/AffRest2.png,,,,,,,,,,,,,,,,,,,,,,,,,0,1,1,1,0,55,55,14,,,,1205.7604251999874,1206.9598384000128,1206.9598384000128,1207.4768235000083,s,1,富丽,k,1,0.888384300051257,0.7830295000458136,sxc,m,22,2024-04-11_15h34.28.642,mian,2022.2.4,60.01774128159565,
,,,,,,0,1,pic/flanker5.png,pic/flanker1.png,s,k,pic/AffRest2.png,,,,,,,,,,,,,,,,,,,,,,,,,0,1,1,1,0,56,56,64,,,,1209.275327600073,1210.4747189000482,1210.4747189000482,1210.9347445000894,s,1,有利,k,1,0.8213570000370964,0.45342269993852824,sxc,m,22,2024-04-11_15h34.28.642,mian,2022.2.4,60.01774128159565,
,,,,,,0,0,pic/flanker5.png,pic/flanker1.png,s,l,pic/AffRest2.png,,,,,,,,,,,,,,,,,,,,,,,,,0,1,1,1,0,57,57,11,,,,1212.3404609999852,1213.5398183000507,1213.5398183000507,1214.049799200031,s,1,失意,l,1,0.8411633999785408,0.5145912999287248,sxc,m,22,2024-04-11_15h34.28.642,mian,2022.2.4,60.01774128159565,
,,,,,,0,1,pic/flanker6.png,pic/flanker2.png,a,k,pic/AffRest2.png,,,,,,,,,,,,,,,,,,,,,,,,,0,1,1,1,0,58,58,26,,,,1215.52215850004,1216.721546899993,1216.721546899993,1217.1877805000404,a,1,充裕,k,1,0.7966909999959171,0.5105556999333203,sxc,m,22,2024-04-11_15h34.28.642,mian,2022.2.4,60.01774128159565,
,,,,,,1,0,pic/flanker6.png,pic/flanker4.png,s,l,pic/AffRest2.png,,,,,,,,,,,,,,,,,,,,,,,,,0,1,1,1,0,59,59,21,,,,1218.6039629000006,1219.8033707999857,1219.8033707999857,1220.2217419000808,s,1,心慌,l,1,0.7381572999292985,0.5505369999445975,sxc,m,22,2024-04-11_15h34.28.642,mian,2022.2.4,60.01774128159565,
,,,,,,1,0,pic/flanker6.png,pic/flanker4.png,s,l,pic/AffRest2.png,,,,,,,,,,,,,,,,,,,,,,,,,0,1,1,1,0,60,60,45,,,,1221.635752000031,1222.835182000068,1222.835182000068,1223.2456869999878,s,1,胡涂,l,1,0.9936665999703109,0.766467500012368,sxc,m,22,2024-04-11_15h34.28.642,mian,2022.2.4,60.01774128159565,
,,,,,,1,0,pic/flanker6.png,pic/flanker4.png,s,l,pic/AffRest2.png,,,,,,,,,,,,,,,,,,,,,,,,,0,1,1,1,0,61,61,29,,,,1225.134053900023,1226.3334189000307,1226.3334189000307,1226.901080599986,s,1,鲁莽,l,1,1.5600144000491127,0.6303438000613824,sxc,m,22,2024-04-11_15h34.28.642,mian,2022.2.4,60.01774128159565,
,,,,,,0,1,pic/flanker6.png,pic/flanker2.png,a,k,pic/AffRest2.png,,,,,,,,,,,,,,,,,,,,,,,,,0,1,1,1,0,62,62,74,,,,1229.198632500018,1230.3979977000272,1230.3979977000272,1231.0126369000645,a,1,敬佩,k,1,1.0089141000062227,0.5321125999325886,sxc,m,22,2024-04-11_15h34.28.642,mian,2022.2.4,60.01774128159565,
,,,,,,0,0,pic/flanker5.png,pic/flanker1.png,s,l,pic/AffRest2.png,,,,,,,,,,,,,,,,,,,,,,,,,0,1,1,1,0,63,63,35,,,,1232.680189799983,1233.8795928000472,1233.8795928000472,1234.293010400026,s,1,撒谎,l,1,0.7382793000433594,0.5148183000274003,sxc,m,22,2024-04-11_15h34.28.642,mian,2022.2.4,60.01774128159565,
,,,,,,1,0,pic/flanker5.png,pic/flanker3.png,a,l,pic/AffRest2.png,,,,,,,,,,,,,,,,,,,,,,,,,0,1,1,1,0,64,64,15,,,,1235.6953779000323,1236.894736199989,1236.894736199989,1237.309911300079,a,1,假冒,l,1,1.0212271999334916,0.8030776999657974,sxc,m,22,2024-04-11_15h34.28.642,mian,2022.2.4,60.01774128159565,
,,,,,,0,0,pic/flanker5.png,pic/flanker1.png,s,l,pic/AffRest2.png,,,,,,,,,,,,,,,,,,,,,,,,,0,1,1,1,0,65,65,3,,,,1239.2602396000875,1240.4596302000573,1240.4596302000573,1240.977064600098,s,1,罚款,l,1,0.7931911000050604,0.4905968999955803,sxc,m,22,2024-04-11_15h34.28.642,mian,2022.2.4,60.01774128159565,
,,,,,,1,0,pic/flanker6.png,pic/flanker4.png,s,l,pic/AffRest2.png,,,,,,,,,,,,,,,,,,,,,,,,,0,1,1,1,0,66,66,69,,,,1242.3753492999822,1243.5746972000925,1243.5746972000925,1244.1885280000279,s,1,黑暗,l,1,0.8543586999876425,0.5795778000028804,sxc,m,22,2024-04-11_15h34.28.642,mian,2022.2.4,60.01774128159565,
,,,,,,1,0,pic/flanker6.png,pic/flanker4.png,s,l,pic/AffRest2.png,,,,,,,,,,,,,,,,,,,,,,,,,0,1,1,1,0,67,67,61,,,,1245.7403055999894,1246.9397155999904,1246.9397155999904,1247.4137142000254,s,1,悲观,l,1,0.7682627000613138,0.540173500077799,sxc,m,22,2024-04-11_15h34.28.642,mian,2022.2.4,60.01774128159565,
,,,,,,1,1,pic/flanker5.png,pic/flanker3.png,a,k,pic/AffRest2.png,,,,,,,,,,,,,,,,,,,,,,,,,0,1,1,1,0,68,68,60,,,,1248.8387272000546,1250.0381464000093,1250.0381464000093,1250.5982863000827,a,1,卓越,k,1,1.3733610999770463,0.6624236999778077,sxc,m,22,2024-04-11_15h34.28.642,mian,2022.2.4,60.01774128159565,
,,,,,,1,1,pic/flanker6.png,pic/flanker4.png,s,k,pic/AffRest2.png,,,,,,,,,,,,,,,,,,,,,,,,,0,1,1,1,0,69,69,38,,,,1252.7534355000826,1253.9528184999945,1253.9528184999945,1254.4652156000957,s,1,正直,l,0,1.69612680003047,0.6047472000354901,sxc,m,22,2024-04-11_15h34.28.642,mian,2022.2.4,60.01774128159565,
,,,,,,1,1,pic/flanker5.png,pic/flanker3.png,a,k,pic/AffRest2.png,,,,,,,,,,,,,,,,,,,,,,,,,0,1,1,1,0,70,70,28,,,,1256.9013920000289,1258.1007376000052,1258.1007376000052,1258.5163536000764,a,1,顽强,k,1,0.8777921999571845,0.637279300019145,sxc,m,22,2024-04-11_15h34.28.642,mian,2022.2.4,60.01774128159565,
,,,,,,1,0,pic/flanker6.png,pic/flanker4.png,s,l,pic/AffRest2.png,,,,,,,,,,,,,,,,,,,,,,,,,0,1,1,1,0,71,71,37,,,,1260.1497136000544,1261.3491596000968,1261.3491596000968,1261.7725528000155,s,1,自卑,l,1,1.008384299930185,0.7579453999642283,sxc,m,22,2024-04-11_15h34.28.642,mian,2022.2.4,60.01774128159565,
,,,,,,1,1,pic/flanker5.png,pic/flanker3.png,a,k,pic/AffRest2.png,,,,,,,,,,,,,,,,,,,,,,,,,0,1,1,1,0,72,72,20,,,,1263.6479691000422,1264.8473400000948,1264.8473400000948,1265.2716773999855,a,1,舒畅,k,1,1.001816499978304,1.0748890000395477,sxc,m,22,2024-04-11_15h34.28.642,mian,2022.2.4,60.01774128159565,
,,,,,,1,0,pic/flanker5.png,pic/flanker3.png,a,l,pic/AffRest2.png,,,,,,,,,,,,,,,,,,,,,,,,,0,1,1,1,0,73,73,71,,,,1267.462710199994,1268.6621136000613,1268.6621136000613,1269.2306689000688,a,1,争吵,l,1,1.093942299950868,1.0538334999000654,sxc,m,22,2024-04-11_15h34.28.642,mian,2022.2.4,60.01774128159565,
,,,,,,0,0,pic/flanker5.png,pic/flanker1.png,s,l,pic/AffRest2.png,,,,,,,,,,,,,,,,,,,,,,,,,0,1,1,1,0,74,74,67,,,,1271.494010400027,1272.6933914000401,1272.6933914000401,1273.2087758000707,s,1,排斥,l,1,1.1945473999949172,0.584829599945806,sxc,m,22,2024-04-11_15h34.28.642,mian,2022.2.4,60.01774128159565,
,,,,,,1,0,pic/flanker5.png,pic/flanker3.png,a,l,pic/AffRest2.png,,,,,,,,,,,,,,,,,,,,,,,,,0,1,1,1,0,75,75,23,,,,1275.1088375999825,1276.3082330999896,1276.3082330999896,1276.8218396999873,a,1,嘲笑,l,1,0.695279199979268,0.7942816999275237,sxc,m,22,2024-04-11_15h34.28.642,mian,2022.2.4,60.01774128159565,
,,,,,,0,0,pic/flanker5.png,pic/flanker1.png,s,l,pic/AffRest2.png,,,,,,,,,,,,,,,,,,,,,,,,,0,1,1,1,0,76,76,51,,,,1278.4405497000553,1279.6399278000463,1279.6399278000463,1280.1590483000036,s,1,穷苦,l,1,0.8641361999325454,0.5906883000861853,sxc,m,22,2024-04-11_15h34.28.642,mian,2022.2.4,60.01774128159565,
,,,,,,1,0,pic/flanker5.png,pic/flanker3.png,a,l,pic/AffRest2.png,,,,,,,,,,,,,,,,,,,,,,,,,0,1,1,1,0,77,77,47,,,,1281.7222098000348,1282.921565100085,1282.921565100085,1283.3449747000122,a,1,郁闷,l,1,0.9282012999756262,0.8640141000505537,sxc,m,22,2024-04-11_15h34.28.642,mian,2022.2.4,60.01774128159565,
,,,,,,0,1,pic/flanker5.png,pic/flanker1.png,s,k,pic/AffRest2.png,,,,,,,,,,,,,,,,,,,,,,,,,0,1,1,1,0,78,78,56,,,,1285.237085700035,1286.4364963000407,1286.4364963000407,1287.0493186000967,s,1,生动,k,1,1.4491752999601886,0.5499162999913096,sxc,m,22,2024-04-11_15h34.28.642,mian,2022.2.4,60.01774128159565,
,,,,,,0,0,pic/flanker5.png,pic/flanker1.png,s,l,pic/AffRest2.png,,,,,,,,,,,,,,,,,,,,,,,,,0,1,1,1,0,79,79,19,,,,1289.1684433000628,1290.367845300003,1290.367845300003,1290.8332780000055,s,1,孤单,l,1,2.000700900098309,0.6405408000573516,sxc,m,22,2024-04-11_15h34.28.642,mian,2022.2.4,60.01774128159565,
,,,,,,,,,,,,pic/AffRest2.png,,,,,,,,,,,,,,,,,,,,,,,,,0,1,1,1,,,,,,,,,,,,,,,,,,,sxc,m,22,2024-04-11_15h34.28.642,mian,2022.2.4,60.01774128159565,
,,,,,,1,0,pic/flanker6.png,pic/flanker4.png,s,l,pic/AffRest3.png,,,,,,,,,,,,,,,,,,,,,,,,,0,2,2,2,0,0,0,45,,,,1305.8676096000709,1307.0594498000573,1307.0761416000314,1307.6334426000249,s,1,懒惰,l,1,0.7630296999122947,0.5922928999643773,sxc,m,22,2024-04-11_15h34.28.642,mian,2022.2.4,60.01774128159565,
,,,,,,1,0,pic/flanker6.png,pic/flanker4.png,s,l,pic/AffRest3.png,,,,,,,,,,,,,,,,,,,,,,,,,0,2,2,2,0,1,1,69,,,,1309.0917462999932,1310.2911622000393,1310.2911622000393,1310.8095315000974,s,1,闷热,l,1,0.7734373999992386,0.5950880000600591,sxc,m,22,2024-04-11_15h34.28.642,mian,2022.2.4,60.01774128159565,
,,,,,,0,1,pic/flanker5.png,pic/flanker1.png,s,k,pic/AffRest3.png,,,,,,,,,,,,,,,,,,,,,,,,,0,2,2,2,0,2,2,32,,,,1312.2901686000405,1313.4895500000566,1313.4895500000566,1313.9524046999868,s,1,前进,k,1,1.1821964000118896,0.462152500054799,sxc,m,22,2024-04-11_15h34.28.642,mian,2022.2.4,60.01774128159565,
,,,,,,1,0,pic/flanker5.png,pic/flanker3.png,a,l,pic/AffRest3.png,,,,,,,,,,,,,,,,,,,,,,,,,0,2,2,2,0,3,3,71,,,,1315.705101700034,1316.9044838000555,1316.9044838000555,1317.3186830000486,a,1,排斥,l,1,0.7546837999252602,0.6259904000908136,sxc,m,22,2024-04-11_15h34.28.642,mian,2022.2.4,60.01774128159565,
,,,,,,1,0,pic/flanker6.png,pic/flanker4.png,s,l,pic/AffRest3.png,,,,,,,,,,,,,,,,,,,,,,,,,0,2,2,2,0,4,4,13,,,,1318.8201913000084,1320.0195842999965,1320.0195842999965,1320.48713220004,s,1,逃避,l,1,0.6721005999715999,0.5483339000493288,sxc,m,22,2024-04-11_15h34.28.642,mian,2022.2.4,60.01774128159565,
,,,,,,1,1,pic/flanker5.png,pic/flanker3.png,a,k,pic/AffRest3.png,,,,,,,,,,,,,,,,,,,,,,,,,0,2,2,2,0,5,5,68,,,,1321.835371699999,1323.0347386000212,1323.0347386000212,1323.6551887000678,a,1,留恋,k,1,1.6053429000312462,0.7030461000977084,sxc,m,22,2024-04-11_15h34.28.642,mian,2022.2.4,60.01774128159565,
,,,,,,0,0,pic/flanker5.png,pic/flanker1.png,s,l,pic/AffRest3.png,,,,,,,,,,,,,,,,,,,,,,,,,0,2,2,2,0,6,6,51,,,,1326.083221100038,1327.2825814000098,1327.2825814000098,1327.699561699992,s,1,焦躁,l,1,0.6711300999158993,0.4391000000759959,sxc,m,22,2024-04-11_15h34.28.642,mian,2022.2.4,60.01774128159565,
,,,,,,1,0,pic/flanker6.png,pic/flanker4.png,s,l,pic/AffRest3.png,,,,,,,,,,,,,,,,,,,,,,,,,0,2,2,2,0,7,7,29,,,,1328.9317481000908,1330.131170900073,1330.131170900073,1330.6421524999896,s,1,撒谎,l,1,0.7582554999971762,0.5630925000878051,sxc,m,22,2024-04-11_15h34.28.642,mian,2022.2.4,60.01774128159565,
,,,,,,0,0,pic/flanker6.png,pic/flanker2.png,a,l,pic/AffRest3.png,,,,,,,,,,,,,,,,,,,,,,,,,0,2,2,2,0,8,8,1,,,,1332.0802014000947,1333.2795945000835,1333.2795945000835,1333.854831899982,a,1,孤单,l,1,1.9011771000223234,0.4681785999564454,sxc,m,22,2024-04-11_15h34.28.642,mian,2022.2.4,60.01774128159565,
,,,,,,1,0,pic/flanker5.png,pic/flanker3.png,a,l,pic/AffRest3.png,,,,,,,,,,,,,,,,,,,,,,,,,0,2,2,2,0,9,9,47,,,,1336.3447247000877,1337.5441347000888,1337.5441347000888,1337.9666080999887,a,1,沮丧,l,1,0.8080192999914289,0.890235900063999,sxc,m,22,2024-04-11_15h34.28.642,mian,2022.2.4,60.01774128159565,
,,,,,,1,0,pic/flanker5.png,pic/flanker3.png,a,l,pic/AffRest3.png,,,,,,,,,,,,,,,,,,,,,,,,,0,2,2,2,0,10,10,31,,,,1339.7763325000415,1340.9757111000363,1340.9757111000363,1341.5942293000408,a,1,轻率,l,1,0.7434122000122443,0.7223094999790192,sxc,m,22,2024-04-11_15h34.28.642,mian,2022.2.4,60.01774128159565,
,,,,,,0,1,pic/flanker6.png,pic/flanker2.png,a,k,pic/AffRest3.png,,,,,,,,,,,,,,,,,,,,,,,,,0,2,2,2,0,11,11,26,,,,1343.174571200041,1344.3739822000498,1344.3739822000498,1344.8937629000284,a,1,顽强,k,1,0.7432596998987719,0.48040510003920645,sxc,m,22,2024-04-11_15h34.28.642,mian,2022.2.4,60.01774128159565,
,,,,,,0,1,pic/flanker6.png,pic/flanker2.png,a,k,pic/AffRest3.png,,,,,,,,,,,,,,,,,,,,,,,,,0,2,2,2,0,12,12,50,,,,1346.2230965000344,1347.4224622000474,1347.4224622000474,1348.0409836000763,a,1,富丽,k,1,0.7782213999889791,0.4754249999532476,sxc,m,22,2024-04-11_15h34.28.642,mian,2022.2.4,60.01774128159565,
,,,,,,0,1,pic/flanker5.png,pic/flanker1.png,s,k,pic/AffRest3.png,,,,,,,,,,,,,,,,,,,,,,,,,0,2,2,2,0,13,13,64,,,,1349.4048037000466,1350.604235899984,1350.604235899984,1351.0837349999929,s,1,热切,k,1,1.365745299961418,0.41205849999096245,sxc,m,22,2024-04-11_15h34.28.642,mian,2022.2.4,60.01774128159565,
,,,,,,0,1,pic/flanker5.png,pic/flanker1.png,s,k,pic/AffRest3.png,,,,,,,,,,,,,,,,,,,,,,,,,0,2,2,2,0,14,14,0,,,,1352.9530027,1354.1523708000313,1354.1523708000313,1354.765284400084,s,1,豪放,k,1,0.758545899996534,0.361557700089179,sxc,m,22,2024-04-11_15h34.28.642,mian,2022.2.4,60.01774128159565,
,,,,,,1,0,pic/flanker5.png,pic/flanker3.png,a,l,pic/AffRest3.png,,,,,,,,,,,,,,,,,,,,,,,,,0,2,2,2,0,15,15,23,,,,1356.001493900083,1357.200845799991,1357.200845799991,1357.6674001000356,a,1,悲观,l,1,1.1678730000276119,0.6310154000530019,sxc,m,22,2024-04-11_15h34.28.642,mian,2022.2.4,60.01774128159565,
,,,,,,1,0,pic/flanker6.png,pic/flanker4.png,s,l,pic/AffRest3.png,,,,,,,,,,,,,,,,,,,,,,,,,0,2,2,2,0,16,16,37,,,,1359.5830290000886,1360.782419300056,1360.782419300056,1361.249476200086,s,1,怀疑,l,1,1.3520279999356717,0.8976717999903485,sxc,m,22,2024-04-11_15h34.28.642,mian,2022.2.4,60.01774128159565,
,,,,,,0,1,pic/flanker5.png,pic/flanker1.png,s,k,pic/AffRest3.png,,,,,,,,,,,,,,,,,,,,,,,,,0,2,2,2,0,17,17,24,,,,1363.6143241000827,1364.8137258000206,1364.8137258000206,1365.43376610009,s,1,圣洁,k,1,0.6830802999902517,0.46799150004517287,sxc,m,22,2024-04-11_15h34.28.642,mian,2022.2.4,60.01774128159565,
,,,,,,1,1,pic/flanker6.png,pic/flanker4.png,s,k,pic/AffRest3.png,,,,,,,,,,,,,,,,,,,,,,,,,0,2,2,2,0,18,18,70,,,,1366.6961033000844,1367.895507600042,1367.895507600042,1368.306481400039,s,1,珍藏,k,1,1.014659499982372,0.7464317999547347,sxc,m,22,2024-04-11_15h34.28.642,mian,2022.2.4,60.01774128159565,
,,,,,,1,1,pic/flanker5.png,pic/flanker3.png,a,k,pic/AffRest3.png,,,,,,,,,,,,,,,,,,,,,,,,,0,2,2,2,0,19,19,28,,,,1370.1776937000686,1371.377102700062,1371.377102700062,1371.9438787000254,a,1,公平,k,1,0.68664769991301,0.754964700085111,sxc,m,22,2024-04-11_15h34.28.642,mian,2022.2.4,60.01774128159565,
,,,,,,0,0,pic/flanker6.png,pic/flanker2.png,a,l,pic/AffRest3.png,,,,,,,,,,,,,,,,,,,,,,,,,0,2,2,2,0,20,20,17,,,,1373.5093485000543,1374.708755300031,1374.708755300031,1375.1722061000764,a,1,嘲笑,l,1,0.999840300064534,0.4433161000488326,sxc,m,22,2024-04-11_15h34.28.642,mian,2022.2.4,60.01774128159565,
,,,,,,1,0,pic/flanker6.png,pic/flanker4.png,s,l,pic/AffRest3.png,,,,,,,,,,,,,,,,,,,,,,,,,0,2,2,2,0,21,21,53,,,,1376.7410136000253,1377.9404503999976,1377.9404503999976,1378.5093688000925,s,1,别扭,l,1,2.0145584999118,0.6715369999874383,sxc,m,22,2024-04-11_15h34.28.642,mian,2022.2.4,60.01774128159565,
,,,,,,1,1,pic/flanker5.png,pic/flanker3.png,a,k,pic/AffRest3.png,,,,,,,,,,,,,,,,,,,,,,,,,0,2,2,2,0,22,22,36,,,,1381.305448200088,1382.5047756000422,1382.5047756000422,1383.0768413000042,a,1,正直,k,1,0.648350500036031,0.7153393999906257,sxc,m,22,2024-04-11_15h34.28.642,mian,2022.2.4,60.01774128159565,
,,,,,,0,0,pic/flanker6.png,pic/flanker2.png,a,l,pic/AffRest3.png,,,,,,,,,,,,,,,,,,,,,,,,,0,2,2,2,0,23,23,41,,,,1384.553791500046,1385.7531336999964,1385.7531336999964,1386.379762000055,a,1,浪费,l,1,1.066121599986218,0.6246580000733957,sxc,m,22,2024-04-11_15h34.28.642,mian,2022.2.4,60.01774128159565,
,,,,,,1,0,pic/flanker5.png,pic/flanker3.png,a,l,pic/AffRest3.png,,,,,,,,,,,,,,,,,,,,,,,,,0,2,2,2,0,24,24,79,,,,1388.16861719999,1389.3680235000793,1389.3680235000793,1389.882901999983,a,1,忧虑,l,1,0.812234399956651,1.3254262999398634,sxc,m,22,2024-04-11_15h34.28.642,mian,2022.2.4,60.01774128159565,
,,,,,,0,0,pic/flanker5.png,pic/flanker1.png,s,l,pic/AffRest3.png,,,,,,,,,,,,,,,,,,,,,,,,,0,2,2,2,0,25,25,3,,,,1392.133299899986,1393.332715800032,1393.332715800032,1393.7970984000713,s,1,厌恶,l,1,1.3592662999872118,0.5551065999316052,sxc,m,22,2024-04-11_15h34.28.642,mian,2022.2.4,60.01774128159565,
