target,反应类型,条件,truetarget,CorAns,Position,congruency,AffValue,flankerPic,targetPic,corAnsF,corAnsA,RestPic,returnPractice.thisRepN,returnPractice.thisTrialN,returnPractice.thisN,returnPractice.thisIndex,pracNum.thisRepN,pracNum.thisTrialN,pracNum.thisN,pracNum.thisIndex,NumBlock1.thisRepN,NumBlock1.thisTrialN,NumBlock1.thisN,NumBlock1.thisIndex,NumBlock2.thisRepN,NumBlock2.thisTrialN,NumBlock2.thisN,NumBlock2.thisIndex,returnPrac.thisRepN,returnPrac.thisTrialN,returnPrac.thisN,returnPrac.thisIndex,PracAff.thisRepN,PracAff.thisTrialN,PracAff.thisN,PracAff.thisIndex,AffBlocks.thisRepN,AffBlocks.thisTrialN,AffBlocks.thisN,AffBlocks.thisIndex,AffBlock1.thisRepN,AffBlock1.thisTrialN,AffBlock1.thisN,AffBlock1.thisIndex,respNum2word.keys,respNum2word.corr,respNum2word.rt,text.started,text.stopped,blank.started,blank.stopped,respFlanker.keys,respFlanker.corr,thisWord,respAffWord.keys,respAffWord.corr,respFlanker.rt,respAffWord.rt,姓名,性别,年龄（周岁）,date,expName,psychopyVersion,frameRate,
2A,1,1,A,a,"[0.2, 0.2]",,,,,,,,0,0,0,0,0,0,0,0,,,,,,,,,,,,,,,,,,,,,,,,,a,1,1.5367957999987993,,,,,,,,,,,,szj,f,20,2024_Apr_12_1645,mian,2021.2.3,60.002004066915774,
A9,1,2,A,a,"[-0.2, 0.2]",,,,,,,,0,0,0,0,0,1,1,1,,,,,,,,,,,,,,,,,,,,,,,,,a,1,0.62898370000039,,,,,,,,,,,,szj,f,20,2024_Apr_12_1645,mian,2021.2.3,60.002004066915774,
7e,2,1,7.0,a,"[-0.2, -0.2]",,,,,,,,0,0,0,0,0,2,2,2,,,,,,,,,,,,,,,,,,,,,,,,,l,0,2.8032170999995287,,,,,,,,,,,,szj,f,20,2024_Apr_12_1645,mian,2021.2.3,60.002004066915774,
9H,2,2,9.0,a,"[0.2, -0.2]",,,,,,,,0,0,0,0,0,3,3,3,,,,,,,,,,,,,,,,,,,,,,,,,a,1,0.9946663999999146,,,,,,,,,,,,szj,f,20,2024_Apr_12_1645,mian,2021.2.3,60.002004066915774,
h4,1,1,h,l,"[0.2, 0.2]",,,,,,,,0,0,0,0,0,4,4,4,,,,,,,,,,,,,,,,,,,,,,,,,l,1,0.9027342999997927,,,,,,,,,,,,szj,f,20,2024_Apr_12_1645,mian,2021.2.3,60.002004066915774,
4H,1,2,H,a,"[-0.2, 0.2]",,,,,,,,0,0,0,0,0,5,5,5,,,,,,,,,,,,,,,,,,,,,,,,,a,1,1.0530472000009468,,,,,,,,,,,,szj,f,20,2024_Apr_12_1645,mian,2021.2.3,60.002004066915774,
F8,2,1,8.0,l,"[-0.2, -0.2]",,,,,,,,0,0,0,0,0,6,6,6,,,,,,,,,,,,,,,,,,,,,,,,,l,1,1.9553735999998025,,,,,,,,,,,,szj,f,20,2024_Apr_12_1645,mian,2021.2.3,60.002004066915774,
h7,2,2,7.0,a,"[0.2, -0.2]",,,,,,,,0,0,0,0,0,7,7,7,,,,,,,,,,,,,,,,,,,,,,,,,a,1,0.9287110999994184,,,,,,,,,,,,szj,f,20,2024_Apr_12_1645,mian,2021.2.3,60.002004066915774,
5e,1,1,e,l,"[0.2, 0.2]",,,,,,,,0,0,0,0,0,8,8,8,,,,,,,,,,,,,,,,,,,,,,,,,l,1,1.5572601000003488,,,,,,,,,,,,szj,f,20,2024_Apr_12_1645,mian,2021.2.3,60.002004066915774,
e8,1,2,e,l,"[-0.2, 0.2]",,,,,,,,0,0,0,0,0,9,9,9,,,,,,,,,,,,,,,,,,,,,,,,,l,1,0.8847089000009873,,,,,,,,,,,,szj,f,20,2024_Apr_12_1645,mian,2021.2.3,60.002004066915774,
4E,2,1,4.0,l,"[-0.2, -0.2]",,,,,,,,0,0,0,0,0,10,10,10,,,,,,,,,,,,,,,,,,,,,,,,,l,1,2.372284099999888,,,,,,,,,,,,szj,f,20,2024_Apr_12_1645,mian,2021.2.3,60.002004066915774,
5H,2,2,5.0,a,"[0.2, -0.2]",,,,,,,,0,0,0,0,0,11,11,11,,,,,,,,,,,,,,,,,,,,,,,,,a,1,1.3301121999993484,,,,,,,,,,,,szj,f,20,2024_Apr_12_1645,mian,2021.2.3,60.002004066915774,
9E,1,1,E,a,"[0.2, 0.2]",,,,,,,,0,0,0,0,0,12,12,12,,,,,,,,,,,,,,,,,,,,,,,,,a,1,1.1841684999999416,,,,,,,,,,,,szj,f,20,2024_Apr_12_1645,mian,2021.2.3,60.002004066915774,
h9,1,2,h,l,"[-0.2, 0.2]",,,,,,,,0,0,0,0,0,13,13,13,,,,,,,,,,,,,,,,,,,,,,,,,l,1,1.4133022999994864,,,,,,,,,,,,szj,f,20,2024_Apr_12_1645,mian,2021.2.3,60.002004066915774,
2a,2,1,2.0,l,"[-0.2, -0.2]",,,,,,,,0,0,0,0,0,14,14,14,,,,,,,,,,,,,,,,,,,,,,,,,l,1,1.0803004000008514,,,,,,,,,,,,szj,f,20,2024_Apr_12_1645,mian,2021.2.3,60.002004066915774,
e5,2,2,5.0,a,"[0.2, -0.2]",,,,,,,,0,0,0,0,0,15,15,15,,,,,,,,,,,,,,,,,,,,,,,,,a,1,0.7655673999997816,,,,,,,,,,,,szj,f,20,2024_Apr_12_1645,mian,2021.2.3,60.002004066915774,
A5,1,1,A,a,"[0.2, 0.2]",,,,,,,,0,0,0,0,0,16,16,16,,,,,,,,,,,,,,,,,,,,,,,,,a,1,1.6172366999999213,,,,,,,,,,,,szj,f,20,2024_Apr_12_1645,mian,2021.2.3,60.002004066915774,
a6,1,2,a,l,"[-0.2, 0.2]",,,,,,,,0,0,0,0,0,17,17,17,,,,,,,,,,,,,,,,,,,,,,,,,l,1,0.703314299998965,,,,,,,,,,,,szj,f,20,2024_Apr_12_1645,mian,2021.2.3,60.002004066915774,
2F,2,1,2.0,l,"[-0.2, -0.2]",,,,,,,,0,0,0,0,0,18,18,18,,,,,,,,,,,,,,,,,,,,,,,,,l,1,1.023380000000543,,,,,,,,,,,,szj,f,20,2024_Apr_12_1645,mian,2021.2.3,60.002004066915774,
e4,2,2,4.0,l,"[0.2, -0.2]",,,,,,,,0,0,0,0,0,19,19,19,,,,,,,,,,,,,,,,,,,,,,,,,l,1,0.9910429000010481,,,,,,,,,,,,szj,f,20,2024_Apr_12_1645,mian,2021.2.3,60.002004066915774,
,,,,,,,,,,,,,0,0,0,0,,,,,,,,,,,,,,,,,,,,,,,,,,,,,,,,,,,,,,,,,,,szj,f,20,2024_Apr_12_1645,mian,2021.2.3,60.002004066915774,
7h,1,1,h,l,"[0.2, 0.2]",,,,,,,,,,,,,,,,0,0,0,0,,,,,,,,,,,,,,,,,,,,,l,1,0.8314922999998089,,,,,,,,,,,,szj,f,20,2024_Apr_12_1645,mian,2021.2.3,60.002004066915774,
8F,1,2,F,a,"[-0.2, 0.2]",,,,,,,,,,,,,,,,0,1,1,1,,,,,,,,,,,,,,,,,,,,,a,1,1.2895864000001893,,,,,,,,,,,,szj,f,20,2024_Apr_12_1645,mian,2021.2.3,60.002004066915774,
8h,2,1,8.0,l,"[-0.2, -0.2]",,,,,,,,,,,,,,,,0,2,2,2,,,,,,,,,,,,,,,,,,,,,l,1,1.0883886999999959,,,,,,,,,,,,szj,f,20,2024_Apr_12_1645,mian,2021.2.3,60.002004066915774,
a2,2,2,2.0,l,"[0.2, -0.2]",,,,,,,,,,,,,,,,0,3,3,3,,,,,,,,,,,,,,,,,,,,,l,1,1.8402991000002658,,,,,,,,,,,,szj,f,20,2024_Apr_12_1645,mian,2021.2.3,60.002004066915774,
8f,1,1,f,l,"[0.2, 0.2]",,,,,,,,,,,,,,,,0,4,4,4,,,,,,,,,,,,,,,,,,,,,l,1,1.3617085000005318,,,,,,,,,,,,szj,f,20,2024_Apr_12_1645,mian,2021.2.3,60.002004066915774,
6a,1,2,a,l,"[-0.2, 0.2]",,,,,,,,,,,,,,,,0,5,5,5,,,,,,,,,,,,,,,,,,,,,l,1,1.6198911000010412,,,,,,,,,,,,szj,f,20,2024_Apr_12_1645,mian,2021.2.3,60.002004066915774,
h6,2,1,6.0,l,"[-0.2, -0.2]",,,,,,,,,,,,,,,,0,6,6,6,,,,,,,,,,,,,,,,,,,,,l,1,1.9945824999995239,,,,,,,,,,,,szj,f,20,2024_Apr_12_1645,mian,2021.2.3,60.002004066915774,
f9,2,2,9.0,a,"[0.2, -0.2]",,,,,,,,,,,,,,,,0,7,7,7,,,,,,,,,,,,,,,,,,,,,a,1,1.7704405999993469,,,,,,,,,,,,szj,f,20,2024_Apr_12_1645,mian,2021.2.3,60.002004066915774,
E4,1,1,E,a,"[0.2, 0.2]",,,,,,,,,,,,,,,,0,8,8,8,,,,,,,,,,,,,,,,,,,,,a,1,0.9921301000013045,,,,,,,,,,,,szj,f,20,2024_Apr_12_1645,mian,2021.2.3,60.002004066915774,
6e,1,2,e,l,"[-0.2, 0.2]",,,,,,,,,,,,,,,,0,9,9,9,,,,,,,,,,,,,,,,,,,,,l,1,0.8094581999994261,,,,,,,,,,,,szj,f,20,2024_Apr_12_1645,mian,2021.2.3,60.002004066915774,
5G,2,1,5.0,a,"[-0.2, -0.2]",,,,,,,,,,,,,,,,0,10,10,10,,,,,,,,,,,,,,,,,,,,,a,1,0.9654249999985041,,,,,,,,,,,,szj,f,20,2024_Apr_12_1645,mian,2021.2.3,60.002004066915774,
h3,2,2,3.0,a,"[0.2, -0.2]",,,,,,,,,,,,,,,,0,11,11,11,,,,,,,,,,,,,,,,,,,,,a,1,0.651006400001279,,,,,,,,,,,,szj,f,20,2024_Apr_12_1645,mian,2021.2.3,60.002004066915774,
9e,1,1,e,l,"[0.2, 0.2]",,,,,,,,,,,,,,,,0,12,12,12,,,,,,,,,,,,,,,,,,,,,l,1,0.7069486000000325,,,,,,,,,,,,szj,f,20,2024_Apr_12_1645,mian,2021.2.3,60.002004066915774,
a8,1,2,a,l,"[-0.2, 0.2]",,,,,,,,,,,,,,,,0,13,13,13,,,,,,,,,,,,,,,,,,,,,l,1,1.812046900000496,,,,,,,,,,,,szj,f,20,2024_Apr_12_1645,mian,2021.2.3,60.002004066915774,
e8,2,1,8.0,l,"[-0.2, -0.2]",,,,,,,,,,,,,,,,0,14,14,14,,,,,,,,,,,,,,,,,,,,,l,1,0.8409534000002168,,,,,,,,,,,,szj,f,20,2024_Apr_12_1645,mian,2021.2.3,60.002004066915774,
3f,2,2,3.0,a,"[0.2, -0.2]",,,,,,,,,,,,,,,,0,15,15,15,,,,,,,,,,,,,,,,,,,,,a,1,0.6005533000006835,,,,,,,,,,,,szj,f,20,2024_Apr_12_1645,mian,2021.2.3,60.002004066915774,
7f,1,1,f,l,"[0.2, 0.2]",,,,,,,,,,,,,,,,0,16,16,16,,,,,,,,,,,,,,,,,,,,,l,1,1.2006594000013138,,,,,,,,,,,,szj,f,20,2024_Apr_12_1645,mian,2021.2.3,60.002004066915774,
a7,1,2,a,l,"[-0.2, 0.2]",,,,,,,,,,,,,,,,0,17,17,17,,,,,,,,,,,,,,,,,,,,,l,1,0.9473087999995187,,,,,,,,,,,,szj,f,20,2024_Apr_12_1645,mian,2021.2.3,60.002004066915774,
5A,2,1,5.0,a,"[-0.2, -0.2]",,,,,,,,,,,,,,,,0,18,18,18,,,,,,,,,,,,,,,,,,,,,a,1,1.290194799999881,,,,,,,,,,,,szj,f,20,2024_Apr_12_1645,mian,2021.2.3,60.002004066915774,
8g,2,2,8.0,l,"[0.2, -0.2]",,,,,,,,,,,,,,,,0,19,19,19,,,,,,,,,,,,,,,,,,,,,l,1,0.7466523999992205,,,,,,,,,,,,szj,f,20,2024_Apr_12_1645,mian,2021.2.3,60.002004066915774,
9a,1,1,a,l,"[0.2, 0.2]",,,,,,,,,,,,,,,,0,20,20,20,,,,,,,,,,,,,,,,,,,,,l,1,1.326479899998958,,,,,,,,,,,,szj,f,20,2024_Apr_12_1645,mian,2021.2.3,60.002004066915774,
f7,1,2,f,l,"[-0.2, 0.2]",,,,,,,,,,,,,,,,0,21,21,21,,,,,,,,,,,,,,,,,,,,,l,1,0.9864612999990641,,,,,,,,,,,,szj,f,20,2024_Apr_12_1645,mian,2021.2.3,60.002004066915774,
g9,2,1,9.0,a,"[-0.2, -0.2]",,,,,,,,,,,,,,,,0,22,22,22,,,,,,,,,,,,,,,,,,,,,l,0,0.9344727999996394,,,,,,,,,,,,szj,f,20,2024_Apr_12_1645,mian,2021.2.3,60.002004066915774,
3h,2,2,3.0,a,"[0.2, -0.2]",,,,,,,,,,,,,,,,0,23,23,23,,,,,,,,,,,,,,,,,,,,,a,1,1.751308800001425,,,,,,,,,,,,szj,f,20,2024_Apr_12_1645,mian,2021.2.3,60.002004066915774,
E6,1,1,E,a,"[0.2, 0.2]",,,,,,,,,,,,,,,,0,24,24,24,,,,,,,,,,,,,,,,,,,,,a,1,1.171514899999238,,,,,,,,,,,,szj,f,20,2024_Apr_12_1645,mian,2021.2.3,60.002004066915774,
F6,1,2,F,a,"[-0.2, 0.2]",,,,,,,,,,,,,,,,0,25,25,25,,,,,,,,,,,,,,,,,,,,,a,1,0.8028818999991927,,,,,,,,,,,,szj,f,20,2024_Apr_12_1645,mian,2021.2.3,60.002004066915774,
3A,2,1,3.0,a,"[-0.2, -0.2]",,,,,,,,,,,,,,,,0,26,26,26,,,,,,,,,,,,,,,,,,,,,a,1,0.9123117999988608,,,,,,,,,,,,szj,f,20,2024_Apr_12_1645,mian,2021.2.3,60.002004066915774,
8H,2,2,8.0,l,"[0.2, -0.2]",,,,,,,,,,,,,,,,0,27,27,27,,,,,,,,,,,,,,,,,,,,,l,1,0.6223743000009563,,,,,,,,,,,,szj,f,20,2024_Apr_12_1645,mian,2021.2.3,60.002004066915774,
5a,1,1,a,l,"[0.2, 0.2]",,,,,,,,,,,,,,,,0,28,28,28,,,,,,,,,,,,,,,,,,,,,l,1,0.6870564000000741,,,,,,,,,,,,szj,f,20,2024_Apr_12_1645,mian,2021.2.3,60.002004066915774,
2h,1,2,h,l,"[-0.2, 0.2]",,,,,,,,,,,,,,,,0,29,29,29,,,,,,,,,,,,,,,,,,,,,l,1,1.6788769000013417,,,,,,,,,,,,szj,f,20,2024_Apr_12_1645,mian,2021.2.3,60.002004066915774,
e5,2,1,5.0,a,"[-0.2, -0.2]",,,,,,,,,,,,,,,,0,30,30,30,,,,,,,,,,,,,,,,,,,,,a,1,0.7764618999990489,,,,,,,,,,,,szj,f,20,2024_Apr_12_1645,mian,2021.2.3,60.002004066915774,
a3,2,2,3.0,a,"[0.2, -0.2]",,,,,,,,,,,,,,,,0,31,31,31,,,,,,,,,,,,,,,,,,,,,a,1,0.77862819999973,,,,,,,,,,,,szj,f,20,2024_Apr_12_1645,mian,2021.2.3,60.002004066915774,
f3,1,1,f,l,"[0.2, 0.2]",,,,,,,,,,,,,,,,0,32,32,32,,,,,,,,,,,,,,,,,,,,,l,1,1.138946199998827,,,,,,,,,,,,szj,f,20,2024_Apr_12_1645,mian,2021.2.3,60.002004066915774,
2E,1,2,E,a,"[-0.2, 0.2]",,,,,,,,,,,,,,,,0,33,33,33,,,,,,,,,,,,,,,,,,,,,a,1,1.383852000000843,,,,,,,,,,,,szj,f,20,2024_Apr_12_1645,mian,2021.2.3,60.002004066915774,
2H,2,1,2.0,l,"[-0.2, -0.2]",,,,,,,,,,,,,,,,0,34,34,34,,,,,,,,,,,,,,,,,,,,,l,1,0.7968689999997878,,,,,,,,,,,,szj,f,20,2024_Apr_12_1645,mian,2021.2.3,60.002004066915774,
H8,2,2,8.0,l,"[0.2, -0.2]",,,,,,,,,,,,,,,,0,35,35,35,,,,,,,,,,,,,,,,,,,,,l,1,1.051783199998681,,,,,,,,,,,,szj,f,20,2024_Apr_12_1645,mian,2021.2.3,60.002004066915774,
9g,1,1,g,l,"[0.2, 0.2]",,,,,,,,,,,,,,,,0,36,36,36,,,,,,,,,,,,,,,,,,,,,l,1,1.1372418999999354,,,,,,,,,,,,szj,f,20,2024_Apr_12_1645,mian,2021.2.3,60.002004066915774,
5h,1,2,h,l,"[-0.2, 0.2]",,,,,,,,,,,,,,,,0,37,37,37,,,,,,,,,,,,,,,,,,,,,l,1,0.5731496999997034,,,,,,,,,,,,szj,f,20,2024_Apr_12_1645,mian,2021.2.3,60.002004066915774,
e4,2,1,4.0,l,"[-0.2, -0.2]",,,,,,,,,,,,,,,,0,38,38,38,,,,,,,,,,,,,,,,,,,,,l,1,0.6895617999998649,,,,,,,,,,,,szj,f,20,2024_Apr_12_1645,mian,2021.2.3,60.002004066915774,
9h,2,2,9.0,a,"[0.2, -0.2]",,,,,,,,,,,,,,,,0,39,39,39,,,,,,,,,,,,,,,,,,,,,a,1,0.5214467000005243,,,,,,,,,,,,szj,f,20,2024_Apr_12_1645,mian,2021.2.3,60.002004066915774,
G3,1,1,G,a,"[0.2, 0.2]",,,,,,,,,,,,,,,,0,40,40,40,,,,,,,,,,,,,,,,,,,,,a,1,0.774814399999741,,,,,,,,,,,,szj,f,20,2024_Apr_12_1645,mian,2021.2.3,60.002004066915774,
9A,1,2,A,a,"[-0.2, 0.2]",,,,,,,,,,,,,,,,0,41,41,41,,,,,,,,,,,,,,,,,,,,,a,1,0.6356113999991067,,,,,,,,,,,,szj,f,20,2024_Apr_12_1645,mian,2021.2.3,60.002004066915774,
H5,2,1,5.0,a,"[-0.2, -0.2]",,,,,,,,,,,,,,,,0,42,42,42,,,,,,,,,,,,,,,,,,,,,a,1,1.0742386000001716,,,,,,,,,,,,szj,f,20,2024_Apr_12_1645,mian,2021.2.3,60.002004066915774,
4e,2,2,4.0,l,"[0.2, -0.2]",,,,,,,,,,,,,,,,0,43,43,43,,,,,,,,,,,,,,,,,,,,,l,1,0.7616656999998668,,,,,,,,,,,,szj,f,20,2024_Apr_12_1645,mian,2021.2.3,60.002004066915774,
E2,1,1,E,a,"[0.2, 0.2]",,,,,,,,,,,,,,,,0,44,44,44,,,,,,,,,,,,,,,,,,,,,a,1,0.6872667000006913,,,,,,,,,,,,szj,f,20,2024_Apr_12_1645,mian,2021.2.3,60.002004066915774,
A5,1,2,A,a,"[-0.2, 0.2]",,,,,,,,,,,,,,,,0,45,45,45,,,,,,,,,,,,,,,,,,,,,a,1,0.4934840999994776,,,,,,,,,,,,szj,f,20,2024_Apr_12_1645,mian,2021.2.3,60.002004066915774,
2A,2,1,2.0,l,"[-0.2, -0.2]",,,,,,,,,,,,,,,,0,46,46,46,,,,,,,,,,,,,,,,,,,,,l,1,0.8212456000001112,,,,,,,,,,,,szj,f,20,2024_Apr_12_1645,mian,2021.2.3,60.002004066915774,
6G,2,2,6.0,l,"[0.2, -0.2]",,,,,,,,,,,,,,,,0,47,47,47,,,,,,,,,,,,,,,,,,,,,l,1,0.6396552999995038,,,,,,,,,,,,szj,f,20,2024_Apr_12_1645,mian,2021.2.3,60.002004066915774,
H3,1,1,H,a,"[0.2, 0.2]",,,,,,,,,,,,,,,,0,48,48,48,,,,,,,,,,,,,,,,,,,,,a,1,0.5210031000005984,,,,,,,,,,,,szj,f,20,2024_Apr_12_1645,mian,2021.2.3,60.002004066915774,
H2,1,2,H,a,"[-0.2, 0.2]",,,,,,,,,,,,,,,,0,49,49,49,,,,,,,,,,,,,,,,,,,,,a,1,0.4331994999993185,,,,,,,,,,,,szj,f,20,2024_Apr_12_1645,mian,2021.2.3,60.002004066915774,
e9,2,1,9.0,a,"[-0.2, -0.2]",,,,,,,,,,,,,,,,0,50,50,50,,,,,,,,,,,,,,,,,,,,,a,1,0.609453900000517,,,,,,,,,,,,szj,f,20,2024_Apr_12_1645,mian,2021.2.3,60.002004066915774,
2G,2,2,2.0,l,"[0.2, -0.2]",,,,,,,,,,,,,,,,0,51,51,51,,,,,,,,,,,,,,,,,,,,,l,1,0.6298547999995208,,,,,,,,,,,,szj,f,20,2024_Apr_12_1645,mian,2021.2.3,60.002004066915774,
4f,1,1,f,l,"[0.2, 0.2]",,,,,,,,,,,,,,,,0,52,52,52,,,,,,,,,,,,,,,,,,,,,l,1,0.6847264999996696,,,,,,,,,,,,szj,f,20,2024_Apr_12_1645,mian,2021.2.3,60.002004066915774,
H6,1,2,H,a,"[-0.2, 0.2]",,,,,,,,,,,,,,,,0,53,53,53,,,,,,,,,,,,,,,,,,,,,a,1,0.5608121000004758,,,,,,,,,,,,szj,f,20,2024_Apr_12_1645,mian,2021.2.3,60.002004066915774,
A4,2,1,4.0,l,"[-0.2, -0.2]",,,,,,,,,,,,,,,,0,54,54,54,,,,,,,,,,,,,,,,,,,,,l,1,0.8487829000005149,,,,,,,,,,,,szj,f,20,2024_Apr_12_1645,mian,2021.2.3,60.002004066915774,
3F,2,2,3.0,a,"[0.2, -0.2]",,,,,,,,,,,,,,,,0,55,55,55,,,,,,,,,,,,,,,,,,,,,a,1,0.6423348000007536,,,,,,,,,,,,szj,f,20,2024_Apr_12_1645,mian,2021.2.3,60.002004066915774,
7e,1,1,e,l,"[0.2, 0.2]",,,,,,,,,,,,,,,,0,56,56,56,,,,,,,,,,,,,,,,,,,,,l,1,0.6592800999987958,,,,,,,,,,,,szj,f,20,2024_Apr_12_1645,mian,2021.2.3,60.002004066915774,
F9,1,2,F,a,"[-0.2, 0.2]",,,,,,,,,,,,,,,,0,57,57,57,,,,,,,,,,,,,,,,,,,,,a,1,0.6724238999995578,,,,,,,,,,,,szj,f,20,2024_Apr_12_1645,mian,2021.2.3,60.002004066915774,
e2,2,1,2.0,l,"[-0.2, -0.2]",,,,,,,,,,,,,,,,0,58,58,58,,,,,,,,,,,,,,,,,,,,,l,1,0.6063936999998987,,,,,,,,,,,,szj,f,20,2024_Apr_12_1645,mian,2021.2.3,60.002004066915774,
5F,2,2,5.0,a,"[0.2, -0.2]",,,,,,,,,,,,,,,,0,59,59,59,,,,,,,,,,,,,,,,,,,,,a,1,1.240154099999927,,,,,,,,,,,,szj,f,20,2024_Apr_12_1645,mian,2021.2.3,60.002004066915774,
f6,1,1,f,l,"[0.2, 0.2]",,,,,,,,,,,,,,,,0,60,60,60,,,,,,,,,,,,,,,,,,,,,l,1,0.8714522999998735,,,,,,,,,,,,szj,f,20,2024_Apr_12_1645,mian,2021.2.3,60.002004066915774,
7G,1,2,G,a,"[-0.2, 0.2]",,,,,,,,,,,,,,,,0,61,61,61,,,,,,,,,,,,,,,,,,,,,a,1,0.886615499999607,,,,,,,,,,,,szj,f,20,2024_Apr_12_1645,mian,2021.2.3,60.002004066915774,
e6,2,1,6.0,l,"[-0.2, -0.2]",,,,,,,,,,,,,,,,0,62,62,62,,,,,,,,,,,,,,,,,,,,,l,1,1.6695162000014534,,,,,,,,,,,,szj,f,20,2024_Apr_12_1645,mian,2021.2.3,60.002004066915774,
3G,2,2,3.0,a,"[0.2, -0.2]",,,,,,,,,,,,,,,,0,63,63,63,,,,,,,,,,,,,,,,,,,,,a,1,0.566393800001606,,,,,,,,,,,,szj,f,20,2024_Apr_12_1645,mian,2021.2.3,60.002004066915774,
5E,1,1,E,a,"[0.2, 0.2]",,,,,,,,,,,,,,,,0,64,64,64,,,,,,,,,,,,,,,,,,,,,a,1,0.6822149999989051,,,,,,,,,,,,szj,f,20,2024_Apr_12_1645,mian,2021.2.3,60.002004066915774,
A6,1,2,A,a,"[-0.2, 0.2]",,,,,,,,,,,,,,,,0,65,65,65,,,,,,,,,,,,,,,,,,,,,a,1,0.6476903000002494,,,,,,,,,,,,szj,f,20,2024_Apr_12_1645,mian,2021.2.3,60.002004066915774,
E3,2,1,3.0,a,"[-0.2, -0.2]",,,,,,,,,,,,,,,,0,66,66,66,,,,,,,,,,,,,,,,,,,,,a,1,0.9280741000002308,,,,,,,,,,,,szj,f,20,2024_Apr_12_1645,mian,2021.2.3,60.002004066915774,
2f,2,2,2.0,l,"[0.2, -0.2]",,,,,,,,,,,,,,,,0,67,67,67,,,,,,,,,,,,,,,,,,,,,l,1,0.6912071000006108,,,,,,,,,,,,szj,f,20,2024_Apr_12_1645,mian,2021.2.3,60.002004066915774,
g3,1,1,g,l,"[0.2, 0.2]",,,,,,,,,,,,,,,,0,68,68,68,,,,,,,,,,,,,,,,,,,,,l,1,1.4552843000001303,,,,,,,,,,,,szj,f,20,2024_Apr_12_1645,mian,2021.2.3,60.002004066915774,
E8,1,2,E,a,"[-0.2, 0.2]",,,,,,,,,,,,,,,,0,69,69,69,,,,,,,,,,,,,,,,,,,,,a,1,0.5957902999998623,,,,,,,,,,,,szj,f,20,2024_Apr_12_1645,mian,2021.2.3,60.002004066915774,
6g,2,1,6.0,l,"[-0.2, -0.2]",,,,,,,,,,,,,,,,0,70,70,70,,,,,,,,,,,,,,,,,,,,,l,1,0.7804794000003312,,,,,,,,,,,,szj,f,20,2024_Apr_12_1645,mian,2021.2.3,60.002004066915774,
5H,2,2,5.0,a,"[0.2, -0.2]",,,,,,,,,,,,,,,,0,71,71,71,,,,,,,,,,,,,,,,,,,,,a,1,0.5369984999997541,,,,,,,,,,,,szj,f,20,2024_Apr_12_1645,mian,2021.2.3,60.002004066915774,
4A,1,1,A,a,"[0.2, 0.2]",,,,,,,,,,,,,,,,0,72,72,72,,,,,,,,,,,,,,,,,,,,,a,1,0.5390044000014313,,,,,,,,,,,,szj,f,20,2024_Apr_12_1645,mian,2021.2.3,60.002004066915774,
7F,1,2,F,a,"[-0.2, 0.2]",,,,,,,,,,,,,,,,0,73,73,73,,,,,,,,,,,,,,,,,,,,,a,1,0.5870546000005561,,,,,,,,,,,,szj,f,20,2024_Apr_12_1645,mian,2021.2.3,60.002004066915774,
6H,2,1,6.0,l,"[-0.2, -0.2]",,,,,,,,,,,,,,,,0,74,74,74,,,,,,,,,,,,,,,,,,,,,a,0,0.62550839999858,,,,,,,,,,,,szj,f,20,2024_Apr_12_1645,mian,2021.2.3,60.002004066915774,
3a,2,2,3.0,a,"[0.2, -0.2]",,,,,,,,,,,,,,,,0,75,75,75,,,,,,,,,,,,,,,,,,,,,a,1,1.0823579999996582,,,,,,,,,,,,szj,f,20,2024_Apr_12_1645,mian,2021.2.3,60.002004066915774,
9F,1,1,F,a,"[0.2, 0.2]",,,,,,,,,,,,,,,,0,76,76,76,,,,,,,,,,,,,,,,,,,,,a,1,0.8080040000004374,,,,,,,,,,,,szj,f,20,2024_Apr_12_1645,mian,2021.2.3,60.002004066915774,
G7,1,2,G,a,"[-0.2, 0.2]",,,,,,,,,,,,,,,,0,77,77,77,,,,,,,,,,,,,,,,,,,,,a,1,0.5818734999993467,,,,,,,,,,,,szj,f,20,2024_Apr_12_1645,mian,2021.2.3,60.002004066915774,
a6,2,1,6.0,l,"[-0.2, -0.2]",,,,,,,,,,,,,,,,0,78,78,78,,,,,,,,,,,,,,,,,,,,,l,1,0.8914554000002681,,,,,,,,,,,,szj,f,20,2024_Apr_12_1645,mian,2021.2.3,60.002004066915774,
4h,2,2,4.0,l,"[0.2, -0.2]",,,,,,,,,,,,,,,,0,79,79,79,,,,,,,,,,,,,,,,,,,,,l,1,2.1414810000005673,,,,,,,,,,,,szj,f,20,2024_Apr_12_1645,mian,2021.2.3,60.002004066915774,
6A,1,1,A,a,"[0.2, 0.2]",,,,,,,,,,,,,,,,,,,,0,0,0,0,,,,,,,,,,,,,,,,,a,1,1.0475525000001653,,,,,,,,,,,,szj,f,20,2024_Apr_12_1645,mian,2021.2.3,60.002004066915774,
4H,1,2,H,a,"[-0.2, 0.2]",,,,,,,,,,,,,,,,,,,,0,1,1,1,,,,,,,,,,,,,,,,,a,1,0.5598417000001064,,,,,,,,,,,,szj,f,20,2024_Apr_12_1645,mian,2021.2.3,60.002004066915774,
3H,2,1,3.0,a,"[-0.2, -0.2]",,,,,,,,,,,,,,,,,,,,0,2,2,2,,,,,,,,,,,,,,,,,a,1,1.0002499999991414,,,,,,,,,,,,szj,f,20,2024_Apr_12_1645,mian,2021.2.3,60.002004066915774,
a9,2,2,9.0,a,"[0.2, -0.2]",,,,,,,,,,,,,,,,,,,,0,3,3,3,,,,,,,,,,,,,,,,,a,1,0.7223018000004231,,,,,,,,,,,,szj,f,20,2024_Apr_12_1645,mian,2021.2.3,60.002004066915774,
E7,1,1,E,a,"[0.2, 0.2]",,,,,,,,,,,,,,,,,,,,0,4,4,4,,,,,,,,,,,,,,,,,a,1,0.4530101000000286,,,,,,,,,,,,szj,f,20,2024_Apr_12_1645,mian,2021.2.3,60.002004066915774,
6h,1,2,h,l,"[-0.2, 0.2]",,,,,,,,,,,,,,,,,,,,0,5,5,5,,,,,,,,,,,,,,,,,l,1,0.5752855999999156,,,,,,,,,,,,szj,f,20,2024_Apr_12_1645,mian,2021.2.3,60.002004066915774,
8A,2,1,8.0,l,"[-0.2, -0.2]",,,,,,,,,,,,,,,,,,,,0,6,6,6,,,,,,,,,,,,,,,,,l,1,0.5252386000011029,,,,,,,,,,,,szj,f,20,2024_Apr_12_1645,mian,2021.2.3,60.002004066915774,
f5,2,2,5.0,a,"[0.2, -0.2]",,,,,,,,,,,,,,,,,,,,0,7,7,7,,,,,,,,,,,,,,,,,a,1,0.628212400000848,,,,,,,,,,,,szj,f,20,2024_Apr_12_1645,mian,2021.2.3,60.002004066915774,
2a,1,1,a,l,"[0.2, 0.2]",,,,,,,,,,,,,,,,,,,,0,8,8,8,,,,,,,,,,,,,,,,,l,1,0.6755723000005673,,,,,,,,,,,,szj,f,20,2024_Apr_12_1645,mian,2021.2.3,60.002004066915774,
F7,1,2,F,a,"[-0.2, 0.2]",,,,,,,,,,,,,,,,,,,,0,9,9,9,,,,,,,,,,,,,,,,,a,1,0.5253813999988779,,,,,,,,,,,,szj,f,20,2024_Apr_12_1645,mian,2021.2.3,60.002004066915774,
h2,2,1,2.0,l,"[-0.2, -0.2]",,,,,,,,,,,,,,,,,,,,0,10,10,10,,,,,,,,,,,,,,,,,l,1,0.6152504999990924,,,,,,,,,,,,szj,f,20,2024_Apr_12_1645,mian,2021.2.3,60.002004066915774,
F5,2,2,5.0,a,"[0.2, -0.2]",,,,,,,,,,,,,,,,,,,,0,11,11,11,,,,,,,,,,,,,,,,,a,1,0.520412199999555,,,,,,,,,,,,szj,f,20,2024_Apr_12_1645,mian,2021.2.3,60.002004066915774,
A9,1,1,A,a,"[0.2, 0.2]",,,,,,,,,,,,,,,,,,,,0,12,12,12,,,,,,,,,,,,,,,,,a,1,1.4971929000003001,,,,,,,,,,,,szj,f,20,2024_Apr_12_1645,mian,2021.2.3,60.002004066915774,
3e,1,2,e,l,"[-0.2, 0.2]",,,,,,,,,,,,,,,,,,,,0,13,13,13,,,,,,,,,,,,,,,,,l,1,0.8899214000011852,,,,,,,,,,,,szj,f,20,2024_Apr_12_1645,mian,2021.2.3,60.002004066915774,
f8,2,1,8.0,l,"[-0.2, -0.2]",,,,,,,,,,,,,,,,,,,,0,14,14,14,,,,,,,,,,,,,,,,,l,1,0.6501227999997354,,,,,,,,,,,,szj,f,20,2024_Apr_12_1645,mian,2021.2.3,60.002004066915774,
G2,2,2,2.0,l,"[0.2, -0.2]",,,,,,,,,,,,,,,,,,,,0,15,15,15,,,,,,,,,,,,,,,,,l,1,0.5711919999994279,,,,,,,,,,,,szj,f,20,2024_Apr_12_1645,mian,2021.2.3,60.002004066915774,
F2,1,1,F,a,"[0.2, 0.2]",,,,,,,,,,,,,,,,,,,,0,16,16,16,,,,,,,,,,,,,,,,,a,1,0.49164290000044275,,,,,,,,,,,,szj,f,20,2024_Apr_12_1645,mian,2021.2.3,60.002004066915774,
5e,1,2,e,l,"[-0.2, 0.2]",,,,,,,,,,,,,,,,,,,,0,17,17,17,,,,,,,,,,,,,,,,,l,1,0.8938271999995777,,,,,,,,,,,,szj,f,20,2024_Apr_12_1645,mian,2021.2.3,60.002004066915774,
A3,2,1,3.0,a,"[-0.2, -0.2]",,,,,,,,,,,,,,,,,,,,0,18,18,18,,,,,,,,,,,,,,,,,a,1,1.4400739000011527,,,,,,,,,,,,szj,f,20,2024_Apr_12_1645,mian,2021.2.3,60.002004066915774,
4g,2,2,4.0,l,"[0.2, -0.2]",,,,,,,,,,,,,,,,,,,,0,19,19,19,,,,,,,,,,,,,,,,,l,1,0.6509877999997116,,,,,,,,,,,,szj,f,20,2024_Apr_12_1645,mian,2021.2.3,60.002004066915774,
h7,1,1,h,l,"[0.2, 0.2]",,,,,,,,,,,,,,,,,,,,0,20,20,20,,,,,,,,,,,,,,,,,l,1,0.8837518000000273,,,,,,,,,,,,szj,f,20,2024_Apr_12_1645,mian,2021.2.3,60.002004066915774,
3g,1,2,g,l,"[-0.2, 0.2]",,,,,,,,,,,,,,,,,,,,0,21,21,21,,,,,,,,,,,,,,,,,l,1,0.5589721000014833,,,,,,,,,,,,szj,f,20,2024_Apr_12_1645,mian,2021.2.3,60.002004066915774,
8a,2,1,8.0,l,"[-0.2, -0.2]",,,,,,,,,,,,,,,,,,,,0,22,22,22,,,,,,,,,,,,,,,,,l,1,0.6621493000002374,,,,,,,,,,,,szj,f,20,2024_Apr_12_1645,mian,2021.2.3,60.002004066915774,
4E,2,2,4.0,l,"[0.2, -0.2]",,,,,,,,,,,,,,,,,,,,0,23,23,23,,,,,,,,,,,,,,,,,l,1,0.7831095000001369,,,,,,,,,,,,szj,f,20,2024_Apr_12_1645,mian,2021.2.3,60.002004066915774,
E5,1,1,E,a,"[0.2, 0.2]",,,,,,,,,,,,,,,,,,,,0,24,24,24,,,,,,,,,,,,,,,,,a,1,0.6791700999983732,,,,,,,,,,,,szj,f,20,2024_Apr_12_1645,mian,2021.2.3,60.002004066915774,
g6,1,2,g,l,"[-0.2, 0.2]",,,,,,,,,,,,,,,,,,,,0,25,25,25,,,,,,,,,,,,,,,,,l,1,1.029788900001222,,,,,,,,,,,,szj,f,20,2024_Apr_12_1645,mian,2021.2.3,60.002004066915774,
2e,2,1,2.0,l,"[-0.2, -0.2]",,,,,,,,,,,,,,,,,,,,0,26,26,26,,,,,,,,,,,,,,,,,l,1,0.6205356999998912,,,,,,,,,,,,szj,f,20,2024_Apr_12_1645,mian,2021.2.3,60.002004066915774,
h8,2,2,8.0,l,"[0.2, -0.2]",,,,,,,,,,,,,,,,,,,,0,27,27,27,,,,,,,,,,,,,,,,,l,1,0.619070599999759,,,,,,,,,,,,szj,f,20,2024_Apr_12_1645,mian,2021.2.3,60.002004066915774,
G6,1,1,G,a,"[0.2, 0.2]",,,,,,,,,,,,,,,,,,,,0,28,28,28,,,,,,,,,,,,,,,,,a,1,0.6306815999996616,,,,,,,,,,,,szj,f,20,2024_Apr_12_1645,mian,2021.2.3,60.002004066915774,
a4,1,2,a,l,"[-0.2, 0.2]",,,,,,,,,,,,,,,,,,,,0,29,29,29,,,,,,,,,,,,,,,,,l,1,0.7187858000015694,,,,,,,,,,,,szj,f,20,2024_Apr_12_1645,mian,2021.2.3,60.002004066915774,
9H,2,1,9.0,a,"[-0.2, -0.2]",,,,,,,,,,,,,,,,,,,,0,30,30,30,,,,,,,,,,,,,,,,,a,1,2.035735100000238,,,,,,,,,,,,szj,f,20,2024_Apr_12_1645,mian,2021.2.3,60.002004066915774,
7H,2,2,7.0,a,"[0.2, -0.2]",,,,,,,,,,,,,,,,,,,,0,31,31,31,,,,,,,,,,,,,,,,,a,1,0.5928914999985864,,,,,,,,,,,,szj,f,20,2024_Apr_12_1645,mian,2021.2.3,60.002004066915774,
9f,1,1,f,l,"[0.2, 0.2]",,,,,,,,,,,,,,,,,,,,0,32,32,32,,,,,,,,,,,,,,,,,l,1,0.5751158000002761,,,,,,,,,,,,szj,f,20,2024_Apr_12_1645,mian,2021.2.3,60.002004066915774,
8E,1,2,E,a,"[-0.2, 0.2]",,,,,,,,,,,,,,,,,,,,0,33,33,33,,,,,,,,,,,,,,,,,a,1,0.579646899999716,,,,,,,,,,,,szj,f,20,2024_Apr_12_1645,mian,2021.2.3,60.002004066915774,
A2,2,1,2.0,l,"[-0.2, -0.2]",,,,,,,,,,,,,,,,,,,,0,34,34,34,,,,,,,,,,,,,,,,,l,1,1.0719519000012951,,,,,,,,,,,,szj,f,20,2024_Apr_12_1645,mian,2021.2.3,60.002004066915774,
H7,2,2,7.0,a,"[0.2, -0.2]",,,,,,,,,,,,,,,,,,,,0,35,35,35,,,,,,,,,,,,,,,,,a,1,2.3080446000003576,,,,,,,,,,,,szj,f,20,2024_Apr_12_1645,mian,2021.2.3,60.002004066915774,
h9,1,1,h,l,"[0.2, 0.2]",,,,,,,,,,,,,,,,,,,,0,36,36,36,,,,,,,,,,,,,,,,,l,1,0.7113449999997101,,,,,,,,,,,,szj,f,20,2024_Apr_12_1645,mian,2021.2.3,60.002004066915774,
8G,1,2,G,a,"[-0.2, 0.2]",,,,,,,,,,,,,,,,,,,,0,37,37,37,,,,,,,,,,,,,,,,,a,1,0.6023129000004701,,,,,,,,,,,,szj,f,20,2024_Apr_12_1645,mian,2021.2.3,60.002004066915774,
H4,2,1,4.0,l,"[-0.2, -0.2]",,,,,,,,,,,,,,,,,,,,0,38,38,38,,,,,,,,,,,,,,,,,l,1,1.118078700001206,,,,,,,,,,,,szj,f,20,2024_Apr_12_1645,mian,2021.2.3,60.002004066915774,
A8,2,2,8.0,l,"[0.2, -0.2]",,,,,,,,,,,,,,,,,,,,0,39,39,39,,,,,,,,,,,,,,,,,l,1,0.6188062000001082,,,,,,,,,,,,szj,f,20,2024_Apr_12_1645,mian,2021.2.3,60.002004066915774,
g7,1,1,g,l,"[0.2, 0.2]",,,,,,,,,,,,,,,,,,,,0,40,40,40,,,,,,,,,,,,,,,,,l,1,1.0034316000001127,,,,,,,,,,,,szj,f,20,2024_Apr_12_1645,mian,2021.2.3,60.002004066915774,
H9,1,2,H,a,"[-0.2, 0.2]",,,,,,,,,,,,,,,,,,,,0,41,41,41,,,,,,,,,,,,,,,,,a,1,0.6385379999992438,,,,,,,,,,,,szj,f,20,2024_Apr_12_1645,mian,2021.2.3,60.002004066915774,
9E,2,1,9.0,a,"[-0.2, -0.2]",,,,,,,,,,,,,,,,,,,,0,42,42,42,,,,,,,,,,,,,,,,,a,1,0.8197725999998511,,,,,,,,,,,,szj,f,20,2024_Apr_12_1645,mian,2021.2.3,60.002004066915774,
a5,2,2,5.0,a,"[0.2, -0.2]",,,,,,,,,,,,,,,,,,,,0,43,43,43,,,,,,,,,,,,,,,,,a,1,0.6713385000002745,,,,,,,,,,,,szj,f,20,2024_Apr_12_1645,mian,2021.2.3,60.002004066915774,
3E,1,1,E,a,"[0.2, 0.2]",,,,,,,,,,,,,,,,,,,,0,44,44,44,,,,,,,,,,,,,,,,,a,1,0.8562087999998766,,,,,,,,,,,,szj,f,20,2024_Apr_12_1645,mian,2021.2.3,60.002004066915774,
6f,1,2,f,l,"[-0.2, 0.2]",,,,,,,,,,,,,,,,,,,,0,45,45,45,,,,,,,,,,,,,,,,,l,1,1.4642640999991272,,,,,,,,,,,,szj,f,20,2024_Apr_12_1645,mian,2021.2.3,60.002004066915774,
g8,2,1,8.0,l,"[-0.2, -0.2]",,,,,,,,,,,,,,,,,,,,0,46,46,46,,,,,,,,,,,,,,,,,l,1,0.5285084999995888,,,,,,,,,,,,szj,f,20,2024_Apr_12_1645,mian,2021.2.3,60.002004066915774,
4F,2,2,4.0,l,"[0.2, -0.2]",,,,,,,,,,,,,,,,,,,,0,47,47,47,,,,,,,,,,,,,,,,,l,1,0.5682441999997536,,,,,,,,,,,,szj,f,20,2024_Apr_12_1645,mian,2021.2.3,60.002004066915774,
4a,1,1,a,l,"[0.2, 0.2]",,,,,,,,,,,,,,,,,,,,0,48,48,48,,,,,,,,,,,,,,,,,l,1,0.880731499999456,,,,,,,,,,,,szj,f,20,2024_Apr_12_1645,mian,2021.2.3,60.002004066915774,
e3,1,2,e,l,"[-0.2, 0.2]",,,,,,,,,,,,,,,,,,,,0,49,49,49,,,,,,,,,,,,,,,,,l,1,0.6353318999990734,,,,,,,,,,,,szj,f,20,2024_Apr_12_1645,mian,2021.2.3,60.002004066915774,
5g,2,1,5.0,a,"[-0.2, -0.2]",,,,,,,,,,,,,,,,,,,,0,50,50,50,,,,,,,,,,,,,,,,,l,0,0.561793700000635,,,,,,,,,,,,szj,f,20,2024_Apr_12_1645,mian,2021.2.3,60.002004066915774,
f4,2,2,4.0,l,"[0.2, -0.2]",,,,,,,,,,,,,,,,,,,,0,51,51,51,,,,,,,,,,,,,,,,,l,1,1.2625427000002674,,,,,,,,,,,,szj,f,20,2024_Apr_12_1645,mian,2021.2.3,60.002004066915774,
6E,1,1,E,a,"[0.2, 0.2]",,,,,,,,,,,,,,,,,,,,0,52,52,52,,,,,,,,,,,,,,,,,a,1,0.6676996000005602,,,,,,,,,,,,szj,f,20,2024_Apr_12_1645,mian,2021.2.3,60.002004066915774,
7A,1,2,A,a,"[-0.2, 0.2]",,,,,,,,,,,,,,,,,,,,0,53,53,53,,,,,,,,,,,,,,,,,a,1,1.4005455000005895,,,,,,,,,,,,szj,f,20,2024_Apr_12_1645,mian,2021.2.3,60.002004066915774,
F4,2,1,4.0,l,"[-0.2, -0.2]",,,,,,,,,,,,,,,,,,,,0,54,54,54,,,,,,,,,,,,,,,,,l,1,1.9005676999986463,,,,,,,,,,,,szj,f,20,2024_Apr_12_1645,mian,2021.2.3,60.002004066915774,
2g,2,2,2.0,l,"[0.2, -0.2]",,,,,,,,,,,,,,,,,,,,0,55,55,55,,,,,,,,,,,,,,,,,l,1,1.2093770999999833,,,,,,,,,,,,szj,f,20,2024_Apr_12_1645,mian,2021.2.3,60.002004066915774,
7E,1,1,E,a,"[0.2, 0.2]",,,,,,,,,,,,,,,,,,,,0,56,56,56,,,,,,,,,,,,,,,,,a,1,0.6355773000013869,,,,,,,,,,,,szj,f,20,2024_Apr_12_1645,mian,2021.2.3,60.002004066915774,
G4,1,2,G,a,"[-0.2, 0.2]",,,,,,,,,,,,,,,,,,,,0,57,57,57,,,,,,,,,,,,,,,,,a,1,0.6245577999998204,,,,,,,,,,,,szj,f,20,2024_Apr_12_1645,mian,2021.2.3,60.002004066915774,
2F,2,1,2.0,l,"[-0.2, -0.2]",,,,,,,,,,,,,,,,,,,,0,58,58,58,,,,,,,,,,,,,,,,,l,1,1.7444193999999698,,,,,,,,,,,,szj,f,20,2024_Apr_12_1645,mian,2021.2.3,60.002004066915774,
E9,2,2,9.0,a,"[0.2, -0.2]",,,,,,,,,,,,,,,,,,,,0,59,59,59,,,,,,,,,,,,,,,,,a,1,1.1174131999996462,,,,,,,,,,,,szj,f,20,2024_Apr_12_1645,mian,2021.2.3,60.002004066915774,
5f,1,1,f,l,"[0.2, 0.2]",,,,,,,,,,,,,,,,,,,,0,60,60,60,,,,,,,,,,,,,,,,,l,1,0.9841360000009445,,,,,,,,,,,,szj,f,20,2024_Apr_12_1645,mian,2021.2.3,60.002004066915774,
e7,1,2,e,l,"[-0.2, 0.2]",,,,,,,,,,,,,,,,,,,,0,61,61,61,,,,,,,,,,,,,,,,,l,1,1.4783391999990272,,,,,,,,,,,,szj,f,20,2024_Apr_12_1645,mian,2021.2.3,60.002004066915774,
f2,2,1,2.0,l,"[-0.2, -0.2]",,,,,,,,,,,,,,,,,,,,0,62,62,62,,,,,,,,,,,,,,,,,l,1,1.501023400000122,,,,,,,,,,,,szj,f,20,2024_Apr_12_1645,mian,2021.2.3,60.002004066915774,
G9,2,2,9.0,a,"[0.2, -0.2]",,,,,,,,,,,,,,,,,,,,0,63,63,63,,,,,,,,,,,,,,,,,a,1,0.6806139000000258,,,,,,,,,,,,szj,f,20,2024_Apr_12_1645,mian,2021.2.3,60.002004066915774,
7g,1,1,g,l,"[0.2, 0.2]",,,,,,,,,,,,,,,,,,,,0,64,64,64,,,,,,,,,,,,,,,,,l,1,0.5582783999998355,,,,,,,,,,,,szj,f,20,2024_Apr_12_1645,mian,2021.2.3,60.002004066915774,
F8,1,2,F,a,"[-0.2, 0.2]",,,,,,,,,,,,,,,,,,,,0,65,65,65,,,,,,,,,,,,,,,,,a,1,0.4795745999999781,,,,,,,,,,,,szj,f,20,2024_Apr_12_1645,mian,2021.2.3,60.002004066915774,
A7,2,1,7.0,a,"[-0.2, -0.2]",,,,,,,,,,,,,,,,,,,,0,66,66,66,,,,,,,,,,,,,,,,,a,1,0.7263281000014103,,,,,,,,,,,,szj,f,20,2024_Apr_12_1645,mian,2021.2.3,60.002004066915774,
4G,2,2,4.0,l,"[0.2, -0.2]",,,,,,,,,,,,,,,,,,,,0,67,67,67,,,,,,,,,,,,,,,,,l,1,0.6876651000002312,,,,,,,,,,,,szj,f,20,2024_Apr_12_1645,mian,2021.2.3,60.002004066915774,
g2,1,1,g,l,"[0.2, 0.2]",,,,,,,,,,,,,,,,,,,,0,68,68,68,,,,,,,,,,,,,,,,,l,1,1.092994099999487,,,,,,,,,,,,szj,f,20,2024_Apr_12_1645,mian,2021.2.3,60.002004066915774,
g4,1,2,g,l,"[-0.2, 0.2]",,,,,,,,,,,,,,,,,,,,0,69,69,69,,,,,,,,,,,,,,,,,l,1,1.454802700000073,,,,,,,,,,,,szj,f,20,2024_Apr_12_1645,mian,2021.2.3,60.002004066915774,
7a,2,1,7.0,a,"[-0.2, -0.2]",,,,,,,,,,,,,,,,,,,,0,70,70,70,,,,,,,,,,,,,,,,,a,1,0.9278747999996995,,,,,,,,,,,,szj,f,20,2024_Apr_12_1645,mian,2021.2.3,60.002004066915774,
8e,2,2,8.0,l,"[0.2, -0.2]",,,,,,,,,,,,,,,,,,,,0,71,71,71,,,,,,,,,,,,,,,,,l,1,0.5586376000010205,,,,,,,,,,,,szj,f,20,2024_Apr_12_1645,mian,2021.2.3,60.002004066915774,
h4,1,1,h,l,"[0.2, 0.2]",,,,,,,,,,,,,,,,,,,,0,72,72,72,,,,,,,,,,,,,,,,,l,1,0.5679268999992928,,,,,,,,,,,,szj,f,20,2024_Apr_12_1645,mian,2021.2.3,60.002004066915774,
G8,1,2,G,a,"[-0.2, 0.2]",,,,,,,,,,,,,,,,,,,,0,73,73,73,,,,,,,,,,,,,,,,,a,1,0.5773358000005828,,,,,,,,,,,,szj,f,20,2024_Apr_12_1645,mian,2021.2.3,60.002004066915774,
6F,2,1,6.0,l,"[-0.2, -0.2]",,,,,,,,,,,,,,,,,,,,0,74,74,74,,,,,,,,,,,,,,,,,l,1,1.8450006999992183,,,,,,,,,,,,szj,f,20,2024_Apr_12_1645,mian,2021.2.3,60.002004066915774,
g5,2,2,5.0,a,"[0.2, -0.2]",,,,,,,,,,,,,,,,,,,,0,75,75,75,,,,,,,,,,,,,,,,,a,1,1.584152900000845,,,,,,,,,,,,szj,f,20,2024_Apr_12_1645,mian,2021.2.3,60.002004066915774,
G5,1,1,G,a,"[0.2, 0.2]",,,,,,,,,,,,,,,,,,,,0,76,76,76,,,,,,,,,,,,,,,,,a,1,0.805407899999409,,,,,,,,,,,,szj,f,20,2024_Apr_12_1645,mian,2021.2.3,60.002004066915774,
h5,1,2,h,l,"[-0.2, 0.2]",,,,,,,,,,,,,,,,,,,,0,77,77,77,,,,,,,,,,,,,,,,,l,1,0.6605347999993683,,,,,,,,,,,,szj,f,20,2024_Apr_12_1645,mian,2021.2.3,60.002004066915774,
9G,2,1,9.0,a,"[-0.2, -0.2]",,,,,,,,,,,,,,,,,,,,0,78,78,78,,,,,,,,,,,,,,,,,a,1,0.6881100999999035,,,,,,,,,,,,szj,f,20,2024_Apr_12_1645,mian,2021.2.3,60.002004066915774,
F3,2,2,3.0,a,"[0.2, -0.2]",,,,,,,,,,,,,,,,,,,,0,79,79,79,,,,,,,,,,,,,,,,,a,1,1.1910100000004604,,,,,,,,,,,,szj,f,20,2024_Apr_12_1645,mian,2021.2.3,60.002004066915774,
,,,,,,1,1,pic/flanker5.png,pic/flanker3.png,a,k,,,,,,,,,,,,,,,,,,0,0,0,0,0,0,0,4,,,,,,,,,,,,455.74779619999936,None,454.5608938999994,455.7646698999997,None,0,羡慕,None,0,,,szj,f,20,2024_Apr_12_1645,mian,2021.2.3,60.002004066915774,
,,,,,,0,1,pic/flanker6.png,pic/flanker2.png,a,k,,,,,,,,,,,,,,,,,,0,0,0,0,0,1,1,2,,,,,,,,,,,,461.5979688000007,None,460.4144641999992,461.6146783000004,s,0,吉祥,k,1,1.3037925999997242,1.2995867999998154,szj,f,20,2024_Apr_12_1645,mian,2021.2.3,60.002004066915774,
,,,,,,1,0,pic/flanker5.png,pic/flanker3.png,a,l,,,,,,,,,,,,,,,,,,0,0,0,0,0,2,2,7,,,,,,,,,,,,466.1146052999993,None,464.9311861999995,466.13111860000026,a,1,自卑,l,1,0.9885235999990982,1.0173267999998643,szj,f,20,2024_Apr_12_1645,mian,2021.2.3,60.002004066915774,
,,,,,,1,1,pic/flanker6.png,pic/flanker4.png,s,k,,,,,,,,,,,,,,,,,,0,0,0,0,0,3,3,6,,,,,,,,,,,,469.9312759000004,None,468.747652,469.9477941999994,s,1,热切,k,1,0.7502187999998569,0.8760806999998749,szj,f,20,2024_Apr_12_1645,mian,2021.2.3,60.002004066915774,
,,,,,,0,0,pic/flanker5.png,pic/flanker1.png,s,l,,,,,,,,,,,,,,,,,,0,0,0,0,0,4,4,3,,,,,,,,,,,,473.43120350000027,None,472.24791939999886,473.44798549999905,s,1,悲观,l,1,1.0615620000007766,0.7223563000006834,szj,f,20,2024_Apr_12_1645,mian,2021.2.3,60.002004066915774,
,,,,,,0,1,pic/flanker5.png,pic/flanker1.png,s,k,,,,,,,,,,,,,,,,,,0,0,0,0,0,5,5,0,,,,,,,,,,,,477.1145749999996,None,475.9312848999998,477.13132570000016,s,1,永恒,k,1,0.6148949999987963,0.7417846999996982,szj,f,20,2024_Apr_12_1645,mian,2021.2.3,60.002004066915774,
,,,,,,1,0,pic/flanker6.png,pic/flanker4.png,s,l,,,,,,,,,,,,,,,,,,0,0,0,0,0,6,6,5,,,,,,,,,,,,480.31452419999914,None,479.13118699999904,480.3311933999994,s,1,禁止,l,1,0.5493286000000808,0.7425786000003427,szj,f,20,2024_Apr_12_1645,mian,2021.2.3,60.002004066915774,
,,,,,,0,0,pic/flanker6.png,pic/flanker2.png,a,l,,,,,,,,,,,,,,,,,,0,0,0,0,0,7,7,1,,,,,,,,,,,,483.53114839999944,None,482.3481370999998,483.54785710000033,a,1,落后,l,1,0.6467371999988245,0.7723108999998658,szj,f,20,2024_Apr_12_1645,mian,2021.2.3,60.002004066915774,
,,,,,,,,,,,,,,,,,,,,,,,,,,,,,0,0,0,0,,,,,,,,,,,,,,,,,,,,,,,,,,,szj,f,20,2024_Apr_12_1645,mian,2021.2.3,60.002004066915774,
,,,,,,0,1,pic/flanker6.png,pic/flanker2.png,a,k,,,,,,,,,,,,,,,,,,1,0,1,0,0,0,0,2,,,,,,,,,,,,507.2312686999994,None,506.04242259999955,507.24794909999946,a,1,畅销,k,1,0.5935323000012431,0.5662220000012894,szj,f,20,2024_Apr_12_1645,mian,2021.2.3,60.002004066915774,
,,,,,,0,1,pic/flanker5.png,pic/flanker1.png,s,k,,,,,,,,,,,,,,,,,,1,0,1,0,0,1,1,0,,,,,,,,,,,,510.36459599999944,None,509.1812957000002,510.3811666999991,s,1,如愿,k,1,0.47565020000001823,0.6810173999983817,szj,f,20,2024_Apr_12_1645,mian,2021.2.3,60.002004066915774,
,,,,,,1,0,pic/flanker5.png,pic/flanker3.png,a,l,,,,,,,,,,,,,,,,,,1,0,1,0,0,2,2,7,,,,,,,,,,,,513.3979460999999,None,512.2145043,513.4146261000005,a,1,排斥,l,1,0.4523515999990195,0.5745148999994854,szj,f,20,2024_Apr_12_1645,mian,2021.2.3,60.002004066915774,
,,,,,,0,0,pic/flanker5.png,pic/flanker1.png,s,l,,,,,,,,,,,,,,,,,,1,0,1,0,0,3,3,3,,,,,,,,,,,,516.4645963999992,None,515.2810798999999,516.4810744000006,s,1,消沉,l,1,0.5386608999997406,0.6616974999997183,szj,f,20,2024_Apr_12_1645,mian,2021.2.3,60.002004066915774,
,,,,,,0,0,pic/flanker6.png,pic/flanker2.png,a,l,,,,,,,,,,,,,,,,,,1,0,1,0,0,4,4,1,,,,,,,,,,,,519.5979972000005,None,518.414632,519.6146857000003,a,1,轻率,k,0,0.5279785999991873,1.1667798999988008,szj,f,20,2024_Apr_12_1645,mian,2021.2.3,60.002004066915774,
,,,,,,1,0,pic/flanker6.png,pic/flanker4.png,s,l,,,,,,,,,,,,,,,,,,1,0,1,0,0,5,5,5,,,,,,,,,,,,523.3479697000002,None,522.1644218999991,523.3647232999992,s,1,郁闷,l,1,0.6695810999990499,0.6646095000014611,szj,f,20,2024_Apr_12_1645,mian,2021.2.3,60.002004066915774,
,,,,,,1,1,pic/flanker5.png,pic/flanker3.png,a,k,,,,,,,,,,,,,,,,,,1,0,1,0,0,6,6,4,,,,,,,,,,,,526.5146354999997,None,525.3312719000005,526.5313318999997,a,1,吉祥,k,1,0.6380625000001601,0.6726631000001362,szj,f,20,2024_Apr_12_1645,mian,2021.2.3,60.002004066915774,
,,,,,,1,1,pic/flanker6.png,pic/flanker4.png,s,k,,,,,,,,,,,,,,,,,,1,0,1,0,0,7,7,6,,,,,,,,,,,,529.8147011000001,None,528.6312698999991,529.8312241999993,s,1,秀丽,k,1,0.653318799999397,0.9214035999993939,szj,f,20,2024_Apr_12_1645,mian,2021.2.3,60.002004066915774,
,,,,,,,,,,,,,,,,,,,,,,,,,,,,,1,0,1,0,,,,,,,,,,,,,,,,,,,,,,,,,,,szj,f,20,2024_Apr_12_1645,mian,2021.2.3,60.002004066915774,
,,,,,,1,0,pic/flanker6.png,pic/flanker4.png,s,l,pic/AffRest1.png,,,,,,,,,,,,,,,,,,,,,,,,,0,0,0,0,0,0,0,29,,,,538.3313562999992,None,537.1437117000005,538.3478966999992,s,1,焦躁,l,1,0.4966463999990083,0.5600259000002552,szj,f,20,2024_Apr_12_1645,mian,2021.2.3,60.002004066915774,
,,,,,,0,1,pic/flanker5.png,pic/flanker1.png,s,k,pic/AffRest1.png,,,,,,,,,,,,,,,,,,,,,,,,,0,0,0,0,0,1,1,32,,,,541.3146125000003,None,540.1313821999993,541.3313660000003,s,1,敬佩,k,1,0.6967147000013938,0.5602328999993915,szj,f,20,2024_Apr_12_1645,mian,2021.2.3,60.002004066915774,
,,,,,,1,0,pic/flanker6.png,pic/flanker4.png,s,l,pic/AffRest1.png,,,,,,,,,,,,,,,,,,,,,,,,,0,0,0,0,0,2,2,37,,,,544.5480200999991,None,543.3641398999989,544.5646467000006,s,1,处罚,l,1,0.424859100001413,0.5084666999991896,szj,f,20,2024_Apr_12_1645,mian,2021.2.3,60.002004066915774,
,,,,,,0,0,pic/flanker5.png,pic/flanker1.png,s,l,pic/AffRest1.png,,,,,,,,,,,,,,,,,,,,,,,,,0,0,0,0,0,3,3,67,,,,547.3308503999997,None,546.1478958999996,547.3473491000004,s,1,逃避,l,1,0.5229441999999835,0.5162531999994826,szj,f,20,2024_Apr_12_1645,mian,2021.2.3,60.002004066915774,
,,,,,,0,1,pic/flanker6.png,pic/flanker2.png,a,k,pic/AffRest1.png,,,,,,,,,,,,,,,,,,,,,,,,,0,0,0,0,0,4,4,26,,,,550.3480149999996,None,549.1644596000006,550.3640400999993,a,1,丰满,k,1,0.6220227999983763,0.5326513999989402,szj,f,20,2024_Apr_12_1645,mian,2021.2.3,60.002004066915774,
,,,,,,1,0,pic/flanker6.png,pic/flanker4.png,s,l,pic/AffRest1.png,,,,,,,,,,,,,,,,,,,,,,,,,0,0,0,0,0,5,5,5,,,,553.4311111000006,None,552.2480384999999,553.4479871000003,s,1,懒惰,l,1,0.42080189999978757,0.5047582999995939,szj,f,20,2024_Apr_12_1645,mian,2021.2.3,60.002004066915774,
,,,,,,1,1,pic/flanker5.png,pic/flanker3.png,a,k,pic/AffRest1.png,,,,,,,,,,,,,,,,,,,,,,,,,0,0,0,0,0,6,6,68,,,,556.3973449000005,None,555.2146039999989,556.4140153999997,a,1,优雅,k,1,0.4943837999999232,0.4668781000000308,szj,f,20,2024_Apr_12_1645,mian,2021.2.3,60.002004066915774,
,,,,,,0,0,pic/flanker5.png,pic/flanker1.png,s,l,pic/AffRest1.png,,,,,,,,,,,,,,,,,,,,,,,,,0,0,0,0,0,7,7,35,,,,559.3145786000005,None,558.131121299999,559.33115,s,1,失意,l,1,0.6709086000009847,0.5010856999997486,szj,f,20,2024_Apr_12_1645,mian,2021.2.3,60.002004066915774,
,,,,,,1,0,pic/flanker5.png,pic/flanker3.png,a,l,pic/AffRest1.png,,,,,,,,,,,,,,,,,,,,,,,,,0,0,0,0,0,8,8,23,,,,562.5479438999992,None,561.3646607999999,562.5646359999992,a,1,心慌,l,1,0.4623996000009356,0.5928218999997625,szj,f,20,2024_Apr_12_1645,mian,2021.2.3,60.002004066915774,
,,,,,,0,1,pic/flanker5.png,pic/flanker1.png,s,k,pic/AffRest1.png,,,,,,,,,,,,,,,,,,,,,,,,,0,0,0,0,0,9,9,64,,,,565.4313333999999,None,564.248046499999,565.4479766000004,s,1,瑰丽,k,1,0.5848714000003383,0.6146886000005907,szj,f,20,2024_Apr_12_1645,mian,2021.2.3,60.002004066915774,
,,,,,,1,1,pic/flanker5.png,pic/flanker3.png,a,k,pic/AffRest1.png,,,,,,,,,,,,,,,,,,,,,,,,,0,0,0,0,0,10,10,60,,,,568.5140647999997,None,567.3313122,568.5309304999992,a,1,羡慕,k,1,0.43642929999987246,0.8182839000000968,szj,f,20,2024_Apr_12_1645,mian,2021.2.3,60.002004066915774,
,,,,,,0,1,pic/flanker5.png,pic/flanker1.png,s,k,pic/AffRest1.png,,,,,,,,,,,,,,,,,,,,,,,,,0,0,0,0,0,11,11,48,,,,571.6980334,None,570.5148262999992,571.7140846000002,s,1,正直,k,1,0.771951300001092,0.6696997999988525,szj,f,20,2024_Apr_12_1645,mian,2021.2.3,60.002004066915774,
,,,,,,1,0,pic/flanker5.png,pic/flanker3.png,a,l,pic/AffRest1.png,,,,,,,,,,,,,,,,,,,,,,,,,0,0,0,0,0,12,12,7,,,,575.1479507000004,None,573.9647208999995,575.1646536999997,a,1,自卑,l,1,0.5911650999987614,0.5474182999987534,szj,f,20,2024_Apr_12_1645,mian,2021.2.3,60.002004066915774,
,,,,,,0,0,pic/flanker6.png,pic/flanker2.png,a,l,pic/AffRest1.png,,,,,,,,,,,,,,,,,,,,,,,,,0,0,0,0,0,13,13,25,,,,578.1647054999994,None,576.981325499999,578.1812367000002,a,1,罚款,l,1,0.6478799999986222,0.6274129000012181,szj,f,20,2024_Apr_12_1645,mian,2021.2.3,60.002004066915774,
,,,,,,0,0,pic/flanker6.png,pic/flanker2.png,a,l,pic/AffRest1.png,,,,,,,,,,,,,,,,,,,,,,,,,0,0,0,0,0,14,14,73,,,,581.481372799999,None,580.2979350999994,581.498012099999,a,1,撒谎,l,1,0.7437785000001895,0.6092372000002797,szj,f,20,2024_Apr_12_1645,mian,2021.2.3,60.002004066915774,
,,,,,,1,0,pic/flanker6.png,pic/flanker4.png,s,l,pic/AffRest1.png,,,,,,,,,,,,,,,,,,,,,,,,,0,0,0,0,0,15,15,53,,,,584.7641191999992,None,583.5814570000002,584.7807209999992,s,1,黑暗,l,1,0.5062219999999797,0.5628422000008868,szj,f,20,2024_Apr_12_1645,mian,2021.2.3,60.002004066915774,
,,,,,,0,0,pic/flanker6.png,pic/flanker2.png,a,l,pic/AffRest1.png,,,,,,,,,,,,,,,,,,,,,,,,,0,0,0,0,0,16,16,33,,,,587.7813980999999,None,586.5977162999989,587.7981483000003,a,1,杂乱,l,1,0.5938762000005227,0.5923144999997021,szj,f,20,2024_Apr_12_1645,mian,2021.2.3,60.002004066915774,
,,,,,,1,0,pic/flanker5.png,pic/flanker3.png,a,l,pic/AffRest1.png,,,,,,,,,,,,,,,,,,,,,,,,,0,0,0,0,0,17,17,63,,,,590.9813209000004,None,589.7980905999993,590.9980178999995,a,1,忧虑,l,1,0.7410187000004953,0.8034564999998111,szj,f,20,2024_Apr_12_1645,mian,2021.2.3,60.002004066915774,
,,,,,,0,1,pic/flanker5.png,pic/flanker1.png,s,k,pic/AffRest1.png,,,,,,,,,,,,,,,,,,,,,,,,,0,0,0,0,0,18,18,56,,,,594.4480832999998,None,593.2642813000002,594.4646837,s,1,雄厚,k,1,0.7107749999995576,0.7979125000001659,szj,f,20,2024_Apr_12_1645,mian,2021.2.3,60.002004066915774,
,,,,,,1,1,pic/flanker5.png,pic/flanker3.png,a,k,pic/AffRest1.png,,,,,,,,,,,,,,,,,,,,,,,,,0,0,0,0,0,19,19,20,,,,597.8646759999992,None,596.6812332999998,597.8814564999993,a,1,留恋,k,1,0.5010169999986829,0.922798800000237,szj,f,20,2024_Apr_12_1645,mian,2021.2.3,60.002004066915774,
,,,,,,1,0,pic/flanker6.png,pic/flanker4.png,s,l,pic/AffRest1.png,,,,,,,,,,,,,,,,,,,,,,,,,0,0,0,0,0,20,20,13,,,,601.1313783000005,None,599.9480232999995,601.1479999000003,s,1,烦恼,l,1,0.48913919999904465,0.5997413000004599,szj,f,20,2024_Apr_12_1645,mian,2021.2.3,60.002004066915774,
,,,,,,1,0,pic/flanker6.png,pic/flanker4.png,s,l,pic/AffRest1.png,,,,,,,,,,,,,,,,,,,,,,,,,0,0,0,0,0,21,21,45,,,,604.081541399999,None,602.8982168999992,604.0980854999998,s,1,消沉,l,1,0.4667917999995552,0.5930474000015238,szj,f,20,2024_Apr_12_1645,mian,2021.2.3,60.002004066915774,
,,,,,,1,0,pic/flanker6.png,pic/flanker4.png,s,l,pic/AffRest1.png,,,,,,,,,,,,,,,,,,,,,,,,,0,0,0,0,0,22,22,69,,,,607.0313141999995,None,605.8480543000005,607.0480506999993,s,1,冷笑,l,1,0.44755280000026687,0.7267575999994733,szj,f,20,2024_Apr_12_1645,mian,2021.2.3,60.002004066915774,
,,,,,,0,0,pic/flanker6.png,pic/flanker2.png,a,l,pic/AffRest1.png,,,,,,,,,,,,,,,,,,,,,,,,,0,0,0,0,0,23,23,57,,,,610.0648812999989,None,608.8814153000003,610.0816281000007,a,1,穷苦,l,1,0.44281909999881464,0.8302440000006754,szj,f,20,2024_Apr_12_1645,mian,2021.2.3,60.002004066915774,
,,,,,,0,1,pic/flanker6.png,pic/flanker2.png,a,k,pic/AffRest1.png,,,,,,,,,,,,,,,,,,,,,,,,,0,0,0,0,0,24,24,34,,,,613.1982289999996,None,612.0148716000003,613.2148885000006,a,1,豪放,k,1,0.6010630000000674,0.9099267000001419,szj,f,20,2024_Apr_12_1645,mian,2021.2.3,60.002004066915774,
,,,,,,1,0,pic/flanker6.png,pic/flanker4.png,s,l,pic/AffRest1.png,,,,,,,,,,,,,,,,,,,,,,,,,0,0,0,0,0,25,25,61,,,,616.6974936999995,None,615.5140575999994,616.7142535000003,s,1,鲁莽,l,1,0.5601409999999305,0.7624790999998368,szj,f,20,2024_Apr_12_1645,mian,2021.2.3,60.002004066915774,
,,,,,,0,1,pic/flanker5.png,pic/flanker1.png,s,k,pic/AffRest1.png,,,,,,,,,,,,,,,,,,,,,,,,,0,0,0,0,0,26,26,40,,,,619.9480418000003,None,618.764667899999,619.9647905999991,s,1,爽朗,k,1,0.6873286999998527,0.6648093999992852,szj,f,20,2024_Apr_12_1645,mian,2021.2.3,60.002004066915774,
,,,,,,1,0,pic/flanker5.png,pic/flanker3.png,a,l,pic/AffRest1.png,,,,,,,,,,,,,,,,,,,,,,,,,0,0,0,0,0,27,27,47,,,,623.1481361000006,None,621.9645672000006,623.1647329999996,a,1,损害,l,1,0.643457699999999,0.5901548999991064,szj,f,20,2024_Apr_12_1645,mian,2021.2.3,60.002004066915774,
,,,,,,1,0,pic/flanker5.png,pic/flanker3.png,a,l,pic/AffRest1.png,,,,,,,,,,,,,,,,,,,,,,,,,0,0,0,0,0,28,28,15,,,,626.4145331999989,None,625.2314346999992,626.4315647999993,a,1,悲观,l,1,0.4923588000001473,0.6077972999992198,szj,f,20,2024_Apr_12_1645,mian,2021.2.3,60.002004066915774,
,,,,,,0,0,pic/flanker5.png,pic/flanker1.png,s,l,pic/AffRest1.png,,,,,,,,,,,,,,,,,,,,,,,,,0,0,0,0,0,29,29,27,,,,629.498099299999,None,628.314780499999,629.514787099999,s,1,胡涂,l,1,0.5789531999998871,0.5499829999989743,szj,f,20,2024_Apr_12_1645,mian,2021.2.3,60.002004066915774,
,,,,,,1,1,pic/flanker5.png,pic/flanker3.png,a,k,pic/AffRest1.png,,,,,,,,,,,,,,,,,,,,,,,,,0,0,0,0,0,30,30,36,,,,632.5313550999999,None,631.3479785999989,632.5480064000003,a,1,舒畅,k,1,0.49163100000077975,0.6972705000007409,szj,f,20,2024_Apr_12_1645,mian,2021.2.3,60.002004066915774,
,,,,,,1,1,pic/flanker5.png,pic/flanker3.png,a,k,pic/AffRest1.png,,,,,,,,,,,,,,,,,,,,,,,,,0,0,0,0,0,31,31,28,,,,635.6481435000005,None,634.4647198000002,635.6647527999994,a,1,畅销,k,1,0.5453103999989253,0.5964196999993874,szj,f,20,2024_Apr_12_1645,mian,2021.2.3,60.002004066915774,
,,,,,,1,1,pic/flanker6.png,pic/flanker4.png,s,k,pic/AffRest1.png,,,,,,,,,,,,,,,,,,,,,,,,,0,0,0,0,0,32,32,70,,,,638.6147168000007,None,637.4312740000005,638.6314667999995,s,1,典雅,k,1,0.4980138999999326,0.5568418999991991,szj,f,20,2024_Apr_12_1645,mian,2021.2.3,60.002004066915774,
,,,,,,1,0,pic/flanker5.png,pic/flanker3.png,a,l,pic/AffRest1.png,,,,,,,,,,,,,,,,,,,,,,,,,0,0,0,0,0,33,33,39,,,,641.5645920999996,None,640.3813764999995,641.5815192999999,a,1,伤心,l,1,0.5025301000005129,0.5696531999983563,szj,f,20,2024_Apr_12_1645,mian,2021.2.3,60.002004066915774,
,,,,,,0,1,pic/flanker6.png,pic/flanker2.png,a,k,pic/AffRest1.png,,,,,,,,,,,,,,,,,,,,,,,,,0,0,0,0,0,34,34,2,,,,644.7314489,None,643.548142399999,644.7480386000007,a,1,吉祥,k,1,0.49618960000043444,0.5704313000005641,szj,f,20,2024_Apr_12_1645,mian,2021.2.3,60.002004066915774,
,,,,,,0,0,pic/flanker5.png,pic/flanker1.png,s,l,pic/AffRest1.png,,,,,,,,,,,,,,,,,,,,,,,,,0,0,0,0,0,35,35,59,,,,647.7980570999989,None,646.6145025999995,647.8148622999997,s,1,孤单,l,1,0.6361683999984962,0.49393009999948845,szj,f,20,2024_Apr_12_1645,mian,2021.2.3,60.002004066915774,
,,,,,,0,0,pic/flanker5.png,pic/flanker1.png,s,l,pic/AffRest1.png,,,,,,,,,,,,,,,,,,,,,,,,,0,0,0,0,0,36,36,43,,,,650.8647646999998,None,649.6813836000001,650.8814356999992,s,1,沮丧,l,1,0.6768134000012651,0.6360883000015747,szj,f,20,2024_Apr_12_1645,mian,2021.2.3,60.002004066915774,
,,,,,,1,1,pic/flanker6.png,pic/flanker4.png,s,k,pic/AffRest1.png,,,,,,,,,,,,,,,,,,,,,,,,,0,0,0,0,0,37,37,38,,,,654.0314364000005,None,652.8482289999993,654.0482353000007,s,1,充裕,k,1,0.5061395000011544,0.5481995999998617,szj,f,20,2024_Apr_12_1645,mian,2021.2.3,60.002004066915774,
,,,,,,1,1,pic/flanker5.png,pic/flanker3.png,a,k,pic/AffRest1.png,,,,,,,,,,,,,,,,,,,,,,,,,0,0,0,0,0,38,38,44,,,,656.9814475000003,None,655.7980504999996,656.9980754999997,a,1,富丽,k,1,0.5628794999993261,0.5702657000001636,szj,f,20,2024_Apr_12_1645,mian,2021.2.3,60.002004066915774,
,,,,,,1,1,pic/flanker5.png,pic/flanker3.png,a,k,pic/AffRest1.png,,,,,,,,,,,,,,,,,,,,,,,,,0,0,0,0,0,39,39,12,,,,659.9481212999999,None,658.7647483000001,659.9647296000003,a,1,奉献,k,1,0.4538176000005478,0.5631317000006675,szj,f,20,2024_Apr_12_1645,mian,2021.2.3,60.002004066915774,
,,,,,,0,1,pic/flanker5.png,pic/flanker1.png,s,k,pic/AffRest1.png,,,,,,,,,,,,,,,,,,,,,,,,,0,0,0,0,0,40,40,8,,,,662.8482678,None,661.6646798999991,662.8649294000006,s,1,如愿,k,1,0.5490076999994926,0.578159599999708,szj,f,20,2024_Apr_12_1645,mian,2021.2.3,60.002004066915774,
,,,,,,0,0,pic/flanker6.png,pic/flanker2.png,a,l,pic/AffRest1.png,,,,,,,,,,,,,,,,,,,,,,,,,0,0,0,0,0,41,41,1,,,,665.9982832999995,None,664.8145009999989,666.0149619999993,a,1,闷热,l,1,0.49051130000043486,0.5810276000011072,szj,f,20,2024_Apr_12_1645,mian,2021.2.3,60.002004066915774,
,,,,,,0,0,pic/flanker6.png,pic/flanker2.png,a,l,pic/AffRest1.png,,,,,,,,,,,,,,,,,,,,,,,,,0,0,0,0,0,42,42,49,,,,669.064867699999,None,667.8815904000003,669.0815077000007,a,1,堵塞,l,1,0.5837577000002057,0.7779843999996956,szj,f,20,2024_Apr_12_1645,mian,2021.2.3,60.002004066915774,
,,,,,,1,0,pic/flanker5.png,pic/flanker3.png,a,l,pic/AffRest1.png,,,,,,,,,,,,,,,,,,,,,,,,,0,0,0,0,0,43,43,55,,,,672.2814770999994,None,671.0978567999991,672.2980912000003,a,1,浪费,l,1,0.6447153000008257,0.6739557000000787,szj,f,20,2024_Apr_12_1645,mian,2021.2.3,60.002004066915774,
,,,,,,0,1,pic/flanker6.png,pic/flanker2.png,a,k,pic/AffRest1.png,,,,,,,,,,,,,,,,,,,,,,,,,0,0,0,0,0,44,44,74,,,,675.5314906999993,None,674.3481601999993,675.5480943999992,a,1,振作,k,1,0.6335920999990776,0.6170111000010365,szj,f,20,2024_Apr_12_1645,mian,2021.2.3,60.002004066915774,
,,,,,,0,1,pic/flanker5.png,pic/flanker1.png,s,k,pic/AffRest1.png,,,,,,,,,,,,,,,,,,,,,,,,,0,0,0,0,0,45,45,24,,,,678.6148465000006,None,677.4314618999997,678.6314423999993,s,1,享受,k,1,0.42299459999958344,0.6060268000001088,szj,f,20,2024_Apr_12_1645,mian,2021.2.3,60.002004066915774,
,,,,,,0,0,pic/flanker5.png,pic/flanker1.png,s,l,pic/AffRest1.png,,,,,,,,,,,,,,,,,,,,,,,,,0,0,0,0,0,46,46,3,,,,681.5314421000003,None,680.348118599999,681.5477845999994,s,1,郁闷,l,1,0.5480076000003464,0.5263157000008505,szj,f,20,2024_Apr_12_1645,mian,2021.2.3,60.002004066915774,
,,,,,,0,0,pic/flanker5.png,pic/flanker1.png,s,l,pic/AffRest1.png,,,,,,,,,,,,,,,,,,,,,,,,,0,0,0,0,0,47,47,19,,,,684.4649076000005,None,683.2814792999998,684.4815988999999,s,1,争吵,l,1,0.4455434999999852,0.5991589000004751,szj,f,20,2024_Apr_12_1645,mian,2021.2.3,60.002004066915774,
,,,,,,0,1,pic/flanker5.png,pic/flanker1.png,s,k,pic/AffRest1.png,,,,,,,,,,,,,,,,,,,,,,,,,0,0,0,0,0,48,48,72,,,,687.5814162000006,None,686.3977145999997,687.5981510000001,s,1,廉洁,k,1,0.5495585999997274,0.9827242000010301,szj,f,20,2024_Apr_12_1645,mian,2021.2.3,60.002004066915774,
,,,,,,0,1,pic/flanker6.png,pic/flanker2.png,a,k,pic/AffRest1.png,,,,,,,,,,,,,,,,,,,,,,,,,0,0,0,0,0,49,49,42,,,,691.0316253000001,None,689.8482469999999,691.0482926000004,a,1,珍藏,k,1,0.4074419000007765,0.5716945000003761,szj,f,20,2024_Apr_12_1645,mian,2021.2.3,60.002004066915774,
,,,,,,0,1,pic/flanker6.png,pic/flanker2.png,a,k,pic/AffRest1.png,,,,,,,,,,,,,,,,,,,,,,,,,0,0,0,0,0,50,50,50,,,,694.0313509999996,None,692.8482856999999,694.0481693999991,a,1,生动,k,1,0.465033599999515,0.5975103000000672,szj,f,20,2024_Apr_12_1645,mian,2021.2.3,60.002004066915774,
,,,,,,1,1,pic/flanker6.png,pic/flanker4.png,s,k,pic/AffRest1.png,,,,,,,,,,,,,,,,,,,,,,,,,0,0,0,0,0,51,51,46,,,,696.9483036000001,None,695.7649631999993,696.9649501999993,s,1,有利,k,1,0.5487998999997217,0.5690072999987024,szj,f,20,2024_Apr_12_1645,mian,2021.2.3,60.002004066915774,
,,,,,,0,1,pic/flanker6.png,pic/flanker2.png,a,k,pic/AffRest1.png,,,,,,,,,,,,,,,,,,,,,,,,,0,0,0,0,0,52,52,10,,,,699.948137899999,None,698.7648563000002,699.9649525999994,a,1,秀丽,k,1,0.5874530000000959,0.5114545999986149,szj,f,20,2024_Apr_12_1645,mian,2021.2.3,60.002004066915774,
,,,,,,1,1,pic/flanker6.png,pic/flanker4.png,s,k,pic/AffRest1.png,,,,,,,,,,,,,,,,,,,,,,,,,0,0,0,0,0,53,53,54,,,,702.9981420000004,None,701.8150724000006,703.0148425999996,s,1,卓越,k,1,0.4700603000001138,1.5083810000014637,szj,f,20,2024_Apr_12_1645,mian,2021.2.3,60.002004066915774,
,,,,,,1,1,pic/flanker6.png,pic/flanker4.png,s,k,pic/AffRest1.png,,,,,,,,,,,,,,,,,,,,,,,,,0,0,0,0,0,54,54,78,,,,706.8648678999998,None,705.6816354999992,706.881559899999,s,1,俊秀,k,1,0.5082389999988663,0.5761340000008204,szj,f,20,2024_Apr_12_1645,mian,2021.2.3,60.002004066915774,
,,,,,,0,0,pic/flanker5.png,pic/flanker1.png,s,l,pic/AffRest1.png,,,,,,,,,,,,,,,,,,,,,,,,,0,0,0,0,0,55,55,75,,,,709.8316159999995,None,708.6481273999998,709.8482846000006,s,1,厌恶,l,1,0.43401580000136164,0.7103105999995023,szj,f,20,2024_Apr_12_1645,mian,2021.2.3,60.002004066915774,
,,,,,,0,0,pic/flanker5.png,pic/flanker1.png,s,l,pic/AffRest1.png,,,,,,,,,,,,,,,,,,,,,,,,,0,0,0,0,0,56,56,51,,,,712.9810338999996,None,711.7981677999996,712.9982347000005,s,1,禁止,l,1,0.5640048999994178,0.8154259999992064,szj,f,20,2024_Apr_12_1645,mian,2021.2.3,60.002004066915774,
,,,,,,1,1,pic/flanker6.png,pic/flanker4.png,s,k,pic/AffRest1.png,,,,,,,,,,,,,,,,,,,,,,,,,0,0,0,0,0,57,57,30,,,,716.398319599999,None,715.2149898999996,716.4149784000001,s,1,前进,k,1,0.4556283000001713,0.5831239999988611,szj,f,20,2024_Apr_12_1645,mian,2021.2.3,60.002004066915774,
,,,,,,1,1,pic/flanker5.png,pic/flanker3.png,a,k,pic/AffRest1.png,,,,,,,,,,,,,,,,,,,,,,,,,0,0,0,0,0,58,58,52,,,,719.3481697999996,None,718.1648953999993,719.3649267000001,a,1,精致,k,1,0.5861963999996078,0.9529379999985395,szj,f,20,2024_Apr_12_1645,mian,2021.2.3,60.002004066915774,
,,,,,,1,0,pic/flanker6.png,pic/flanker4.png,s,l,pic/AffRest1.png,,,,,,,,,,,,,,,,,,,,,,,,,0,0,0,0,0,59,59,77,,,,722.7809273999992,None,721.5983108,722.7975760999998,s,1,假冒,l,1,0.482307000000219,0.7151364000001195,szj,f,20,2024_Apr_12_1645,mian,2021.2.3,60.002004066915774,
,,,,,,1,0,pic/flanker5.png,pic/flanker3.png,a,l,pic/AffRest1.png,,,,,,,,,,,,,,,,,,,,,,,,,0,0,0,0,0,60,60,79,,,,725.8650061999997,None,724.6815091999997,725.8816815999999,a,1,轻率,l,1,0.45303169999897364,0.6455829999995331,szj,f,20,2024_Apr_12_1645,mian,2021.2.3,60.002004066915774,
,,,,,,1,1,pic/flanker6.png,pic/flanker4.png,s,k,pic/AffRest1.png,,,,,,,,,,,,,,,,,,,,,,,,,0,0,0,0,0,61,61,14,,,,728.9816929999997,None,727.798182999999,728.9983591,s,1,永恒,k,1,0.6035259000000224,0.5924448000005214,szj,f,20,2024_Apr_12_1645,mian,2021.2.3,60.002004066915774,
,,,,,,0,0,pic/flanker6.png,pic/flanker2.png,a,l,pic/AffRest1.png,,,,,,,,,,,,,,,,,,,,,,,,,0,0,0,0,0,62,62,17,,,,732.1983574000005,None,731.0148549000005,732.2150113999996,a,1,别扭,l,1,0.6232994000001781,0.6452219000002515,szj,f,20,2024_Apr_12_1645,mian,2021.2.3,60.002004066915774,
,,,,,,1,1,pic/flanker5.png,pic/flanker3.png,a,k,pic/AffRest1.png,,,,,,,,,,,,,,,,,,,,,,,,,0,0,0,0,0,63,63,76,,,,735.3650166999996,None,734.1809121000006,735.3816817999996,a,1,赞成,k,1,0.4688948999992135,0.6264838999995845,szj,f,20,2024_Apr_12_1645,mian,2021.2.3,60.002004066915774,
,,,,,,0,0,pic/flanker5.png,pic/flanker1.png,s,l,pic/AffRest1.png,,,,,,,,,,,,,,,,,,,,,,,,,0,0,0,0,0,64,64,11,,,,738.3815259999992,None,737.1983378999994,738.3983888999992,s,1,丢失,l,1,0.5987257000015234,0.7491516999998566,szj,f,20,2024_Apr_12_1645,mian,2021.2.3,60.002004066915774,
,,,,,,1,1,pic/flanker6.png,pic/flanker4.png,s,k,pic/AffRest1.png,,,,,,,,,,,,,,,,,,,,,,,,,0,0,0,0,0,65,65,6,,,,741.6809500999989,None,740.498223999999,741.6981491000006,s,1,清秀,k,1,0.5238296999996237,0.6190083999990748,szj,f,20,2024_Apr_12_1645,mian,2021.2.3,60.002004066915774,
,,,,,,1,0,pic/flanker5.png,pic/flanker3.png,a,l,pic/AffRest1.png,,,,,,,,,,,,,,,,,,,,,,,,,0,0,0,0,0,66,66,71,,,,744.7650226000005,None,743.5808625999998,744.7817319000005,a,1,嘲笑,l,1,0.4841989000015019,0.5792595999992045,szj,f,20,2024_Apr_12_1645,mian,2021.2.3,60.002004066915774,
,,,,,,1,0,pic/flanker5.png,pic/flanker3.png,a,l,pic/AffRest1.png,,,,,,,,,,,,,,,,,,,,,,,,,0,0,0,0,0,67,67,31,,,,747.6975131999989,None,746.5144595000002,747.7141888000006,a,1,怀疑,l,1,0.5251315000004979,0.630274000001009,szj,f,20,2024_Apr_12_1645,mian,2021.2.3,60.002004066915774,
,,,,,,1,1,pic/flanker5.png,pic/flanker3.png,a,k,pic/AffRest1.png,,,,,,,,,,,,,,,,,,,,,,,,,0,0,0,0,0,68,68,4,,,,750.7316768000001,None,749.5479603000003,750.7483152999994,a,1,富足,k,1,0.5154808999996021,0.655766500000027,szj,f,20,2024_Apr_12_1645,mian,2021.2.3,60.002004066915774,
,,,,,,0,0,pic/flanker6.png,pic/flanker2.png,a,l,pic/AffRest1.png,,,,,,,,,,,,,,,,,,,,,,,,,0,0,0,0,0,69,69,65,,,,753.9647662000007,None,752.7816777999997,753.9814110000007,a,1,缺乏,l,1,0.5560609000003751,0.6060945999997784,szj,f,20,2024_Apr_12_1645,mian,2021.2.3,60.002004066915774,
,,,,,,0,1,pic/flanker5.png,pic/flanker1.png,s,k,pic/AffRest1.png,,,,,,,,,,,,,,,,,,,,,,,,,0,0,0,0,0,70,70,16,,,,757.0649622000001,None,755.8809234,757.0815062999991,s,1,鲜艳,k,1,0.5363381000006484,0.5561273000002984,szj,f,20,2024_Apr_12_1645,mian,2021.2.3,60.002004066915774,
,,,,,,1,1,pic/flanker6.png,pic/flanker4.png,s,k,pic/AffRest1.png,,,,,,,,,,,,,,,,,,,,,,,,,0,0,0,0,0,71,71,62,,,,760.2311597999997,None,759.0482909000002,760.2480001000004,s,1,旺盛,k,1,0.4597295000003214,0.5666535000000295,szj,f,20,2024_Apr_12_1645,mian,2021.2.3,60.002004066915774,
,,,,,,0,1,pic/flanker5.png,pic/flanker1.png,s,k,pic/AffRest1.png,,,,,,,,,,,,,,,,,,,,,,,,,0,0,0,0,0,72,72,0,,,,763.2482615999998,None,762.0649778000006,763.2648117999997,s,1,公平,k,1,0.4854591999992408,0.5330146999986027,szj,f,20,2024_Apr_12_1645,mian,2021.2.3,60.002004066915774,
,,,,,,0,1,pic/flanker6.png,pic/flanker2.png,a,k,pic/AffRest1.png,,,,,,,,,,,,,,,,,,,,,,,,,0,0,0,0,0,73,73,66,,,,766.2810525999994,None,765.0982033,766.298152899999,a,1,热切,k,1,0.4875451999996585,0.5975772000001598,szj,f,20,2024_Apr_12_1645,mian,2021.2.3,60.002004066915774,
,,,,,,0,0,pic/flanker6.png,pic/flanker2.png,a,l,pic/AffRest1.png,,,,,,,,,,,,,,,,,,,,,,,,,0,0,0,0,0,74,74,9,,,,769.3983312,None,768.2147537000001,769.4148829999995,a,1,慌忙,l,1,0.5398101999999199,0.6915232999999716,szj,f,20,2024_Apr_12_1645,mian,2021.2.3,60.002004066915774,
,,,,,,1,1,pic/flanker6.png,pic/flanker4.png,s,k,pic/AffRest1.png,,,,,,,,,,,,,,,,,,,,,,,,,0,0,0,0,0,75,75,22,,,,772.4648572999995,None,771.281598399999,772.4816236999995,s,1,诚恳,k,1,0.5908443999996962,0.6166214999993826,szj,f,20,2024_Apr_12_1645,mian,2021.2.3,60.002004066915774,
,,,,,,0,1,pic/flanker6.png,pic/flanker2.png,a,k,pic/AffRest1.png,,,,,,,,,,,,,,,,,,,,,,,,,0,0,0,0,0,76,76,58,,,,775.6814866999994,None,774.4981857000002,775.6982360999991,a,1,圣洁,k,1,0.5690916000003199,0.5850360999993427,szj,f,20,2024_Apr_12_1645,mian,2021.2.3,60.002004066915774,
,,,,,,0,1,pic/flanker6.png,pic/flanker2.png,a,k,pic/AffRest1.png,,,,,,,,,,,,,,,,,,,,,,,,,0,0,0,0,0,77,77,18,,,,778.8482303000001,None,777.6651284,778.8648689999991,a,1,顽强,k,1,0.7294700999991619,0.6358749999999418,szj,f,20,2024_Apr_12_1645,mian,2021.2.3,60.002004066915774,
,,,,,,0,0,pic/flanker6.png,pic/flanker2.png,a,l,pic/AffRest1.png,,,,,,,,,,,,,,,,,,,,,,,,,0,0,0,0,0,78,78,41,,,,782.1650252999989,None,780.9815598999994,782.1814735999997,a,1,排斥,l,1,0.5545506999987992,0.722873200000322,szj,f,20,2024_Apr_12_1645,mian,2021.2.3,60.002004066915774,
,,,,,,1,0,pic/flanker6.png,pic/flanker4.png,s,l,pic/AffRest1.png,,,,,,,,,,,,,,,,,,,,,,,,,0,0,0,0,0,79,79,21,,,,785.4317375999999,None,784.2481215999996,785.4483662000002,s,1,落后,l,1,0.5680678999997326,0.6386614000002737,szj,f,20,2024_Apr_12_1645,mian,2021.2.3,60.002004066915774,
,,,,,,,,,,,,pic/AffRest1.png,,,,,,,,,,,,,,,,,,,,,,,,,0,0,0,0,,,,,,,,,,,,,,,,,,,szj,f,20,2024_Apr_12_1645,mian,2021.2.3,60.002004066915774,
,,,,,,1,0,pic/flanker6.png,pic/flanker4.png,s,l,pic/AffRest2.png,,,,,,,,,,,,,,,,,,,,,,,,,0,1,1,1,0,0,0,21,,,,797.5982568,None,796.4079284,797.6148773999994,s,1,轻率,l,1,0.44929919999958656,0.5074862999990728,szj,f,20,2024_Apr_12_1645,mian,2021.2.3,60.002004066915774,
,,,,,,0,0,pic/flanker5.png,pic/flanker1.png,s,l,pic/AffRest2.png,,,,,,,,,,,,,,,,,,,,,,,,,0,1,1,1,0,1,1,27,,,,800.5982808999997,None,799.4148762999994,800.6149088000002,s,1,浪费,l,1,0.5674500999994052,0.5260247999995045,szj,f,20,2024_Apr_12_1645,mian,2021.2.3,60.002004066915774,
,,,,,,0,0,pic/flanker6.png,pic/flanker2.png,a,l,pic/AffRest2.png,,,,,,,,,,,,,,,,,,,,,,,,,0,1,1,1,0,2,2,17,,,,803.6476853999993,None,802.4648266000004,803.663724,a,1,自卑,l,1,0.7103635000003123,0.5212068000000727,szj,f,20,2024_Apr_12_1645,mian,2021.2.3,60.002004066915774,
,,,,,,0,1,pic/flanker5.png,pic/flanker1.png,s,k,pic/AffRest2.png,,,,,,,,,,,,,,,,,,,,,,,,,0,1,1,1,0,3,3,24,,,,806.8314721999996,None,805.6480556000006,806.8482069000002,s,1,振作,k,1,0.5504531999995379,0.5720601000011811,szj,f,20,2024_Apr_12_1645,mian,2021.2.3,60.002004066915774,
,,,,,,1,1,pic/flanker5.png,pic/flanker3.png,a,k,pic/AffRest2.png,,,,,,,,,,,,,,,,,,,,,,,,,0,1,1,1,0,4,4,28,,,,809.9983090000005,None,808.8148953999989,810.0150123000003,a,1,优雅,k,1,0.49969490000148653,0.5794505999983812,szj,f,20,2024_Apr_12_1645,mian,2021.2.3,60.002004066915774,
,,,,,,1,0,pic/flanker5.png,pic/flanker3.png,a,l,pic/AffRest2.png,,,,,,,,,,,,,,,,,,,,,,,,,0,1,1,1,0,5,5,55,,,,812.9148012999995,None,811.7313949999989,812.9315224000002,a,1,争吵,l,1,0.4973036999999749,0.5655948000003264,szj,f,20,2024_Apr_12_1645,mian,2021.2.3,60.002004066915774,
,,,,,,1,1,pic/flanker5.png,pic/flanker3.png,a,k,pic/AffRest2.png,,,,,,,,,,,,,,,,,,,,,,,,,0,1,1,1,0,6,6,12,,,,815.8982930000002,None,814.7154131000007,815.914892499999,a,1,廉洁,k,1,0.43883699999969394,0.7300804000005883,szj,f,20,2024_Apr_12_1645,mian,2021.2.3,60.002004066915774,
,,,,,,1,1,pic/flanker5.png,pic/flanker3.png,a,k,pic/AffRest2.png,,,,,,,,,,,,,,,,,,,,,,,,,0,1,1,1,0,7,7,44,,,,818.9482637000001,None,817.7650773999994,818.9650633000001,a,1,赞成,k,1,0.5129044999994221,0.6025054999990971,szj,f,20,2024_Apr_12_1645,mian,2021.2.3,60.002004066915774,
,,,,,,1,1,pic/flanker5.png,pic/flanker3.png,a,k,pic/AffRest2.png,,,,,,,,,,,,,,,,,,,,,,,,,0,1,1,1,0,8,8,36,,,,822.098328,None,820.9147097000005,822.1148130000001,a,1,豪放,k,1,0.4341820000008738,0.49309099999845785,szj,f,20,2024_Apr_12_1645,mian,2021.2.3,60.002004066915774,
,,,,,,0,1,pic/flanker6.png,pic/flanker2.png,a,k,pic/AffRest2.png,,,,,,,,,,,,,,,,,,,,,,,,,0,1,1,1,0,9,9,26,,,,825.0817480999995,None,823.8984579999997,825.0983431000004,a,1,有利,k,1,0.5311511999989307,0.5983840999997483,szj,f,20,2024_Apr_12_1645,mian,2021.2.3,60.002004066915774,
,,,,,,0,0,pic/flanker5.png,pic/flanker1.png,s,l,pic/AffRest2.png,,,,,,,,,,,,,,,,,,,,,,,,,0,1,1,1,0,10,10,35,,,,828.031774699999,None,826.8483500000002,828.0483705000006,s,1,焦躁,l,1,0.5687576000000263,0.509467300000324,szj,f,20,2024_Apr_12_1645,mian,2021.2.3,60.002004066915774,
,,,,,,0,0,pic/flanker6.png,pic/flanker2.png,a,l,pic/AffRest2.png,,,,,,,,,,,,,,,,,,,,,,,,,0,1,1,1,0,11,11,57,,,,831.1482448999996,None,829.9649711000002,831.1649216000005,a,1,忧虑,l,1,0.4439567999997962,0.6270686999996542,szj,f,20,2024_Apr_12_1645,mian,2021.2.3,60.002004066915774,
,,,,,,1,1,pic/flanker6.png,pic/flanker4.png,s,k,pic/AffRest2.png,,,,,,,,,,,,,,,,,,,,,,,,,0,1,1,1,0,12,12,38,,,,834.1982915999997,None,833.0149003999995,834.2151328,s,1,瑰丽,k,1,0.5947030000006635,0.4711502999998629,szj,f,20,2024_Apr_12_1645,mian,2021.2.3,60.002004066915774,
,,,,,,0,1,pic/flanker6.png,pic/flanker2.png,a,k,pic/AffRest2.png,,,,,,,,,,,,,,,,,,,,,,,,,0,1,1,1,0,13,13,10,,,,837.2481489999991,None,836.0649272999999,837.2650412000003,a,1,富足,k,1,0.5727944999998726,0.5034857999999076,szj,f,20,2024_Apr_12_1645,mian,2021.2.3,60.002004066915774,
,,,,,,0,1,pic/flanker6.png,pic/flanker2.png,a,k,pic/AffRest2.png,,,,,,,,,,,,,,,,,,,,,,,,,0,1,1,1,0,14,14,58,,,,840.2152379999989,None,839.0314957999999,840.2315897999997,a,1,富丽,k,1,0.4463997999991989,0.5110379999987344,szj,f,20,2024_Apr_12_1645,mian,2021.2.3,60.002004066915774,
,,,,,,1,0,pic/flanker5.png,pic/flanker3.png,a,l,pic/AffRest2.png,,,,,,,,,,,,,,,,,,,,,,,,,0,1,1,1,0,15,15,63,,,,843.0982196000004,None,841.9151700000002,843.1150158,a,1,损害,l,1,0.6977225999999064,0.8854565000001458,szj,f,20,2024_Apr_12_1645,mian,2021.2.3,60.002004066915774,
,,,,,,0,0,pic/flanker6.png,pic/flanker2.png,a,l,pic/AffRest2.png,,,,,,,,,,,,,,,,,,,,,,,,,0,1,1,1,0,16,16,9,,,,846.5814565000001,None,845.3984189000003,846.5984501000003,a,1,别扭,l,1,0.44651900000098976,0.7274017999989155,szj,f,20,2024_Apr_12_1645,mian,2021.2.3,60.002004066915774,
,,,,,,0,1,pic/flanker5.png,pic/flanker1.png,s,k,pic/AffRest2.png,,,,,,,,,,,,,,,,,,,,,,,,,0,1,1,1,0,17,17,64,,,,849.6816139000002,None,848.4982674000003,849.6982838999993,s,1,丰满,k,1,0.5844780999996146,0.523022099998343,szj,f,20,2024_Apr_12_1645,mian,2021.2.3,60.002004066915774,
,,,,,,1,1,pic/flanker6.png,pic/flanker4.png,s,k,pic/AffRest2.png,,,,,,,,,,,,,,,,,,,,,,,,,0,1,1,1,0,18,18,30,,,,852.6984135000002,None,851.514837499999,852.7149621999997,s,1,雄厚,k,1,0.8487844999999652,0.5777132000002894,szj,f,20,2024_Apr_12_1645,mian,2021.2.3,60.002004066915774,
,,,,,,0,1,pic/flanker6.png,pic/flanker2.png,a,k,pic/AffRest2.png,,,,,,,,,,,,,,,,,,,,,,,,,0,1,1,1,0,19,19,50,,,,856.1814436999994,None,854.998179799999,856.1983397000004,a,1,诚恳,k,1,0.4245630000004894,0.6281261999993148,szj,f,20,2024_Apr_12_1645,mian,2021.2.3,60.002004066915774,
,,,,,,1,0,pic/flanker5.png,pic/flanker3.png,a,l,pic/AffRest2.png,,,,,,,,,,,,,,,,,,,,,,,,,0,1,1,1,0,20,20,47,,,,859.214906199999,None,858.0315205000006,859.2316071000005,a,1,罚款,l,1,0.5120833999990282,0.5377544000002672,szj,f,20,2024_Apr_12_1645,mian,2021.2.3,60.002004066915774,
,,,,,,1,0,pic/flanker5.png,pic/flanker3.png,a,l,pic/AffRest2.png,,,,,,,,,,,,,,,,,,,,,,,,,0,1,1,1,0,21,21,71,,,,862.2983026999991,None,861.1151386000001,862.3150401000003,a,1,沮丧,l,1,0.45880419999957667,0.6000065999996878,szj,f,20,2024_Apr_12_1645,mian,2021.2.3,60.002004066915774,
,,,,,,0,0,pic/flanker6.png,pic/flanker2.png,a,l,pic/AffRest2.png,,,,,,,,,,,,,,,,,,,,,,,,,0,1,1,1,0,22,22,73,,,,865.3979832000005,None,864.2150247999998,865.4146378999994,a,1,厌恶,l,1,0.4850955999991129,0.7631122000002506,szj,f,20,2024_Apr_12_1645,mian,2021.2.3,60.002004066915774,
,,,,,,0,1,pic/flanker5.png,pic/flanker1.png,s,k,pic/AffRest2.png,,,,,,,,,,,,,,,,,,,,,,,,,0,1,1,1,0,23,23,72,,,,868.714858899999,None,867.5316647,868.7317158000005,s,1,享受,k,1,0.6832082999990234,0.5598767999999836,szj,f,20,2024_Apr_12_1645,mian,2021.2.3,60.002004066915774,
,,,,,,0,1,pic/flanker5.png,pic/flanker1.png,s,k,pic/AffRest2.png,,,,,,,,,,,,,,,,,,,,,,,,,0,1,1,1,0,24,24,48,,,,871.8315772000005,None,870.6484197999998,871.8483087999994,s,1,充裕,k,1,0.6754309000007197,0.5487997999989602,szj,f,20,2024_Apr_12_1645,mian,2021.2.3,60.002004066915774,
,,,,,,1,1,pic/flanker5.png,pic/flanker3.png,a,k,pic/AffRest2.png,,,,,,,,,,,,,,,,,,,,,,,,,0,1,1,1,0,25,25,68,,,,874.9815027999994,None,873.7983545000006,874.9983637999994,a,1,吉祥,k,1,0.5103058999993664,0.6320890999995754,szj,f,20,2024_Apr_12_1645,mian,2021.2.3,60.002004066915774,
,,,,,,0,0,pic/flanker5.png,pic/flanker1.png,s,l,pic/AffRest2.png,,,,,,,,,,,,,,,,,,,,,,,,,0,1,1,1,0,26,26,59,,,,877.9479307000001,None,876.7649843999989,877.9645369999998,s,1,处罚,l,1,0.7103646000014123,0.6870517999996082,szj,f,20,2024_Apr_12_1645,mian,2021.2.3,60.002004066915774,
,,,,,,1,0,pic/flanker6.png,pic/flanker4.png,s,l,pic/AffRest2.png,,,,,,,,,,,,,,,,,,,,,,,,,0,1,1,1,0,27,27,53,,,,881.2817469000001,None,880.0983108,881.2982443000001,s,1,怀疑,k,0,0.5764220000000932,0.5332436999997299,szj,f,20,2024_Apr_12_1645,mian,2021.2.3,60.002004066915774,
,,,,,,1,1,pic/flanker6.png,pic/flanker4.png,s,k,pic/AffRest2.png,,,,,,,,,,,,,,,,,,,,,,,,,0,1,1,1,0,28,28,62,,,,884.2816495000006,None,883.0981637000004,884.2983616000001,s,1,典雅,k,1,1.0411757000001671,0.7821841000004497,szj,f,20,2024_Apr_12_1645,mian,2021.2.3,60.002004066915774,
,,,,,,1,0,pic/flanker5.png,pic/flanker3.png,a,l,pic/AffRest2.png,,,,,,,,,,,,,,,,,,,,,,,,,0,1,1,1,0,29,29,39,,,,887.9816671999997,None,886.798342,887.9984664000003,a,1,懒惰,l,1,0.5672890999994706,1.0759502999990218,szj,f,20,2024_Apr_12_1645,mian,2021.2.3,60.002004066915774,
,,,,,,0,1,pic/flanker5.png,pic/flanker1.png,s,k,pic/AffRest2.png,,,,,,,,,,,,,,,,,,,,,,,,,0,1,1,1,0,30,30,8,,,,891.5148898000007,None,890.3312611000001,891.5315329999994,s,1,精致,k,1,0.38060309999855235,0.6583346999996138,szj,f,20,2024_Apr_12_1645,mian,2021.2.3,60.002004066915774,
,,,,,,1,0,pic/flanker6.png,pic/flanker4.png,s,l,pic/AffRest2.png,,,,,,,,,,,,,,,,,,,,,,,,,0,1,1,1,0,31,31,29,,,,894.548307699999,None,893.3651886999996,894.5649878000004,s,1,穷苦,l,1,0.6743131000002904,0.6180834999995568,szj,f,20,2024_Apr_12_1645,mian,2021.2.3,60.002004066915774,
,,,,,,0,0,pic/flanker6.png,pic/flanker2.png,a,l,pic/AffRest2.png,,,,,,,,,,,,,,,,,,,,,,,,,0,1,1,1,0,32,32,49,,,,897.6819003,None,896.5020664000003,897.7151764999999,a,1,杂乱,l,1,0.5605507000000216,0.5309951999988698,szj,f,20,2024_Apr_12_1645,mian,2021.2.3,60.002004066915774,
,,,,,,1,1,pic/flanker6.png,pic/flanker4.png,s,k,pic/AffRest2.png,,,,,,,,,,,,,,,,,,,,,,,,,0,1,1,1,0,33,33,14,,,,900.7817472000006,None,899.5980263000001,900.7983647000001,s,1,秀丽,k,1,0.9933214999982738,0.7998416000009456,szj,f,20,2024_Apr_12_1645,mian,2021.2.3,60.002004066915774,
,,,,,,1,0,pic/flanker6.png,pic/flanker4.png,s,l,pic/AffRest2.png,,,,,,,,,,,,,,,,,,,,,,,,,0,1,1,1,0,34,34,37,,,,904.4983885000001,None,903.3150351999993,904.5150790999996,s,1,失意,l,1,0.4983807999997225,0.681195299999672,szj,f,20,2024_Apr_12_1645,mian,2021.2.3,60.002004066915774,
,,,,,,1,0,pic/flanker6.png,pic/flanker4.png,s,l,pic/AffRest2.png,,,,,,,,,,,,,,,,,,,,,,,,,0,1,1,1,0,35,35,13,,,,907.4983563000005,None,906.3150922000004,907.5151420000002,s,1,烦恼,l,1,0.5922057999996468,0.7239465999991808,szj,f,20,2024_Apr_12_1645,mian,2021.2.3,60.002004066915774,
,,,,,,0,1,pic/flanker6.png,pic/flanker2.png,a,k,pic/AffRest2.png,,,,,,,,,,,,,,,,,,,,,,,,,0,1,1,1,0,36,36,18,,,,910.8477139000006,None,909.6649648999992,910.8642022000004,a,1,正直,k,1,0.5826279999982944,0.5280796000006376,szj,f,20,2024_Apr_12_1645,mian,2021.2.3,60.002004066915774,
,,,,,,0,1,pic/flanker5.png,pic/flanker1.png,s,k,pic/AffRest2.png,,,,,,,,,,,,,,,,,,,,,,,,,0,1,1,1,0,37,37,0,,,,913.931698299999,None,912.7482137999996,913.9484744000001,s,1,永恒,k,1,0.626128100000642,0.6832237999988138,szj,f,20,2024_Apr_12_1645,mian,2021.2.3,60.002004066915774,
,,,,,,0,1,pic/flanker5.png,pic/flanker1.png,s,k,pic/AffRest2.png,,,,,,,,,,,,,,,,,,,,,,,,,0,1,1,1,0,38,38,16,,,,917.0650695000004,None,915.8817197999997,917.0817253000005,s,1,俊秀,k,1,1.2660828999996738,0.5677376000003278,szj,f,20,2024_Apr_12_1645,mian,2021.2.3,60.002004066915774,
,,,,,,1,1,pic/flanker6.png,pic/flanker4.png,s,k,pic/AffRest2.png,,,,,,,,,,,,,,,,,,,,,,,,,0,1,1,1,0,39,39,78,,,,920.8984268999993,None,919.7147306000006,920.9150360000003,s,1,前进,k,1,0.5715201000002708,0.6577966999993805,szj,f,20,2024_Apr_12_1645,mian,2021.2.3,60.002004066915774,
,,,,,,1,1,pic/flanker5.png,pic/flanker3.png,a,k,pic/AffRest2.png,,,,,,,,,,,,,,,,,,,,,,,,,0,1,1,1,0,40,40,4,,,,924.0644809000005,None,922.8816721999992,924.0811195999995,a,1,留恋,k,1,0.5163642999996227,0.7694499999997788,szj,f,20,2024_Apr_12_1645,mian,2021.2.3,60.002004066915774,
,,,,,,1,1,pic/flanker5.png,pic/flanker3.png,a,k,pic/AffRest2.png,,,,,,,,,,,,,,,,,,,,,,,,,0,1,1,1,0,41,41,20,,,,927.2483924999997,None,926.0644278,927.2650826999998,a,1,清秀,k,1,0.5329566000000341,0.5804234000006545,szj,f,20,2024_Apr_12_1645,mian,2021.2.3,60.002004066915774,
,,,,,,1,1,pic/flanker6.png,pic/flanker4.png,s,k,pic/AffRest2.png,,,,,,,,,,,,,,,,,,,,,,,,,0,1,1,1,0,42,42,6,,,,930.2484236,None,929.0653946999992,930.2651034999999,s,1,卓越,k,1,0.564478300000701,0.5280328000008012,szj,f,20,2024_Apr_12_1645,mian,2021.2.3,60.002004066915774,
,,,,,,1,0,pic/flanker5.png,pic/flanker3.png,a,l,pic/AffRest2.png,,,,,,,,,,,,,,,,,,,,,,,,,0,1,1,1,0,43,43,79,,,,933.1650250999992,None,931.9817798000004,933.1817234999999,a,1,缺乏,l,1,0.5126946000000316,0.719215199998871,szj,f,20,2024_Apr_12_1645,mian,2021.2.3,60.002004066915774,
,,,,,,0,1,pic/flanker6.png,pic/flanker2.png,a,k,pic/AffRest2.png,,,,,,,,,,,,,,,,,,,,,,,,,0,1,1,1,0,44,44,2,,,,936.3817596999997,None,935.1983796999994,936.3977911999991,a,1,敬佩,k,1,0.9423991000003298,0.5679326999998011,szj,f,20,2024_Apr_12_1645,mian,2021.2.3,60.002004066915774,
,,,,,,1,1,pic/flanker5.png,pic/flanker3.png,a,k,pic/AffRest2.png,,,,,,,,,,,,,,,,,,,,,,,,,0,1,1,1,0,45,45,76,,,,939.7650030999994,None,938.5817714000004,939.7819729999992,a,1,爽朗,k,1,0.4769693999987794,0.5089657000007719,szj,f,20,2024_Apr_12_1645,mian,2021.2.3,60.002004066915774,
,,,,,,0,0,pic/flanker5.png,pic/flanker1.png,s,l,pic/AffRest2.png,,,,,,,,,,,,,,,,,,,,,,,,,0,1,1,1,0,46,46,43,,,,942.6817035999993,None,941.4976645000006,942.6977919000001,s,1,排斥,l,1,0.692265599998791,0.6439312000002246,szj,f,20,2024_Apr_12_1645,mian,2021.2.3,60.002004066915774,
,,,,,,0,1,pic/flanker6.png,pic/flanker2.png,a,k,pic/AffRest2.png,,,,,,,,,,,,,,,,,,,,,,,,,0,1,1,1,0,47,47,34,,,,945.8484222999996,None,944.6650270999999,945.8649894999999,a,1,鲜艳,k,1,0.4077259999994567,0.5007516000005126,szj,f,20,2024_Apr_12_1645,mian,2021.2.3,60.002004066915774,
,,,,,,0,1,pic/flanker5.png,pic/flanker1.png,s,k,pic/AffRest2.png,,,,,,,,,,,,,,,,,,,,,,,,,0,1,1,1,0,48,48,40,,,,948.7817882999989,None,947.5984310000003,948.7983684999999,s,1,畅销,k,1,0.7382280999991053,0.6508768999992753,szj,f,20,2024_Apr_12_1645,mian,2021.2.3,60.002004066915774,
,,,,,,0,1,pic/flanker5.png,pic/flanker1.png,s,k,pic/AffRest2.png,,,,,,,,,,,,,,,,,,,,,,,,,0,1,1,1,0,49,49,56,,,,952.048331,None,950.8652167,952.0651422999999,s,1,羡慕,k,1,0.5706311000012647,0.5897174000001542,szj,f,20,2024_Apr_12_1645,mian,2021.2.3,60.002004066915774,
,,,,,,1,1,pic/flanker5.png,pic/flanker3.png,a,k,pic/AffRest2.png,,,,,,,,,,,,,,,,,,,,,,,,,0,1,1,1,0,50,50,60,,,,955.0984656,None,953.9150377999995,955.1150717,a,1,珍藏,k,1,0.49657509999997274,0.585734100000991,szj,f,20,2024_Apr_12_1645,mian,2021.2.3,60.002004066915774,
,,,,,,0,0,pic/flanker5.png,pic/flanker1.png,s,l,pic/AffRest2.png,,,,,,,,,,,,,,,,,,,,,,,,,0,1,1,1,0,51,51,67,,,,958.0650188,None,956.8817507999993,958.0818227999989,s,1,撒谎,l,1,0.746182000000772,0.6912514000014198,szj,f,20,2024_Apr_12_1645,mian,2021.2.3,60.002004066915774,
,,,,,,0,1,pic/flanker6.png,pic/flanker2.png,a,k,pic/AffRest2.png,,,,,,,,,,,,,,,,,,,,,,,,,0,1,1,1,0,52,52,74,,,,961.4816135000001,None,960.2987159999993,961.4984638999995,a,1,圣洁,k,1,0.45393070000136504,0.5268738999984635,szj,f,20,2024_Apr_12_1645,mian,2021.2.3,60.002004066915774,
,,,,,,0,0,pic/flanker5.png,pic/flanker1.png,s,l,pic/AffRest2.png,,,,,,,,,,,,,,,,,,,,,,,,,0,1,1,1,0,53,53,75,,,,964.5477345999989,None,963.3650818000006,964.5651072,s,1,落后,l,1,0.49411070000132895,0.8618189999997412,szj,f,20,2024_Apr_12_1645,mian,2021.2.3,60.002004066915774,
,,,,,,1,1,pic/flanker5.png,pic/flanker3.png,a,k,pic/AffRest2.png,,,,,,,,,,,,,,,,,,,,,,,,,0,1,1,1,0,54,54,52,,,,967.8818367000003,None,966.6977551999989,967.8982792999996,a,1,奉献,k,1,0.8761246999983996,0.7402368999992177,szj,f,20,2024_Apr_12_1645,mian,2021.2.3,60.002004066915774,
,,,,,,1,0,pic/flanker6.png,pic/flanker4.png,s,l,pic/AffRest2.png,,,,,,,,,,,,,,,,,,,,,,,,,0,1,1,1,0,55,55,69,,,,971.431603699999,None,970.2484996000003,971.4476969999996,s,1,堵塞,l,1,1.1038540999998077,0.7173287000005075,szj,f,20,2024_Apr_12_1645,mian,2021.2.3,60.002004066915774,
,,,,,,1,0,pic/flanker6.png,pic/flanker4.png,s,l,pic/AffRest2.png,,,,,,,,,,,,,,,,,,,,,,,,,0,1,1,1,0,56,56,77,,,,975.1152856999997,None,973.9317952999991,975.1318377999996,s,1,丢失,l,1,0.8977467999993678,0.6268603000007715,szj,f,20,2024_Apr_12_1645,mian,2021.2.3,60.002004066915774,
,,,,,,0,0,pic/flanker6.png,pic/flanker2.png,a,l,pic/AffRest2.png,,,,,,,,,,,,,,,,,,,,,,,,,0,1,1,1,0,57,57,41,,,,978.6150945999998,None,977.4315936999992,978.6318095000006,a,1,黑暗,l,1,0.7680428000003303,0.6241740000004938,szj,f,20,2024_Apr_12_1645,mian,2021.2.3,60.002004066915774,
,,,,,,1,1,pic/flanker6.png,pic/flanker4.png,s,k,pic/AffRest2.png,,,,,,,,,,,,,,,,,,,,,,,,,0,1,1,1,0,58,58,54,,,,981.9651290000002,None,980.7818401000004,981.9817669999993,s,1,热切,k,1,0.5486732000008487,0.7212273999994068,szj,f,20,2024_Apr_12_1645,mian,2021.2.3,60.002004066915774,
,,,,,,0,0,pic/flanker6.png,pic/flanker2.png,a,l,pic/AffRest2.png,,,,,,,,,,,,,,,,,,,,,,,,,0,1,1,1,0,59,59,25,,,,985.1651103000004,None,983.9817545000005,985.1818332999992,a,1,禁止,l,1,0.592886799999178,0.642359800000122,szj,f,20,2024_Apr_12_1645,mian,2021.2.3,60.002004066915774,
,,,,,,0,0,pic/flanker5.png,pic/flanker1.png,s,l,pic/AffRest2.png,,,,,,,,,,,,,,,,,,,,,,,,,0,1,1,1,0,60,60,19,,,,988.3818011000003,None,987.1982341999992,988.3985078000005,s,1,郁闷,l,1,0.7246778000007907,0.7454199000003427,szj,f,20,2024_Apr_12_1645,mian,2021.2.3,60.002004066915774,
,,,,,,1,0,pic/flanker6.png,pic/flanker4.png,s,l,pic/AffRest2.png,,,,,,,,,,,,,,,,,,,,,,,,,0,1,1,1,0,61,61,61,,,,991.6984063999989,None,990.5150443000002,991.7151233000004,s,1,悲观,l,1,0.5961934000006295,0.6822686000014073,szj,f,20,2024_Apr_12_1645,mian,2021.2.3,60.002004066915774,
,,,,,,1,0,pic/flanker5.png,pic/flanker3.png,a,l,pic/AffRest2.png,,,,,,,,,,,,,,,,,,,,,,,,,0,1,1,1,0,62,62,15,,,,994.7818941000005,None,993.5985454000001,994.7986321999997,a,1,逃避,l,1,0.5922572999988915,0.4833381000007648,szj,f,20,2024_Apr_12_1645,mian,2021.2.3,60.002004066915774,
,,,,,,1,0,pic/flanker6.png,pic/flanker4.png,s,l,pic/AffRest2.png,,,,,,,,,,,,,,,,,,,,,,,,,0,1,1,1,0,63,63,45,,,,997.915127799999,None,996.7318353999999,997.9317959999989,s,1,闷热,l,1,0.5153176999992866,0.7764040000001842,szj,f,20,2024_Apr_12_1645,mian,2021.2.3,60.002004066915774,
,,,,,,0,0,pic/flanker5.png,pic/flanker1.png,s,l,pic/AffRest2.png,,,,,,,,,,,,,,,,,,,,,,,,,0,1,1,1,0,64,64,51,,,,1001.0485279000004,None,999.8651781999997,1001.065160099999,s,1,鲁莽,l,1,0.600699300000997,0.701427900001363,szj,f,20,2024_Apr_12_1645,mian,2021.2.3,60.002004066915774,
,,,,,,0,1,pic/flanker6.png,pic/flanker2.png,a,k,pic/AffRest2.png,,,,,,,,,,,,,,,,,,,,,,,,,0,1,1,1,0,65,65,42,,,,1004.4150616999996,None,1003.2318723999997,1004.4317697000006,a,1,公平,k,1,0.5721355999994557,0.8651635000005626,szj,f,20,2024_Apr_12_1645,mian,2021.2.3,60.002004066915774,
,,,,,,1,1,pic/flanker6.png,pic/flanker4.png,s,k,pic/AffRest2.png,,,,,,,,,,,,,,,,,,,,,,,,,0,1,1,1,0,66,66,22,,,,1007.7483063,None,1006.5651713000007,1007.765468399999,s,1,舒畅,k,1,0.5068396999995457,0.559564400000454,szj,f,20,2024_Apr_12_1645,mian,2021.2.3,60.002004066915774,
,,,,,,0,1,pic/flanker5.png,pic/flanker1.png,s,k,pic/AffRest2.png,,,,,,,,,,,,,,,,,,,,,,,,,0,1,1,1,0,67,67,32,,,,1010.7151811000003,None,1009.5317697999999,1010.7317731000003,s,1,如愿,k,1,0.4885638000014296,0.8056878999996115,szj,f,20,2024_Apr_12_1645,mian,2021.2.3,60.002004066915774,
,,,,,,1,1,pic/flanker6.png,pic/flanker4.png,s,k,pic/AffRest2.png,,,,,,,,,,,,,,,,,,,,,,,,,0,1,1,1,0,68,68,46,,,,1014.0651426000004,None,1012.881878799999,1014.0818507000004,s,1,生动,k,1,0.5314544000011665,0.5328704999992624,szj,f,20,2024_Apr_12_1645,mian,2021.2.3,60.002004066915774,
,,,,,,1,1,pic/flanker6.png,pic/flanker4.png,s,k,pic/AffRest2.png,,,,,,,,,,,,,,,,,,,,,,,,,0,1,1,1,0,69,69,70,,,,1017.0151358999992,None,1015.8318853000001,1017.0319159999999,s,1,顽强,k,1,0.5007589999986521,0.7112562999991496,szj,f,20,2024_Apr_12_1645,mian,2021.2.3,60.002004066915774,
,,,,,,0,0,pic/flanker5.png,pic/flanker1.png,s,l,pic/AffRest2.png,,,,,,,,,,,,,,,,,,,,,,,,,0,1,1,1,0,70,70,11,,,,1020.2651774999995,None,1019.0817864,1020.2818336,s,1,心慌,l,1,0.7255935000011959,0.486279699998704,szj,f,20,2024_Apr_12_1645,mian,2021.2.3,60.002004066915774,
,,,,,,1,0,pic/flanker6.png,pic/flanker4.png,s,l,pic/AffRest2.png,,,,,,,,,,,,,,,,,,,,,,,,,0,1,1,1,0,71,71,5,,,,1023.4484460999993,None,1022.2651213999998,1023.4651376000002,s,1,慌忙,l,1,0.5290421000008791,0.7206932999997662,szj,f,20,2024_Apr_12_1645,mian,2021.2.3,60.002004066915774,
,,,,,,0,0,pic/flanker5.png,pic/flanker1.png,s,l,pic/AffRest2.png,,,,,,,,,,,,,,,,,,,,,,,,,0,1,1,1,0,72,72,3,,,,1026.6984967999997,None,1025.5150233999993,1026.7152669999996,s,1,伤心,l,1,0.47986149999996996,0.7327500000010332,szj,f,20,2024_Apr_12_1645,mian,2021.2.3,60.002004066915774,
,,,,,,1,0,pic/flanker5.png,pic/flanker3.png,a,l,pic/AffRest2.png,,,,,,,,,,,,,,,,,,,,,,,,,0,1,1,1,0,73,73,7,,,,1029.848564599999,None,1028.6652049999993,1029.8651766000003,a,1,嘲笑,l,1,0.8710714000008011,0.6141513000002305,szj,f,20,2024_Apr_12_1645,mian,2021.2.3,60.002004066915774,
,,,,,,1,0,pic/flanker5.png,pic/flanker3.png,a,l,pic/AffRest2.png,,,,,,,,,,,,,,,,,,,,,,,,,0,1,1,1,0,74,74,23,,,,1033.1818459999995,None,1031.998524999999,1033.1985674999996,a,1,胡涂,l,1,0.7027472000008856,0.6054777999997896,szj,f,20,2024_Apr_12_1645,mian,2021.2.3,60.002004066915774,
,,,,,,0,1,pic/flanker6.png,pic/flanker2.png,a,k,pic/AffRest2.png,,,,,,,,,,,,,,,,,,,,,,,,,0,1,1,1,0,75,75,66,,,,1036.481600699999,None,1035.2985153999998,1036.4985808000001,a,1,旺盛,k,1,0.7047545999994327,0.6076714000009815,szj,f,20,2024_Apr_12_1645,mian,2021.2.3,60.002004066915774,
,,,,,,1,0,pic/flanker5.png,pic/flanker3.png,a,l,pic/AffRest2.png,,,,,,,,,,,,,,,,,,,,,,,,,0,1,1,1,0,76,76,31,,,,1039.8318141,None,1038.648529,1039.848433199999,a,1,冷笑,l,1,0.4151817000001756,0.5496218000007502,szj,f,20,2024_Apr_12_1645,mian,2021.2.3,60.002004066915774,
,,,,,,0,0,pic/flanker6.png,pic/flanker2.png,a,l,pic/AffRest2.png,,,,,,,,,,,,,,,,,,,,,,,,,0,1,1,1,0,77,77,65,,,,1042.7152153999996,None,1041.531832499999,1042.7318830999993,a,1,假冒,k,0,0.3416402000002563,0.526047400000607,szj,f,20,2024_Apr_12_1645,mian,2021.2.3,60.002004066915774,
,,,,,,0,0,pic/flanker6.png,pic/flanker2.png,a,l,pic/AffRest2.png,,,,,,,,,,,,,,,,,,,,,,,,,0,1,1,1,0,78,78,33,,,,1045.5152321999994,None,1044.3318292999993,1045.5319319999999,a,1,消沉,l,1,0.4517713000004733,0.561015999999654,szj,f,20,2024_Apr_12_1645,mian,2021.2.3,60.002004066915774,
,,,,,,0,0,pic/flanker6.png,pic/flanker2.png,a,l,pic/AffRest2.png,,,,,,,,,,,,,,,,,,,,,,,,,0,1,1,1,0,79,79,1,,,,1048.5652873,None,1047.3817782000006,1048.581866299999,a,1,孤单,l,1,0.38502820000030624,0.6133905999995477,szj,f,20,2024_Apr_12_1645,mian,2021.2.3,60.002004066915774,
,,,,,,,,,,,,pic/AffRest2.png,,,,,,,,,,,,,,,,,,,,,,,,,0,1,1,1,,,,,,,,,,,,,,,,,,,szj,f,20,2024_Apr_12_1645,mian,2021.2.3,60.002004066915774,
,,,,,,1,1,pic/flanker5.png,pic/flanker3.png,a,k,pic/AffRest3.png,,,,,,,,,,,,,,,,,,,,,,,,,0,2,2,2,0,0,0,52,,,,1061.314846199999,None,1060.1257896000006,1061.3319544999995,a,1,典雅,k,1,0.5215505999985908,0.6442609999994602,szj,f,20,2024_Apr_12_1645,mian,2021.2.3,60.002004066915774,
,,,,,,1,0,pic/flanker5.png,pic/flanker3.png,a,l,pic/AffRest3.png,,,,,,,,,,,,,,,,,,,,,,,,,0,2,2,2,0,1,1,15,,,,1064.4647879000004,None,1063.2819547,1064.4819504000006,a,1,焦躁,l,1,0.44790330000068934,0.5742396999994526,szj,f,20,2024_Apr_12_1645,mian,2021.2.3,60.002004066915774,
,,,,,,0,1,pic/flanker6.png,pic/flanker2.png,a,k,pic/AffRest3.png,,,,,,,,,,,,,,,,,,,,,,,,,0,2,2,2,0,2,2,34,,,,1067.4817679999996,None,1066.2985124999996,1067.4985668999998,a,1,有利,k,1,0.42590949999976147,0.570897600000535,szj,f,20,2024_Apr_12_1645,mian,2021.2.3,60.002004066915774,
,,,,,,0,1,pic/flanker5.png,pic/flanker1.png,s,k,pic/AffRest3.png,,,,,,,,,,,,,,,,,,,,,,,,,0,2,2,2,0,3,3,40,,,,1070.4151376999998,None,1069.2318257000006,1070.431894899999,s,1,生动,k,1,0.7257712999999058,0.5791401999995287,szj,f,20,2024_Apr_12_1645,mian,2021.2.3,60.002004066915774,
,,,,,,0,0,pic/flanker6.png,pic/flanker2.png,a,l,pic/AffRest3.png,,,,,,,,,,,,,,,,,,,,,,,,,0,2,2,2,0,4,4,25,,,,1073.5652792,None,1072.3818362999991,1073.5817050999995,a,1,轻率,l,1,0.47714059999998426,0.578304599999683,szj,f,20,2024_Apr_12_1645,mian,2021.2.3,60.002004066915774,
,,,,,,0,1,pic/flanker5.png,pic/flanker1.png,s,k,pic/AffRest3.png,,,,,,,,,,,,,,,,,,,,,,,,,0,2,2,2,0,5,5,32,,,,1076.6481268999996,None,1075.464588499999,1076.6647974999996,s,1,鲜艳,k,1,0.6282765999985713,0.4541891000008036,szj,f,20,2024_Apr_12_1645,mian,2021.2.3,60.002004066915774,
,,,,,,0,1,pic/flanker6.png,pic/flanker2.png,a,k,pic/AffRest3.png,,,,,,,,,,,,,,,,,,,,,,,,,0,2,2,2,0,6,6,50,,,,1079.7647259000005,None,1078.5812210000004,1079.7815683999997,a,1,羡慕,k,1,0.4543484999994689,0.5696952999987843,szj,f,20,2024_Apr_12_1645,mian,2021.2.3,60.002004066915774,
,,,,,,0,0,pic/flanker5.png,pic/flanker1.png,s,l,pic/AffRest3.png,,,,,,,,,,,,,,,,,,,,,,,,,0,2,2,2,0,7,7,11,,,,1082.6819331000006,None,1081.4985978000004,1082.6985738999992,s,1,鲁莽,l,1,0.38924559999941266,0.505736999999499,szj,f,20,2024_Apr_12_1645,mian,2021.2.3,60.002004066915774,
,,,,,,0,1,pic/flanker6.png,pic/flanker2.png,a,k,pic/AffRest3.png,,,,,,,,,,,,,,,,,,,,,,,,,0,2,2,2,0,8,8,66,,,,1085.5312826999998,None,1084.3486090000006,1085.547958199999,a,1,卓越,k,1,0.47891919999892707,0.5235458999995899,szj,f,20,2024_Apr_12_1645,mian,2021.2.3,60.002004066915774,
,,,,,,1,1,pic/flanker6.png,pic/flanker4.png,s,k,pic/AffRest3.png,,,,,,,,,,,,,,,,,,,,,,,,,0,2,2,2,0,9,9,62,,,,1088.5319600999992,None,1087.3484165999998,1088.5485599000003,s,1,廉洁,k,1,0.5309581000001344,1.1388667999999598,szj,f,20,2024_Apr_12_1645,mian,2021.2.3,60.002004066915774,
,,,,,,1,1,pic/flanker5.png,pic/flanker3.png,a,k,pic/AffRest3.png,,,,,,,,,,,,,,,,,,,,,,,,,0,2,2,2,0,10,10,20,,,,1092.1319932999995,None,1090.9487069999996,1092.1486200999989,a,1,丰满,k,1,0.48901909999949567,0.6341063999989274,szj,f,20,2024_Apr_12_1645,mian,2021.2.3,60.002004066915774,
,,,,,,1,1,pic/flanker6.png,pic/flanker4.png,s,k,pic/AffRest3.png,,,,,,,,,,,,,,,,,,,,,,,,,0,2,2,2,0,11,11,70,,,,1095.0985736000002,None,1093.915228599999,1095.115173799999,s,1,敬佩,k,1,0.48566570000002685,0.5680357000001095,szj,f,20,2024_Apr_12_1645,mian,2021.2.3,60.002004066915774,
,,,,,,1,0,pic/flanker5.png,pic/flanker3.png,a,l,pic/AffRest3.png,,,,,,,,,,,,,,,,,,,,,,,,,0,2,2,2,0,12,12,79,,,,1098.0485652000007,None,1096.8651938999992,1098.0646448999996,a,1,胡涂,l,1,0.4627018000010139,0.946858000001157,szj,f,20,2024_Apr_12_1645,mian,2021.2.3,60.002004066915774,
,,,,,,1,0,pic/flanker6.png,pic/flanker4.png,s,l,pic/AffRest3.png,,,,,,,,,,,,,,,,,,,,,,,,,0,2,2,2,0,13,13,53,,,,1101.3986604000002,None,1100.2153873000007,1101.4152290999991,s,1,忧虑,l,1,0.49501560000135214,0.7554381000009016,szj,f,20,2024_Apr_12_1645,mian,2021.2.3,60.002004066915774,
,,,,,,1,0,pic/flanker5.png,pic/flanker3.png,a,l,pic/AffRest3.png,,,,,,,,,,,,,,,,,,,,,,,,,0,2,2,2,0,14,14,39,,,,1104.6648050000003,None,1103.4812129999991,1104.681373899999,a,1,慌忙,l,1,0.6904164000006858,1.1768554999998742,szj,f,20,2024_Apr_12_1645,mian,2021.2.3,60.002004066915774,
,,,,,,1,0,pic/flanker6.png,pic/flanker4.png,s,l,pic/AffRest3.png,,,,,,,,,,,,,,,,,,,,,,,,,0,2,2,2,0,15,15,5,,,,1108.5487137,None,1107.3651291000006,1108.5652869000005,s,1,别扭,l,1,0.7613015000006271,0.7260834999997314,szj,f,20,2024_Apr_12_1645,mian,2021.2.3,60.002004066915774,
,,,,,,1,1,pic/flanker5.png,pic/flanker3.png,a,k,pic/AffRest3.png,,,,,,,,,,,,,,,,,,,,,,,,,0,2,2,2,0,16,16,68,,,,1111.9146858000004,None,1110.7319984999995,1111.9319469000002,a,1,热切,k,1,0.6155957999999373,0.693639200000689,szj,f,20,2024_Apr_12_1645,mian,2021.2.3,60.002004066915774,
,,,,,,1,1,pic/flanker6.png,pic/flanker4.png,s,k,pic/AffRest3.png,,,,,,,,,,,,,,,,,,,,,,,,,0,2,2,2,0,17,17,78,,,,1115.0650829000006,None,1113.8814710000006,1115.0817681999997,s,1,诚恳,k,1,0.5162169999985053,0.7361034999994445,szj,f,20,2024_Apr_12_1645,mian,2021.2.3,60.002004066915774,
,,,,,,0,0,pic/flanker5.png,pic/flanker1.png,s,l,pic/AffRest3.png,,,,,,,,,,,,,,,,,,,,,,,,,0,2,2,2,0,18,18,51,,,,1118.2486391000002,None,1117.0652332999998,1118.2646693999995,s,1,伤心,l,1,0.45838869999897724,0.612272700000176,szj,f,20,2024_Apr_12_1645,mian,2021.2.3,60.002004066915774,
,,,,,,0,0,pic/flanker5.png,pic/flanker1.png,s,l,pic/AffRest3.png,,,,,,,,,,,,,,,,,,,,,,,,,0,2,2,2,0,19,19,19,,,,1121.3485846000003,None,1120.1652954,1121.3645649999999,s,1,堵塞,l,1,0.4764958999985538,0.6110054000000673,szj,f,20,2024_Apr_12_1645,mian,2021.2.3,60.002004066915774,
,,,,,,1,0,pic/flanker5.png,pic/flanker3.png,a,l,pic/AffRest3.png,,,,,,,,,,,,,,,,,,,,,,,,,0,2,2,2,0,20,20,71,,,,1124.3146997000003,None,1123.1319535999992,1124.3315409999996,a,1,落后,l,1,0.5165030000007391,0.6135040999997727,szj,f,20,2024_Apr_12_1645,mian,2021.2.3,60.002004066915774,
,,,,,,1,0,pic/flanker6.png,pic/flanker4.png,s,l,pic/AffRest3.png,,,,,,,,,,,,,,,,,,,,,,,,,0,2,2,2,0,21,21,69,,,,1127.3653219999997,None,1126.1817224999995,1127.3821159,s,1,烦恼,l,1,0.4936827000001358,0.5799057000003813,szj,f,20,2024_Apr_12_1645,mian,2021.2.3,60.002004066915774,
,,,,,,1,0,pic/flanker5.png,pic/flanker3.png,a,l,pic/AffRest3.png,,,,,,,,,,,,,,,,,,,,,,,,,0,2,2,2,0,22,22,23,,,,1130.3652757,None,1129.1820172999996,1130.3818671999998,a,1,损害,l,1,0.6178411000000779,0.6118880999983958,szj,f,20,2024_Apr_12_1645,mian,2021.2.3,60.002004066915774,
,,,,,,0,0,pic/flanker5.png,pic/flanker1.png,s,l,pic/AffRest3.png,,,,,,,,,,,,,,,,,,,,,,,,,0,2,2,2,0,23,23,67,,,,1133.4987746000006,None,1132.3153502000005,1133.5154540999993,s,1,失意,l,1,0.5108597999987978,0.6123914999989211,szj,f,20,2024_Apr_12_1645,mian,2021.2.3,60.002004066915774,
,,,,,,1,1,pic/flanker5.png,pic/flanker3.png,a,k,pic/AffRest3.png,,,,,,,,,,,,,,,,,,,,,,,,,0,2,2,2,0,24,24,44,,,,1136.5318040000002,None,1135.3480476999994,1136.5484686,a,1,秀丽,k,1,0.689777800000229,0.6883973999993032,szj,f,20,2024_Apr_12_1645,mian,2021.2.3,60.002004066915774,
,,,,,,1,0,pic/flanker6.png,pic/flanker4.png,s,l,pic/AffRest3.png,,,,,,,,,,,,,,,,,,,,,,,,,0,2,2,2,0,25,25,61,,,,1139.9988441000005,None,1138.8153344000002,1140.0154399999992,s,1,懒惰,l,1,0.6207744999992428,0.5469133999995393,szj,f,20,2024_Apr_12_1645,mian,2021.2.3,60.002004066915774,
,,,,,,0,1,pic/flanker5.png,pic/flanker1.png,s,k,pic/AffRest3.png,,,,,,,,,,,,,,,,,,,,,,,,,0,2,2,2,0,26,26,0,,,,1143.0821178999995,None,1141.8985744000001,1143.0988722000002,s,1,瑰丽,k,1,0.5399620999996841,0.5224631000000954,szj,f,20,2024_Apr_12_1645,mian,2021.2.3,60.002004066915774,
,,,,,,0,1,pic/flanker5.png,pic/flanker1.png,s,k,pic/AffRest3.png,,,,,,,,,,,,,,,,,,,,,,,,,0,2,2,2,0,27,27,8,,,,1146.1321573999994,None,1144.9486089999991,1146.1487865,s,1,优雅,k,1,0.45537380000132544,0.5395021000003908,szj,f,20,2024_Apr_12_1645,mian,2021.2.3,60.002004066915774,
,,,,,,1,1,pic/flanker5.png,pic/flanker3.png,a,k,pic/AffRest3.png,,,,,,,,,,,,,,,,,,,,,,,,,0,2,2,2,0,28,28,76,,,,1149.0653505999999,None,1147.8819968999996,1149.0819871999993,a,1,吉祥,k,1,0.49021089999951073,0.584979299999759,szj,f,20,2024_Apr_12_1645,mian,2021.2.3,60.002004066915774,
,,,,,,1,0,pic/flanker6.png,pic/flanker4.png,s,l,pic/AffRest3.png,,,,,,,,,,,,,,,,,,,,,,,,,0,2,2,2,0,29,29,37,,,,1152.1488114000003,None,1150.9654537000006,1152.165460099999,s,1,闷热,l,1,0.5101146999986668,0.8058196999991196,szj,f,20,2024_Apr_12_1645,mian,2021.2.3,60.002004066915774,
,,,,,,1,0,pic/flanker5.png,pic/flanker3.png,a,l,pic/AffRest3.png,,,,,,,,,,,,,,,,,,,,,,,,,0,2,2,2,0,30,30,55,,,,1155.3819440999996,None,1154.1986035999998,1155.3986982999995,a,1,罚款,l,1,0.5362882999997964,0.6180057000001398,szj,f,20,2024_Apr_12_1645,mian,2021.2.3,60.002004066915774,
,,,,,,0,0,pic/flanker5.png,pic/flanker1.png,s,l,pic/AffRest3.png,,,,,,,,,,,,,,,,,,,,,,,,,0,2,2,2,0,31,31,27,,,,1158.3821136999995,None,1157.198661299999,1158.3988530999995,s,1,缺乏,l,1,0.5063845999993646,0.6242394000000786,szj,f,20,2024_Apr_12_1645,mian,2021.2.3,60.002004066915774,
,,,,,,0,1,pic/flanker6.png,pic/flanker2.png,a,k,pic/AffRest3.png,,,,,,,,,,,,,,,,,,,,,,,,,0,2,2,2,0,32,32,42,,,,1161.598696699999,None,1160.4152144,1161.6153121999996,a,1,永恒,k,1,0.6166339999999764,0.644426900000326,szj,f,20,2024_Apr_12_1645,mian,2021.2.3,60.002004066915774,
,,,,,,0,1,pic/flanker5.png,pic/flanker1.png,s,k,pic/AffRest3.png,,,,,,,,,,,,,,,,,,,,,,,,,0,2,2,2,0,33,33,24,,,,1164.7654158999994,None,1163.5819699999993,1164.7820441000003,s,1,前进,k,1,0.5315887999986444,0.5418735000002926,szj,f,20,2024_Apr_12_1645,mian,2021.2.3,60.002004066915774,
,,,,,,1,1,pic/flanker6.png,pic/flanker4.png,s,k,pic/AffRest3.png,,,,,,,,,,,,,,,,,,,,,,,,,0,2,2,2,0,34,34,38,,,,1167.7820147000002,None,1166.5987112000003,1167.7986633,s,1,圣洁,k,1,0.5388208000003942,0.7063577999997506,szj,f,20,2024_Apr_12_1645,mian,2021.2.3,60.002004066915774,
,,,,,,1,1,pic/flanker5.png,pic/flanker3.png,a,k,pic/AffRest3.png,,,,,,,,,,,,,,,,,,,,,,,,,0,2,2,2,0,35,35,60,,,,1171.0652479,None,1169.8819874,1171.0819073000002,a,1,舒畅,k,1,0.574303699999291,0.5339534999984608,szj,f,20,2024_Apr_12_1645,mian,2021.2.3,60.002004066915774,
,,,,,,1,1,pic/flanker6.png,pic/flanker4.png,s,k,pic/AffRest3.png,,,,,,,,,,,,,,,,,,,,,,,,,0,2,2,2,0,36,36,22,,,,1174.1152629999997,None,1172.931940299999,1174.1320727000002,s,1,正直,k,1,0.47157049999987066,1.0694720999999845,szj,f,20,2024_Apr_12_1645,mian,2021.2.3,60.002004066915774,
,,,,,,0,0,pic/flanker5.png,pic/flanker1.png,s,l,pic/AffRest3.png,,,,,,,,,,,,,,,,,,,,,,,,,0,2,2,2,0,37,37,35,,,,1177.4987086,None,1176.3151940999996,1177.5152429999998,s,1,悲观,l,1,0.379456200000277,0.6570898000009038,szj,f,20,2024_Apr_12_1645,mian,2021.2.3,60.002004066915774,
,,,,,,0,0,pic/flanker5.png,pic/flanker1.png,s,l,pic/AffRest3.png,,,,,,,,,,,,,,,,,,,,,,,,,0,2,2,2,0,38,38,75,,,,1180.515300699999,None,1179.3319950999994,1180.5320271,s,1,消沉,l,1,0.489458600000944,0.5937138999997842,szj,f,20,2024_Apr_12_1645,mian,2021.2.3,60.002004066915774,
,,,,,,1,1,pic/flanker5.png,pic/flanker3.png,a,k,pic/AffRest3.png,,,,,,,,,,,,,,,,,,,,,,,,,0,2,2,2,0,39,39,28,,,,1183.6319179000002,None,1182.4486445000002,1183.6487479999996,a,1,清秀,k,1,0.6838584999986779,0.5901613000005455,szj,f,20,2024_Apr_12_1645,mian,2021.2.3,60.002004066915774,
,,,,,,1,0,pic/flanker6.png,pic/flanker4.png,s,l,pic/AffRest3.png,,,,,,,,,,,,,,,,,,,,,,,,,0,2,2,2,0,40,40,29,,,,1186.7486059999992,None,1185.5653055000002,1186.7654038,s,1,丢失,l,1,0.5251590000007127,0.6184272000009514,szj,f,20,2024_Apr_12_1645,mian,2021.2.3,60.002004066915774,
,,,,,,1,1,pic/flanker5.png,pic/flanker3.png,a,k,pic/AffRest3.png,,,,,,,,,,,,,,,,,,,,,,,,,0,2,2,2,0,41,41,36,,,,1189.8818689,None,1188.6985671000002,1189.8986365,a,1,俊秀,k,1,0.5757485000012821,0.6036958000004233,szj,f,20,2024_Apr_12_1645,mian,2021.2.3,60.002004066915774,
,,,,,,1,0,pic/flanker5.png,pic/flanker3.png,a,l,pic/AffRest3.png,,,,,,,,,,,,,,,,,,,,,,,,,0,2,2,2,0,42,42,31,,,,1193.048569999999,None,1191.8652657000002,1193.0651309000004,a,1,厌恶,l,1,0.7814612000001944,0.5731573000011849,szj,f,20,2024_Apr_12_1645,mian,2021.2.3,60.002004066915774,
,,,,,,1,0,pic/flanker5.png,pic/flanker3.png,a,l,pic/AffRest3.png,,,,,,,,,,,,,,,,,,,,,,,,,0,2,2,2,0,43,43,63,,,,1196.2319716999991,None,1195.0485384999993,1196.2486898000006,a,1,浪费,l,1,0.5595541999991838,0.5414635999986785,szj,f,20,2024_Apr_12_1645,mian,2021.2.3,60.002004066915774,
,,,,,,0,0,pic/flanker6.png,pic/flanker2.png,a,l,pic/AffRest3.png,,,,,,,,,,,,,,,,,,,,,,,,,0,2,2,2,0,44,44,41,,,,1199.1988141000002,None,1198.0153014999996,1199.2154544000005,a,1,假冒,l,1,0.5947869999999966,1.030952500001149,szj,f,20,2024_Apr_12_1645,mian,2021.2.3,60.002004066915774,
,,,,,,0,0,pic/flanker5.png,pic/flanker1.png,s,l,pic/AffRest3.png,,,,,,,,,,,,,,,,,,,,,,,,,0,2,2,2,0,45,45,59,,,,1202.8319351999999,None,1201.6485830000001,1202.8485695999989,s,1,心慌,l,1,0.7747608000008768,0.7702747000003001,szj,f,20,2024_Apr_12_1645,mian,2021.2.3,60.002004066915774,
,,,,,,0,0,pic/flanker6.png,pic/flanker2.png,a,l,pic/AffRest3.png,,,,,,,,,,,,,,,,,,,,,,,,,0,2,2,2,0,46,46,65,,,,1206.2155041999995,None,1205.0320661000005,1206.2320920000002,a,1,逃避,l,1,0.7102613000006386,0.6990574999999808,szj,f,20,2024_Apr_12_1645,mian,2021.2.3,60.002004066915774,
,,,,,,1,1,pic/flanker5.png,pic/flanker3.png,a,k,pic/AffRest3.png,,,,,,,,,,,,,,,,,,,,,,,,,0,2,2,2,0,47,47,12,,,,1209.4985706000007,None,1208.3154405999994,1209.5153805999998,a,1,留恋,k,1,0.6555607999998756,1.3249576999987767,szj,f,20,2024_Apr_12_1645,mian,2021.2.3,60.002004066915774,
,,,,,,1,1,pic/flanker6.png,pic/flanker4.png,s,k,pic/AffRest3.png,,,,,,,,,,,,,,,,,,,,,,,,,0,2,2,2,0,48,48,54,,,,1213.4653674,None,1212.2820778000005,1213.482034499999,s,1,享受,k,1,0.5788849000000482,0.7297822999989876,szj,f,20,2024_Apr_12_1645,mian,2021.2.3,60.002004066915774,
,,,,,,1,1,pic/flanker5.png,pic/flanker3.png,a,k,pic/AffRest3.png,,,,,,,,,,,,,,,,,,,,,,,,,0,2,2,2,0,49,49,4,,,,1216.6654443000007,None,1215.4818749999995,1216.6818036999994,a,1,振作,k,1,0.5679548999996769,0.693974600000729,szj,f,20,2024_Apr_12_1645,mian,2021.2.3,60.002004066915774,
,,,,,,0,1,pic/flanker5.png,pic/flanker1.png,s,k,pic/AffRest3.png,,,,,,,,,,,,,,,,,,,,,,,,,0,2,2,2,0,50,50,48,,,,1219.8652860999991,None,1218.6816061999998,1219.8820890000006,s,1,富足,k,1,0.7166565999996237,0.5883955999997852,szj,f,20,2024_Apr_12_1645,mian,2021.2.3,60.002004066915774,
,,,,,,0,0,pic/flanker5.png,pic/flanker1.png,s,l,pic/AffRest3.png,,,,,,,,,,,,,,,,,,,,,,,,,0,2,2,2,0,51,51,43,,,,1223.0152978000006,None,1221.8320672999998,1223.0319846999992,s,1,嘲笑,l,1,0.4636394000008295,0.6272029000010662,szj,f,20,2024_Apr_12_1645,mian,2021.2.3,60.002004066915774,
,,,,,,1,0,pic/flanker6.png,pic/flanker4.png,s,l,pic/AffRest3.png,,,,,,,,,,,,,,,,,,,,,,,,,0,2,2,2,0,52,52,13,,,,1226.0321086999993,None,1224.8487258000005,1226.0485544999992,s,1,撒谎,l,1,0.5360526999993454,0.7068648000004032,szj,f,20,2024_Apr_12_1645,mian,2021.2.3,60.002004066915774,
,,,,,,0,1,pic/flanker6.png,pic/flanker2.png,a,k,pic/AffRest3.png,,,,,,,,,,,,,,,,,,,,,,,,,0,2,2,2,0,53,53,26,,,,1229.2487261000006,None,1228.0650363999994,1229.2652318,a,1,畅销,k,1,0.48745969999981753,0.604890600001454,szj,f,20,2024_Apr_12_1645,mian,2021.2.3,60.002004066915774,
,,,,,,1,0,pic/flanker5.png,pic/flanker3.png,a,l,pic/AffRest3.png,,,,,,,,,,,,,,,,,,,,,,,,,0,2,2,2,0,54,54,7,,,,1232.2987656999994,None,1231.1153030999994,1232.3153222,a,1,排斥,l,1,0.5554308999999193,0.7028338999989501,szj,f,20,2024_Apr_12_1645,mian,2021.2.3,60.002004066915774,
,,,,,,0,1,pic/flanker6.png,pic/flanker2.png,a,k,pic/AffRest3.png,,,,,,,,,,,,,,,,,,,,,,,,,0,2,2,2,0,55,55,2,,,,1235.5819515999992,None,1234.3987581000001,1235.5987141999994,a,1,豪放,k,1,0.5149627000009787,0.62743909999881,szj,f,20,2024_Apr_12_1645,mian,2021.2.3,60.002004066915774,
,,,,,,1,1,pic/flanker6.png,pic/flanker4.png,s,k,pic/AffRest3.png,,,,,,,,,,,,,,,,,,,,,,,,,0,2,2,2,0,56,56,46,,,,1238.6988278999997,None,1237.5154191000001,1238.7153626999989,s,1,珍藏,l,0,0.6010022000009485,0.7124258000003465,szj,f,20,2024_Apr_12_1645,mian,2021.2.3,60.002004066915774,
,,,,,,0,1,pic/flanker6.png,pic/flanker2.png,a,k,pic/AffRest3.png,,,,,,,,,,,,,,,,,,,,,,,,,0,2,2,2,0,57,57,74,,,,1241.9487649999992,None,1240.7652933999998,1241.9653325,a,1,公平,k,1,0.4849398000005749,0.6692528999992646,szj,f,20,2024_Apr_12_1645,mian,2021.2.3,60.002004066915774,
,,,,,,0,0,pic/flanker6.png,pic/flanker2.png,a,l,pic/AffRest3.png,,,,,,,,,,,,,,,,,,,,,,,,,0,2,2,2,0,58,58,9,,,,1244.9482286000002,None,1243.7654349999993,1244.9649776999995,a,1,冷笑,l,1,0.39002829999844835,0.6411361999998917,szj,f,20,2024_Apr_12_1645,mian,2021.2.3,60.002004066915774,
,,,,,,0,0,pic/flanker6.png,pic/flanker2.png,a,l,pic/AffRest3.png,,,,,,,,,,,,,,,,,,,,,,,,,0,2,2,2,0,59,59,73,,,,1247.8654938,None,1246.6820580000003,1247.8821559999997,a,1,孤单,l,1,0.547785799999474,1.0946765000007872,szj,f,20,2024_Apr_12_1645,mian,2021.2.3,60.002004066915774,
,,,,,,1,1,pic/flanker6.png,pic/flanker4.png,s,k,pic/AffRest3.png,,,,,,,,,,,,,,,,,,,,,,,,,0,2,2,2,0,60,60,30,,,,1251.3487932999997,None,1250.1654230999993,1251.3653818000003,s,1,雄厚,k,1,0.5674430999988544,0.6567852000007406,szj,f,20,2024_Apr_12_1645,mian,2021.2.3,60.002004066915774,
,,,,,,1,0,pic/flanker6.png,pic/flanker4.png,s,l,pic/AffRest3.png,,,,,,,,,,,,,,,,,,,,,,,,,0,2,2,2,0,61,61,45,,,,1254.6154852,None,1253.432007899999,1254.6319065999996,s,1,禁止,l,1,0.5041803999993135,0.8897710000001098,szj,f,20,2024_Apr_12_1645,mian,2021.2.3,60.002004066915774,
,,,,,,1,0,pic/flanker6.png,pic/flanker4.png,s,l,pic/AffRest3.png,,,,,,,,,,,,,,,,,,,,,,,,,0,2,2,2,0,62,62,21,,,,1257.9987031,None,1256.8153516000002,1258.0151786000006,s,1,怀疑,l,1,0.4769643999989057,0.6121738000001642,szj,f,20,2024_Apr_12_1645,mian,2021.2.3,60.002004066915774,
,,,,,,0,1,pic/flanker5.png,pic/flanker1.png,s,k,pic/AffRest3.png,,,,,,,,,,,,,,,,,,,,,,,,,0,2,2,2,0,63,63,16,,,,1261.0654271999992,None,1259.8820811999994,1261.0819806,s,1,富丽,k,1,0.41714540000066336,0.5703608000003442,szj,f,20,2024_Apr_12_1645,mian,2021.2.3,60.002004066915774,
,,,,,,0,1,pic/flanker5.png,pic/flanker1.png,s,k,pic/AffRest3.png,,,,,,,,,,,,,,,,,,,,,,,,,0,2,2,2,0,64,64,64,,,,1263.9488901000004,None,1262.7653209,1263.9653533,s,1,奉献,k,1,0.4839852000004612,0.5954741000005015,szj,f,20,2024_Apr_12_1645,mian,2021.2.3,60.002004066915774,
,,,,,,0,0,pic/flanker5.png,pic/flanker1.png,s,l,pic/AffRest3.png,,,,,,,,,,,,,,,,,,,,,,,,,0,2,2,2,0,65,65,3,,,,1267.0653867,None,1265.881998499999,1267.0821252999995,s,1,处罚,l,1,0.45043919999989157,0.623508500000753,szj,f,20,2024_Apr_12_1645,mian,2021.2.3,60.002004066915774,
,,,,,,0,1,pic/flanker5.png,pic/flanker1.png,s,k,pic/AffRest3.png,,,,,,,,,,,,,,,,,,,,,,,,,0,2,2,2,0,66,66,56,,,,1270.0486445999995,None,1268.8654626999996,1270.0653903999992,s,1,赞成,k,1,0.4442994999990333,0.5945642000006046,szj,f,20,2024_Apr_12_1645,mian,2021.2.3,60.002004066915774,
,,,,,,1,1,pic/flanker6.png,pic/flanker4.png,s,k,pic/AffRest3.png,,,,,,,,,,,,,,,,,,,,,,,,,0,2,2,2,0,67,67,14,,,,1273.1321074999996,None,1271.9485406999993,1273.1486380000006,s,1,精致,k,1,0.46155279999948107,1.0648252999999386,szj,f,20,2024_Apr_12_1645,mian,2021.2.3,60.002004066915774,
,,,,,,1,0,pic/flanker6.png,pic/flanker4.png,s,l,pic/AffRest3.png,,,,,,,,,,,,,,,,,,,,,,,,,0,2,2,2,0,68,68,77,,,,1276.5154211999998,None,1275.3320067999994,1276.532008799999,s,1,争吵,l,1,0.4995968000002904,0.5863812000006874,szj,f,20,2024_Apr_12_1645,mian,2021.2.3,60.002004066915774,
,,,,,,0,1,pic/flanker5.png,pic/flanker1.png,s,k,pic/AffRest3.png,,,,,,,,,,,,,,,,,,,,,,,,,0,2,2,2,0,69,69,72,,,,1279.5155059999997,None,1278.3320660999998,1279.5315303000007,s,1,爽朗,k,1,0.42827570000008564,0.615233000000444,szj,f,20,2024_Apr_12_1645,mian,2021.2.3,60.002004066915774,
,,,,,,0,0,pic/flanker6.png,pic/flanker2.png,a,l,pic/AffRest3.png,,,,,,,,,,,,,,,,,,,,,,,,,0,2,2,2,0,70,70,17,,,,1282.481608099999,None,1281.2981607000002,1282.4983764999997,a,1,穷苦,l,1,0.7219485999994504,0.8309549999994488,szj,f,20,2024_Apr_12_1645,mian,2021.2.3,60.002004066915774,
