target,反应类型,条件,truetarget,CorAns,Position,congruency,AffValue,flankerPic,targetPic,corAnsF,corAnsA,RestPic,returnPractice.thisRepN,returnPractice.thisTrialN,returnPractice.thisN,returnPractice.thisIndex,pracNum.thisRepN,pracNum.thisTrialN,pracNum.thisN,pracNum.thisIndex,NumBlock1.thisRepN,NumBlock1.thisTrialN,NumBlock1.thisN,NumBlock1.thisIndex,NumBlock2.thisRepN,NumBlock2.thisTrialN,NumBlock2.thisN,NumBlock2.thisIndex,returnPrac.thisRepN,returnPrac.thisTrialN,returnPrac.thisN,returnPrac.thisIndex,PracAff.thisRepN,PracAff.thisTrialN,PracAff.thisN,PracAff.thisIndex,AffBlocks.thisRepN,AffBlocks.thisTrialN,AffBlocks.thisN,AffBlocks.thisIndex,AffBlock1.thisRepN,AffBlock1.thisTrialN,AffBlock1.thisN,AffBlock1.thisIndex,respNum2word.keys,respNum2word.corr,respNum2word.rt,text.started,text.stopped,blank.started,blank.stopped,respFlanker.keys,respFlanker.corr,respFlanker.rt,thisWord,respAffWord.keys,respAffWord.corr,respAffWord.rt,姓名,性别,年龄（周岁）,date,expName,psychopyVersion,frameRate,
2A,1,1,A,a,"[0.2, 0.2]",,,,,,,,0,0,0,0,0,0,0,0,,,,,,,,,,,,,,,,,,,,,,,,,a,1,1.5224464999992051,,,,,,,,,,,,wpr,f,22,2024_Apr_18_1014,mian,2021.2.3,59.82965301208568,
A9,1,2,A,a,"[-0.2, 0.2]",,,,,,,,0,0,0,0,0,1,1,1,,,,,,,,,,,,,,,,,,,,,,,,,a,1,1.129635999999664,,,,,,,,,,,,wpr,f,22,2024_Apr_18_1014,mian,2021.2.3,59.82965301208568,
7e,2,1,7.0,a,"[-0.2, -0.2]",,,,,,,,0,0,0,0,0,2,2,2,,,,,,,,,,,,,,,,,,,,,,,,,a,1,1.7183299999996962,,,,,,,,,,,,wpr,f,22,2024_Apr_18_1014,mian,2021.2.3,59.82965301208568,
9H,2,2,9.0,a,"[0.2, -0.2]",,,,,,,,0,0,0,0,0,3,3,3,,,,,,,,,,,,,,,,,,,,,,,,,a,1,1.2657908000001044,,,,,,,,,,,,wpr,f,22,2024_Apr_18_1014,mian,2021.2.3,59.82965301208568,
h4,1,1,h,l,"[0.2, 0.2]",,,,,,,,0,0,0,0,0,4,4,4,,,,,,,,,,,,,,,,,,,,,,,,,l,1,1.2226262999993196,,,,,,,,,,,,wpr,f,22,2024_Apr_18_1014,mian,2021.2.3,59.82965301208568,
4H,1,2,H,a,"[-0.2, 0.2]",,,,,,,,0,0,0,0,0,5,5,5,,,,,,,,,,,,,,,,,,,,,,,,,a,1,0.740506699999969,,,,,,,,,,,,wpr,f,22,2024_Apr_18_1014,mian,2021.2.3,59.82965301208568,
F8,2,1,8.0,l,"[-0.2, -0.2]",,,,,,,,0,0,0,0,0,6,6,6,,,,,,,,,,,,,,,,,,,,,,,,,a,0,0.7804646999993565,,,,,,,,,,,,wpr,f,22,2024_Apr_18_1014,mian,2021.2.3,59.82965301208568,
h7,2,2,7.0,a,"[0.2, -0.2]",,,,,,,,0,0,0,0,0,7,7,7,,,,,,,,,,,,,,,,,,,,,,,,,l,0,0.9600954999996247,,,,,,,,,,,,wpr,f,22,2024_Apr_18_1014,mian,2021.2.3,59.82965301208568,
5e,1,1,e,l,"[0.2, 0.2]",,,,,,,,0,0,0,0,0,8,8,8,,,,,,,,,,,,,,,,,,,,,,,,,a,0,1.0969815000007657,,,,,,,,,,,,wpr,f,22,2024_Apr_18_1014,mian,2021.2.3,59.82965301208568,
e8,1,2,e,l,"[-0.2, 0.2]",,,,,,,,0,0,0,0,0,9,9,9,,,,,,,,,,,,,,,,,,,,,,,,,l,1,0.8990505000001576,,,,,,,,,,,,wpr,f,22,2024_Apr_18_1014,mian,2021.2.3,59.82965301208568,
4E,2,1,4.0,l,"[-0.2, -0.2]",,,,,,,,0,0,0,0,0,10,10,10,,,,,,,,,,,,,,,,,,,,,,,,,l,1,1.4377046000008704,,,,,,,,,,,,wpr,f,22,2024_Apr_18_1014,mian,2021.2.3,59.82965301208568,
5H,2,2,5.0,a,"[0.2, -0.2]",,,,,,,,0,0,0,0,0,11,11,11,,,,,,,,,,,,,,,,,,,,,,,,,a,1,0.8858735000003435,,,,,,,,,,,,wpr,f,22,2024_Apr_18_1014,mian,2021.2.3,59.82965301208568,
9E,1,1,E,a,"[0.2, 0.2]",,,,,,,,0,0,0,0,0,12,12,12,,,,,,,,,,,,,,,,,,,,,,,,,a,1,1.6887833999999202,,,,,,,,,,,,wpr,f,22,2024_Apr_18_1014,mian,2021.2.3,59.82965301208568,
h9,1,2,h,l,"[-0.2, 0.2]",,,,,,,,0,0,0,0,0,13,13,13,,,,,,,,,,,,,,,,,,,,,,,,,l,1,1.3013467000000674,,,,,,,,,,,,wpr,f,22,2024_Apr_18_1014,mian,2021.2.3,59.82965301208568,
2a,2,1,2.0,l,"[-0.2, -0.2]",,,,,,,,0,0,0,0,0,14,14,14,,,,,,,,,,,,,,,,,,,,,,,,,l,1,1.6954516999994667,,,,,,,,,,,,wpr,f,22,2024_Apr_18_1014,mian,2021.2.3,59.82965301208568,
e5,2,2,5.0,a,"[0.2, -0.2]",,,,,,,,0,0,0,0,0,15,15,15,,,,,,,,,,,,,,,,,,,,,,,,,l,0,1.2357891000001473,,,,,,,,,,,,wpr,f,22,2024_Apr_18_1014,mian,2021.2.3,59.82965301208568,
A5,1,1,A,a,"[0.2, 0.2]",,,,,,,,0,0,0,0,0,16,16,16,,,,,,,,,,,,,,,,,,,,,,,,,a,1,1.1960034000003361,,,,,,,,,,,,wpr,f,22,2024_Apr_18_1014,mian,2021.2.3,59.82965301208568,
a6,1,2,a,l,"[-0.2, 0.2]",,,,,,,,0,0,0,0,0,17,17,17,,,,,,,,,,,,,,,,,,,,,,,,,l,1,1.1652005000005374,,,,,,,,,,,,wpr,f,22,2024_Apr_18_1014,mian,2021.2.3,59.82965301208568,
2F,2,1,2.0,l,"[-0.2, -0.2]",,,,,,,,0,0,0,0,0,18,18,18,,,,,,,,,,,,,,,,,,,,,,,,,l,1,1.5862784999999349,,,,,,,,,,,,wpr,f,22,2024_Apr_18_1014,mian,2021.2.3,59.82965301208568,
e4,2,2,4.0,l,"[0.2, -0.2]",,,,,,,,0,0,0,0,0,19,19,19,,,,,,,,,,,,,,,,,,,,,,,,,l,1,1.0755794000006063,,,,,,,,,,,,wpr,f,22,2024_Apr_18_1014,mian,2021.2.3,59.82965301208568,
,,,,,,,,,,,,,0,0,0,0,,,,,,,,,,,,,,,,,,,,,,,,,,,,,,,,,,,,,,,,,,,wpr,f,22,2024_Apr_18_1014,mian,2021.2.3,59.82965301208568,
7h,1,1,h,l,"[0.2, 0.2]",,,,,,,,,,,,,,,,0,0,0,0,,,,,,,,,,,,,,,,,,,,,a,0,1.503981500000009,,,,,,,,,,,,wpr,f,22,2024_Apr_18_1014,mian,2021.2.3,59.82965301208568,
8F,1,2,F,a,"[-0.2, 0.2]",,,,,,,,,,,,,,,,0,1,1,1,,,,,,,,,,,,,,,,,,,,,a,1,0.8662657000004401,,,,,,,,,,,,wpr,f,22,2024_Apr_18_1014,mian,2021.2.3,59.82965301208568,
8h,2,1,8.0,l,"[-0.2, -0.2]",,,,,,,,,,,,,,,,0,2,2,2,,,,,,,,,,,,,,,,,,,,,l,1,1.3343959000003451,,,,,,,,,,,,wpr,f,22,2024_Apr_18_1014,mian,2021.2.3,59.82965301208568,
a2,2,2,2.0,l,"[0.2, -0.2]",,,,,,,,,,,,,,,,0,3,3,3,,,,,,,,,,,,,,,,,,,,,a,0,1.1829767999997785,,,,,,,,,,,,wpr,f,22,2024_Apr_18_1014,mian,2021.2.3,59.82965301208568,
8f,1,1,f,l,"[0.2, 0.2]",,,,,,,,,,,,,,,,0,4,4,4,,,,,,,,,,,,,,,,,,,,,a,0,2.834537500000806,,,,,,,,,,,,wpr,f,22,2024_Apr_18_1014,mian,2021.2.3,59.82965301208568,
6a,1,2,a,l,"[-0.2, 0.2]",,,,,,,,,,,,,,,,0,5,5,5,,,,,,,,,,,,,,,,,,,,,l,1,2.8669608000000153,,,,,,,,,,,,wpr,f,22,2024_Apr_18_1014,mian,2021.2.3,59.82965301208568,
h6,2,1,6.0,l,"[-0.2, -0.2]",,,,,,,,,,,,,,,,0,6,6,6,,,,,,,,,,,,,,,,,,,,,l,1,1.5437243000005765,,,,,,,,,,,,wpr,f,22,2024_Apr_18_1014,mian,2021.2.3,59.82965301208568,
f9,2,2,9.0,a,"[0.2, -0.2]",,,,,,,,,,,,,,,,0,7,7,7,,,,,,,,,,,,,,,,,,,,,a,1,1.4502016000005824,,,,,,,,,,,,wpr,f,22,2024_Apr_18_1014,mian,2021.2.3,59.82965301208568,
E4,1,1,E,a,"[0.2, 0.2]",,,,,,,,,,,,,,,,0,8,8,8,,,,,,,,,,,,,,,,,,,,,a,1,1.2749872000003961,,,,,,,,,,,,wpr,f,22,2024_Apr_18_1014,mian,2021.2.3,59.82965301208568,
6e,1,2,e,l,"[-0.2, 0.2]",,,,,,,,,,,,,,,,0,9,9,9,,,,,,,,,,,,,,,,,,,,,l,1,1.5018175999994128,,,,,,,,,,,,wpr,f,22,2024_Apr_18_1014,mian,2021.2.3,59.82965301208568,
5G,2,1,5.0,a,"[-0.2, -0.2]",,,,,,,,,,,,,,,,0,10,10,10,,,,,,,,,,,,,,,,,,,,,a,1,1.3819321999999374,,,,,,,,,,,,wpr,f,22,2024_Apr_18_1014,mian,2021.2.3,59.82965301208568,
h3,2,2,3.0,a,"[0.2, -0.2]",,,,,,,,,,,,,,,,0,11,11,11,,,,,,,,,,,,,,,,,,,,,a,1,2.2100162000006094,,,,,,,,,,,,wpr,f,22,2024_Apr_18_1014,mian,2021.2.3,59.82965301208568,
9e,1,1,e,l,"[0.2, 0.2]",,,,,,,,,,,,,,,,0,12,12,12,,,,,,,,,,,,,,,,,,,,,l,1,2.4962522000005265,,,,,,,,,,,,wpr,f,22,2024_Apr_18_1014,mian,2021.2.3,59.82965301208568,
a8,1,2,a,l,"[-0.2, 0.2]",,,,,,,,,,,,,,,,0,13,13,13,,,,,,,,,,,,,,,,,,,,,l,1,1.0549780999999712,,,,,,,,,,,,wpr,f,22,2024_Apr_18_1014,mian,2021.2.3,59.82965301208568,
e8,2,1,8.0,l,"[-0.2, -0.2]",,,,,,,,,,,,,,,,0,14,14,14,,,,,,,,,,,,,,,,,,,,,a,0,3.8281981999998607,,,,,,,,,,,,wpr,f,22,2024_Apr_18_1014,mian,2021.2.3,59.82965301208568,
3f,2,2,3.0,a,"[0.2, -0.2]",,,,,,,,,,,,,,,,0,15,15,15,,,,,,,,,,,,,,,,,,,,,a,1,1.906961499999852,,,,,,,,,,,,wpr,f,22,2024_Apr_18_1014,mian,2021.2.3,59.82965301208568,
7f,1,1,f,l,"[0.2, 0.2]",,,,,,,,,,,,,,,,0,16,16,16,,,,,,,,,,,,,,,,,,,,,l,1,0.9761782999994466,,,,,,,,,,,,wpr,f,22,2024_Apr_18_1014,mian,2021.2.3,59.82965301208568,
a7,1,2,a,l,"[-0.2, 0.2]",,,,,,,,,,,,,,,,0,17,17,17,,,,,,,,,,,,,,,,,,,,,l,1,1.0312924999998359,,,,,,,,,,,,wpr,f,22,2024_Apr_18_1014,mian,2021.2.3,59.82965301208568,
5A,2,1,5.0,a,"[-0.2, -0.2]",,,,,,,,,,,,,,,,0,18,18,18,,,,,,,,,,,,,,,,,,,,,l,0,1.6875405999999202,,,,,,,,,,,,wpr,f,22,2024_Apr_18_1014,mian,2021.2.3,59.82965301208568,
8g,2,2,8.0,l,"[0.2, -0.2]",,,,,,,,,,,,,,,,0,19,19,19,,,,,,,,,,,,,,,,,,,,,l,1,2.770312499999818,,,,,,,,,,,,wpr,f,22,2024_Apr_18_1014,mian,2021.2.3,59.82965301208568,
9a,1,1,a,l,"[0.2, 0.2]",,,,,,,,,,,,,,,,0,20,20,20,,,,,,,,,,,,,,,,,,,,,l,1,2.6288806000002296,,,,,,,,,,,,wpr,f,22,2024_Apr_18_1014,mian,2021.2.3,59.82965301208568,
f7,1,2,f,l,"[-0.2, 0.2]",,,,,,,,,,,,,,,,0,21,21,21,,,,,,,,,,,,,,,,,,,,,l,1,0.879581600000165,,,,,,,,,,,,wpr,f,22,2024_Apr_18_1014,mian,2021.2.3,59.82965301208568,
g9,2,1,9.0,a,"[-0.2, -0.2]",,,,,,,,,,,,,,,,0,22,22,22,,,,,,,,,,,,,,,,,,,,,None,0,,,,,,,,,,,,,wpr,f,22,2024_Apr_18_1014,mian,2021.2.3,59.82965301208568,
3h,2,2,3.0,a,"[0.2, -0.2]",,,,,,,,,,,,,,,,0,23,23,23,,,,,,,,,,,,,,,,,,,,,a,1,0.8241473999996742,,,,,,,,,,,,wpr,f,22,2024_Apr_18_1014,mian,2021.2.3,59.82965301208568,
E6,1,1,E,a,"[0.2, 0.2]",,,,,,,,,,,,,,,,0,24,24,24,,,,,,,,,,,,,,,,,,,,,a,1,0.7856515000003128,,,,,,,,,,,,wpr,f,22,2024_Apr_18_1014,mian,2021.2.3,59.82965301208568,
F6,1,2,F,a,"[-0.2, 0.2]",,,,,,,,,,,,,,,,0,25,25,25,,,,,,,,,,,,,,,,,,,,,a,1,0.7786661999998614,,,,,,,,,,,,wpr,f,22,2024_Apr_18_1014,mian,2021.2.3,59.82965301208568,
3A,2,1,3.0,a,"[-0.2, -0.2]",,,,,,,,,,,,,,,,0,26,26,26,,,,,,,,,,,,,,,,,,,,,a,1,1.6483447000000524,,,,,,,,,,,,wpr,f,22,2024_Apr_18_1014,mian,2021.2.3,59.82965301208568,
8H,2,2,8.0,l,"[0.2, -0.2]",,,,,,,,,,,,,,,,0,27,27,27,,,,,,,,,,,,,,,,,,,,,l,1,0.626533699999527,,,,,,,,,,,,wpr,f,22,2024_Apr_18_1014,mian,2021.2.3,59.82965301208568,
5a,1,1,a,l,"[0.2, 0.2]",,,,,,,,,,,,,,,,0,28,28,28,,,,,,,,,,,,,,,,,,,,,l,1,1.5352186999998594,,,,,,,,,,,,wpr,f,22,2024_Apr_18_1014,mian,2021.2.3,59.82965301208568,
2h,1,2,h,l,"[-0.2, 0.2]",,,,,,,,,,,,,,,,0,29,29,29,,,,,,,,,,,,,,,,,,,,,l,1,0.8068844999997964,,,,,,,,,,,,wpr,f,22,2024_Apr_18_1014,mian,2021.2.3,59.82965301208568,
e5,2,1,5.0,a,"[-0.2, -0.2]",,,,,,,,,,,,,,,,0,30,30,30,,,,,,,,,,,,,,,,,,,,,a,1,0.843855000000076,,,,,,,,,,,,wpr,f,22,2024_Apr_18_1014,mian,2021.2.3,59.82965301208568,
a3,2,2,3.0,a,"[0.2, -0.2]",,,,,,,,,,,,,,,,0,31,31,31,,,,,,,,,,,,,,,,,,,,,a,1,0.7570513000000574,,,,,,,,,,,,wpr,f,22,2024_Apr_18_1014,mian,2021.2.3,59.82965301208568,
f3,1,1,f,l,"[0.2, 0.2]",,,,,,,,,,,,,,,,0,32,32,32,,,,,,,,,,,,,,,,,,,,,l,1,1.8841621000001396,,,,,,,,,,,,wpr,f,22,2024_Apr_18_1014,mian,2021.2.3,59.82965301208568,
2E,1,2,E,a,"[-0.2, 0.2]",,,,,,,,,,,,,,,,0,33,33,33,,,,,,,,,,,,,,,,,,,,,a,1,0.5832417000001442,,,,,,,,,,,,wpr,f,22,2024_Apr_18_1014,mian,2021.2.3,59.82965301208568,
2H,2,1,2.0,l,"[-0.2, -0.2]",,,,,,,,,,,,,,,,0,34,34,34,,,,,,,,,,,,,,,,,,,,,l,1,0.937918599999648,,,,,,,,,,,,wpr,f,22,2024_Apr_18_1014,mian,2021.2.3,59.82965301208568,
H8,2,2,8.0,l,"[0.2, -0.2]",,,,,,,,,,,,,,,,0,35,35,35,,,,,,,,,,,,,,,,,,,,,l,1,2.1910460999997667,,,,,,,,,,,,wpr,f,22,2024_Apr_18_1014,mian,2021.2.3,59.82965301208568,
9g,1,1,g,l,"[0.2, 0.2]",,,,,,,,,,,,,,,,0,36,36,36,,,,,,,,,,,,,,,,,,,,,l,1,0.7690307999992001,,,,,,,,,,,,wpr,f,22,2024_Apr_18_1014,mian,2021.2.3,59.82965301208568,
5h,1,2,h,l,"[-0.2, 0.2]",,,,,,,,,,,,,,,,0,37,37,37,,,,,,,,,,,,,,,,,,,,,l,1,0.6435510999999678,,,,,,,,,,,,wpr,f,22,2024_Apr_18_1014,mian,2021.2.3,59.82965301208568,
e4,2,1,4.0,l,"[-0.2, -0.2]",,,,,,,,,,,,,,,,0,38,38,38,,,,,,,,,,,,,,,,,,,,,l,1,2.7026063999992402,,,,,,,,,,,,wpr,f,22,2024_Apr_18_1014,mian,2021.2.3,59.82965301208568,
9h,2,2,9.0,a,"[0.2, -0.2]",,,,,,,,,,,,,,,,0,39,39,39,,,,,,,,,,,,,,,,,,,,,a,1,0.7216776999994181,,,,,,,,,,,,wpr,f,22,2024_Apr_18_1014,mian,2021.2.3,59.82965301208568,
G3,1,1,G,a,"[0.2, 0.2]",,,,,,,,,,,,,,,,0,40,40,40,,,,,,,,,,,,,,,,,,,,,a,1,0.9407124999997905,,,,,,,,,,,,wpr,f,22,2024_Apr_18_1014,mian,2021.2.3,59.82965301208568,
9A,1,2,A,a,"[-0.2, 0.2]",,,,,,,,,,,,,,,,0,41,41,41,,,,,,,,,,,,,,,,,,,,,a,1,2.0342358999996577,,,,,,,,,,,,wpr,f,22,2024_Apr_18_1014,mian,2021.2.3,59.82965301208568,
H5,2,1,5.0,a,"[-0.2, -0.2]",,,,,,,,,,,,,,,,0,42,42,42,,,,,,,,,,,,,,,,,,,,,a,1,3.7546290000000226,,,,,,,,,,,,wpr,f,22,2024_Apr_18_1014,mian,2021.2.3,59.82965301208568,
4e,2,2,4.0,l,"[0.2, -0.2]",,,,,,,,,,,,,,,,0,43,43,43,,,,,,,,,,,,,,,,,,,,,l,1,0.8909495000007155,,,,,,,,,,,,wpr,f,22,2024_Apr_18_1014,mian,2021.2.3,59.82965301208568,
E2,1,1,E,a,"[0.2, 0.2]",,,,,,,,,,,,,,,,0,44,44,44,,,,,,,,,,,,,,,,,,,,,a,1,0.7816656000004514,,,,,,,,,,,,wpr,f,22,2024_Apr_18_1014,mian,2021.2.3,59.82965301208568,
A5,1,2,A,a,"[-0.2, 0.2]",,,,,,,,,,,,,,,,0,45,45,45,,,,,,,,,,,,,,,,,,,,,a,1,0.5675571000001582,,,,,,,,,,,,wpr,f,22,2024_Apr_18_1014,mian,2021.2.3,59.82965301208568,
2A,2,1,2.0,l,"[-0.2, -0.2]",,,,,,,,,,,,,,,,0,46,46,46,,,,,,,,,,,,,,,,,,,,,l,1,2.4170442000004186,,,,,,,,,,,,wpr,f,22,2024_Apr_18_1014,mian,2021.2.3,59.82965301208568,
6G,2,2,6.0,l,"[0.2, -0.2]",,,,,,,,,,,,,,,,0,47,47,47,,,,,,,,,,,,,,,,,,,,,l,1,0.6155378000003111,,,,,,,,,,,,wpr,f,22,2024_Apr_18_1014,mian,2021.2.3,59.82965301208568,
H3,1,1,H,a,"[0.2, 0.2]",,,,,,,,,,,,,,,,0,48,48,48,,,,,,,,,,,,,,,,,,,,,a,1,0.6890150000008362,,,,,,,,,,,,wpr,f,22,2024_Apr_18_1014,mian,2021.2.3,59.82965301208568,
H2,1,2,H,a,"[-0.2, 0.2]",,,,,,,,,,,,,,,,0,49,49,49,,,,,,,,,,,,,,,,,,,,,a,1,0.42062040000018897,,,,,,,,,,,,wpr,f,22,2024_Apr_18_1014,mian,2021.2.3,59.82965301208568,
e9,2,1,9.0,a,"[-0.2, -0.2]",,,,,,,,,,,,,,,,0,50,50,50,,,,,,,,,,,,,,,,,,,,,a,1,0.9055067999997846,,,,,,,,,,,,wpr,f,22,2024_Apr_18_1014,mian,2021.2.3,59.82965301208568,
2G,2,2,2.0,l,"[0.2, -0.2]",,,,,,,,,,,,,,,,0,51,51,51,,,,,,,,,,,,,,,,,,,,,l,1,1.2221473999998125,,,,,,,,,,,,wpr,f,22,2024_Apr_18_1014,mian,2021.2.3,59.82965301208568,
4f,1,1,f,l,"[0.2, 0.2]",,,,,,,,,,,,,,,,0,52,52,52,,,,,,,,,,,,,,,,,,,,,l,1,1.6015157000001636,,,,,,,,,,,,wpr,f,22,2024_Apr_18_1014,mian,2021.2.3,59.82965301208568,
H6,1,2,H,a,"[-0.2, 0.2]",,,,,,,,,,,,,,,,0,53,53,53,,,,,,,,,,,,,,,,,,,,,a,1,1.7410706000000573,,,,,,,,,,,,wpr,f,22,2024_Apr_18_1014,mian,2021.2.3,59.82965301208568,
A4,2,1,4.0,l,"[-0.2, -0.2]",,,,,,,,,,,,,,,,0,54,54,54,,,,,,,,,,,,,,,,,,,,,l,1,0.748652299999776,,,,,,,,,,,,wpr,f,22,2024_Apr_18_1014,mian,2021.2.3,59.82965301208568,
3F,2,2,3.0,a,"[0.2, -0.2]",,,,,,,,,,,,,,,,0,55,55,55,,,,,,,,,,,,,,,,,,,,,a,1,0.591880900000433,,,,,,,,,,,,wpr,f,22,2024_Apr_18_1014,mian,2021.2.3,59.82965301208568,
7e,1,1,e,l,"[0.2, 0.2]",,,,,,,,,,,,,,,,0,56,56,56,,,,,,,,,,,,,,,,,,,,,l,1,1.4280127000001812,,,,,,,,,,,,wpr,f,22,2024_Apr_18_1014,mian,2021.2.3,59.82965301208568,
F9,1,2,F,a,"[-0.2, 0.2]",,,,,,,,,,,,,,,,0,57,57,57,,,,,,,,,,,,,,,,,,,,,a,1,0.9234442999995736,,,,,,,,,,,,wpr,f,22,2024_Apr_18_1014,mian,2021.2.3,59.82965301208568,
e2,2,1,2.0,l,"[-0.2, -0.2]",,,,,,,,,,,,,,,,0,58,58,58,,,,,,,,,,,,,,,,,,,,,l,1,2.7695388000001913,,,,,,,,,,,,wpr,f,22,2024_Apr_18_1014,mian,2021.2.3,59.82965301208568,
5F,2,2,5.0,a,"[0.2, -0.2]",,,,,,,,,,,,,,,,0,59,59,59,,,,,,,,,,,,,,,,,,,,,a,1,0.783502000000226,,,,,,,,,,,,wpr,f,22,2024_Apr_18_1014,mian,2021.2.3,59.82965301208568,
f6,1,1,f,l,"[0.2, 0.2]",,,,,,,,,,,,,,,,0,60,60,60,,,,,,,,,,,,,,,,,,,,,l,1,1.3197958000000654,,,,,,,,,,,,wpr,f,22,2024_Apr_18_1014,mian,2021.2.3,59.82965301208568,
7G,1,2,G,a,"[-0.2, 0.2]",,,,,,,,,,,,,,,,0,61,61,61,,,,,,,,,,,,,,,,,,,,,a,1,1.8075738999996247,,,,,,,,,,,,wpr,f,22,2024_Apr_18_1014,mian,2021.2.3,59.82965301208568,
e6,2,1,6.0,l,"[-0.2, -0.2]",,,,,,,,,,,,,,,,0,62,62,62,,,,,,,,,,,,,,,,,,,,,l,1,0.7268517000002248,,,,,,,,,,,,wpr,f,22,2024_Apr_18_1014,mian,2021.2.3,59.82965301208568,
3G,2,2,3.0,a,"[0.2, -0.2]",,,,,,,,,,,,,,,,0,63,63,63,,,,,,,,,,,,,,,,,,,,,a,1,0.721221400000104,,,,,,,,,,,,wpr,f,22,2024_Apr_18_1014,mian,2021.2.3,59.82965301208568,
5E,1,1,E,a,"[0.2, 0.2]",,,,,,,,,,,,,,,,0,64,64,64,,,,,,,,,,,,,,,,,,,,,a,1,0.8761297000000923,,,,,,,,,,,,wpr,f,22,2024_Apr_18_1014,mian,2021.2.3,59.82965301208568,
A6,1,2,A,a,"[-0.2, 0.2]",,,,,,,,,,,,,,,,0,65,65,65,,,,,,,,,,,,,,,,,,,,,a,1,0.6057767999991484,,,,,,,,,,,,wpr,f,22,2024_Apr_18_1014,mian,2021.2.3,59.82965301208568,
E3,2,1,3.0,a,"[-0.2, -0.2]",,,,,,,,,,,,,,,,0,66,66,66,,,,,,,,,,,,,,,,,,,,,a,1,0.7894933999996283,,,,,,,,,,,,wpr,f,22,2024_Apr_18_1014,mian,2021.2.3,59.82965301208568,
2f,2,2,2.0,l,"[0.2, -0.2]",,,,,,,,,,,,,,,,0,67,67,67,,,,,,,,,,,,,,,,,,,,,l,1,0.6383105000004434,,,,,,,,,,,,wpr,f,22,2024_Apr_18_1014,mian,2021.2.3,59.82965301208568,
g3,1,1,g,l,"[0.2, 0.2]",,,,,,,,,,,,,,,,0,68,68,68,,,,,,,,,,,,,,,,,,,,,l,1,1.2658850000007078,,,,,,,,,,,,wpr,f,22,2024_Apr_18_1014,mian,2021.2.3,59.82965301208568,
E8,1,2,E,a,"[-0.2, 0.2]",,,,,,,,,,,,,,,,0,69,69,69,,,,,,,,,,,,,,,,,,,,,a,1,0.6954192000002877,,,,,,,,,,,,wpr,f,22,2024_Apr_18_1014,mian,2021.2.3,59.82965301208568,
6g,2,1,6.0,l,"[-0.2, -0.2]",,,,,,,,,,,,,,,,0,70,70,70,,,,,,,,,,,,,,,,,,,,,l,1,0.7674747999999454,,,,,,,,,,,,wpr,f,22,2024_Apr_18_1014,mian,2021.2.3,59.82965301208568,
5H,2,2,5.0,a,"[0.2, -0.2]",,,,,,,,,,,,,,,,0,71,71,71,,,,,,,,,,,,,,,,,,,,,a,1,0.5723742999998649,,,,,,,,,,,,wpr,f,22,2024_Apr_18_1014,mian,2021.2.3,59.82965301208568,
4A,1,1,A,a,"[0.2, 0.2]",,,,,,,,,,,,,,,,0,72,72,72,,,,,,,,,,,,,,,,,,,,,a,1,1.0819446000004973,,,,,,,,,,,,wpr,f,22,2024_Apr_18_1014,mian,2021.2.3,59.82965301208568,
7F,1,2,F,a,"[-0.2, 0.2]",,,,,,,,,,,,,,,,0,73,73,73,,,,,,,,,,,,,,,,,,,,,a,1,0.4066220999993675,,,,,,,,,,,,wpr,f,22,2024_Apr_18_1014,mian,2021.2.3,59.82965301208568,
6H,2,1,6.0,l,"[-0.2, -0.2]",,,,,,,,,,,,,,,,0,74,74,74,,,,,,,,,,,,,,,,,,,,,l,1,1.5078805999992255,,,,,,,,,,,,wpr,f,22,2024_Apr_18_1014,mian,2021.2.3,59.82965301208568,
3a,2,2,3.0,a,"[0.2, -0.2]",,,,,,,,,,,,,,,,0,75,75,75,,,,,,,,,,,,,,,,,,,,,a,1,0.4802923999995983,,,,,,,,,,,,wpr,f,22,2024_Apr_18_1014,mian,2021.2.3,59.82965301208568,
9F,1,1,F,a,"[0.2, 0.2]",,,,,,,,,,,,,,,,0,76,76,76,,,,,,,,,,,,,,,,,,,,,a,1,2.7037567000006675,,,,,,,,,,,,wpr,f,22,2024_Apr_18_1014,mian,2021.2.3,59.82965301208568,
G7,1,2,G,a,"[-0.2, 0.2]",,,,,,,,,,,,,,,,0,77,77,77,,,,,,,,,,,,,,,,,,,,,a,1,0.8553072000004249,,,,,,,,,,,,wpr,f,22,2024_Apr_18_1014,mian,2021.2.3,59.82965301208568,
a6,2,1,6.0,l,"[-0.2, -0.2]",,,,,,,,,,,,,,,,0,78,78,78,,,,,,,,,,,,,,,,,,,,,l,1,0.5517159999999421,,,,,,,,,,,,wpr,f,22,2024_Apr_18_1014,mian,2021.2.3,59.82965301208568,
4h,2,2,4.0,l,"[0.2, -0.2]",,,,,,,,,,,,,,,,0,79,79,79,,,,,,,,,,,,,,,,,,,,,l,1,0.4821464000006017,,,,,,,,,,,,wpr,f,22,2024_Apr_18_1014,mian,2021.2.3,59.82965301208568,
6A,1,1,A,a,"[0.2, 0.2]",,,,,,,,,,,,,,,,,,,,0,0,0,0,,,,,,,,,,,,,,,,,a,1,0.7345666000001074,,,,,,,,,,,,wpr,f,22,2024_Apr_18_1014,mian,2021.2.3,59.82965301208568,
4H,1,2,H,a,"[-0.2, 0.2]",,,,,,,,,,,,,,,,,,,,0,1,1,1,,,,,,,,,,,,,,,,,a,1,0.8847712999995565,,,,,,,,,,,,wpr,f,22,2024_Apr_18_1014,mian,2021.2.3,59.82965301208568,
3H,2,1,3.0,a,"[-0.2, -0.2]",,,,,,,,,,,,,,,,,,,,0,2,2,2,,,,,,,,,,,,,,,,,a,1,0.7144772000001467,,,,,,,,,,,,wpr,f,22,2024_Apr_18_1014,mian,2021.2.3,59.82965301208568,
a9,2,2,9.0,a,"[0.2, -0.2]",,,,,,,,,,,,,,,,,,,,0,3,3,3,,,,,,,,,,,,,,,,,a,1,0.95150139999987,,,,,,,,,,,,wpr,f,22,2024_Apr_18_1014,mian,2021.2.3,59.82965301208568,
E7,1,1,E,a,"[0.2, 0.2]",,,,,,,,,,,,,,,,,,,,0,4,4,4,,,,,,,,,,,,,,,,,a,1,0.48228560000006837,,,,,,,,,,,,wpr,f,22,2024_Apr_18_1014,mian,2021.2.3,59.82965301208568,
6h,1,2,h,l,"[-0.2, 0.2]",,,,,,,,,,,,,,,,,,,,0,5,5,5,,,,,,,,,,,,,,,,,l,1,0.6894142999999531,,,,,,,,,,,,wpr,f,22,2024_Apr_18_1014,mian,2021.2.3,59.82965301208568,
8A,2,1,8.0,l,"[-0.2, -0.2]",,,,,,,,,,,,,,,,,,,,0,6,6,6,,,,,,,,,,,,,,,,,l,1,1.0729556000005687,,,,,,,,,,,,wpr,f,22,2024_Apr_18_1014,mian,2021.2.3,59.82965301208568,
f5,2,2,5.0,a,"[0.2, -0.2]",,,,,,,,,,,,,,,,,,,,0,7,7,7,,,,,,,,,,,,,,,,,a,1,0.5927675000002637,,,,,,,,,,,,wpr,f,22,2024_Apr_18_1014,mian,2021.2.3,59.82965301208568,
2a,1,1,a,l,"[0.2, 0.2]",,,,,,,,,,,,,,,,,,,,0,8,8,8,,,,,,,,,,,,,,,,,a,0,0.6244649000000209,,,,,,,,,,,,wpr,f,22,2024_Apr_18_1014,mian,2021.2.3,59.82965301208568,
F7,1,2,F,a,"[-0.2, 0.2]",,,,,,,,,,,,,,,,,,,,0,9,9,9,,,,,,,,,,,,,,,,,a,1,1.0007012999994913,,,,,,,,,,,,wpr,f,22,2024_Apr_18_1014,mian,2021.2.3,59.82965301208568,
h2,2,1,2.0,l,"[-0.2, -0.2]",,,,,,,,,,,,,,,,,,,,0,10,10,10,,,,,,,,,,,,,,,,,l,1,1.0869683000000805,,,,,,,,,,,,wpr,f,22,2024_Apr_18_1014,mian,2021.2.3,59.82965301208568,
F5,2,2,5.0,a,"[0.2, -0.2]",,,,,,,,,,,,,,,,,,,,0,11,11,11,,,,,,,,,,,,,,,,,a,1,1.112014100000124,,,,,,,,,,,,wpr,f,22,2024_Apr_18_1014,mian,2021.2.3,59.82965301208568,
A9,1,1,A,a,"[0.2, 0.2]",,,,,,,,,,,,,,,,,,,,0,12,12,12,,,,,,,,,,,,,,,,,l,0,1.989961399999629,,,,,,,,,,,,wpr,f,22,2024_Apr_18_1014,mian,2021.2.3,59.82965301208568,
3e,1,2,e,l,"[-0.2, 0.2]",,,,,,,,,,,,,,,,,,,,0,13,13,13,,,,,,,,,,,,,,,,,l,1,0.752361099999689,,,,,,,,,,,,wpr,f,22,2024_Apr_18_1014,mian,2021.2.3,59.82965301208568,
f8,2,1,8.0,l,"[-0.2, -0.2]",,,,,,,,,,,,,,,,,,,,0,14,14,14,,,,,,,,,,,,,,,,,l,1,1.9817659999998796,,,,,,,,,,,,wpr,f,22,2024_Apr_18_1014,mian,2021.2.3,59.82965301208568,
G2,2,2,2.0,l,"[0.2, -0.2]",,,,,,,,,,,,,,,,,,,,0,15,15,15,,,,,,,,,,,,,,,,,l,1,0.6400021999997989,,,,,,,,,,,,wpr,f,22,2024_Apr_18_1014,mian,2021.2.3,59.82965301208568,
F2,1,1,F,a,"[0.2, 0.2]",,,,,,,,,,,,,,,,,,,,0,16,16,16,,,,,,,,,,,,,,,,,a,1,0.42964610000035464,,,,,,,,,,,,wpr,f,22,2024_Apr_18_1014,mian,2021.2.3,59.82965301208568,
5e,1,2,e,l,"[-0.2, 0.2]",,,,,,,,,,,,,,,,,,,,0,17,17,17,,,,,,,,,,,,,,,,,l,1,0.6853582999992796,,,,,,,,,,,,wpr,f,22,2024_Apr_18_1014,mian,2021.2.3,59.82965301208568,
A3,2,1,3.0,a,"[-0.2, -0.2]",,,,,,,,,,,,,,,,,,,,0,18,18,18,,,,,,,,,,,,,,,,,a,1,0.7234124999995402,,,,,,,,,,,,wpr,f,22,2024_Apr_18_1014,mian,2021.2.3,59.82965301208568,
4g,2,2,4.0,l,"[0.2, -0.2]",,,,,,,,,,,,,,,,,,,,0,19,19,19,,,,,,,,,,,,,,,,,a,0,0.8450020000000222,,,,,,,,,,,,wpr,f,22,2024_Apr_18_1014,mian,2021.2.3,59.82965301208568,
h7,1,1,h,l,"[0.2, 0.2]",,,,,,,,,,,,,,,,,,,,0,20,20,20,,,,,,,,,,,,,,,,,l,1,2.404958500000248,,,,,,,,,,,,wpr,f,22,2024_Apr_18_1014,mian,2021.2.3,59.82965301208568,
3g,1,2,g,l,"[-0.2, 0.2]",,,,,,,,,,,,,,,,,,,,0,21,21,21,,,,,,,,,,,,,,,,,l,1,0.6880909000001338,,,,,,,,,,,,wpr,f,22,2024_Apr_18_1014,mian,2021.2.3,59.82965301208568,
8a,2,1,8.0,l,"[-0.2, -0.2]",,,,,,,,,,,,,,,,,,,,0,22,22,22,,,,,,,,,,,,,,,,,l,1,0.6634976000004826,,,,,,,,,,,,wpr,f,22,2024_Apr_18_1014,mian,2021.2.3,59.82965301208568,
4E,2,2,4.0,l,"[0.2, -0.2]",,,,,,,,,,,,,,,,,,,,0,23,23,23,,,,,,,,,,,,,,,,,l,1,2.370739799999683,,,,,,,,,,,,wpr,f,22,2024_Apr_18_1014,mian,2021.2.3,59.82965301208568,
E5,1,1,E,a,"[0.2, 0.2]",,,,,,,,,,,,,,,,,,,,0,24,24,24,,,,,,,,,,,,,,,,,a,1,0.7412352000001192,,,,,,,,,,,,wpr,f,22,2024_Apr_18_1014,mian,2021.2.3,59.82965301208568,
g6,1,2,g,l,"[-0.2, 0.2]",,,,,,,,,,,,,,,,,,,,0,25,25,25,,,,,,,,,,,,,,,,,l,1,0.5391413000006651,,,,,,,,,,,,wpr,f,22,2024_Apr_18_1014,mian,2021.2.3,59.82965301208568,
2e,2,1,2.0,l,"[-0.2, -0.2]",,,,,,,,,,,,,,,,,,,,0,26,26,26,,,,,,,,,,,,,,,,,l,1,0.9517479999994976,,,,,,,,,,,,wpr,f,22,2024_Apr_18_1014,mian,2021.2.3,59.82965301208568,
h8,2,2,8.0,l,"[0.2, -0.2]",,,,,,,,,,,,,,,,,,,,0,27,27,27,,,,,,,,,,,,,,,,,l,1,0.657504599999811,,,,,,,,,,,,wpr,f,22,2024_Apr_18_1014,mian,2021.2.3,59.82965301208568,
G6,1,1,G,a,"[0.2, 0.2]",,,,,,,,,,,,,,,,,,,,0,28,28,28,,,,,,,,,,,,,,,,,a,1,1.699282200000198,,,,,,,,,,,,wpr,f,22,2024_Apr_18_1014,mian,2021.2.3,59.82965301208568,
a4,1,2,a,l,"[-0.2, 0.2]",,,,,,,,,,,,,,,,,,,,0,29,29,29,,,,,,,,,,,,,,,,,l,1,0.6295522999998866,,,,,,,,,,,,wpr,f,22,2024_Apr_18_1014,mian,2021.2.3,59.82965301208568,
9H,2,1,9.0,a,"[-0.2, -0.2]",,,,,,,,,,,,,,,,,,,,0,30,30,30,,,,,,,,,,,,,,,,,a,1,1.5610587999999552,,,,,,,,,,,,wpr,f,22,2024_Apr_18_1014,mian,2021.2.3,59.82965301208568,
7H,2,2,7.0,a,"[0.2, -0.2]",,,,,,,,,,,,,,,,,,,,0,31,31,31,,,,,,,,,,,,,,,,,a,1,0.593038300000444,,,,,,,,,,,,wpr,f,22,2024_Apr_18_1014,mian,2021.2.3,59.82965301208568,
9f,1,1,f,l,"[0.2, 0.2]",,,,,,,,,,,,,,,,,,,,0,32,32,32,,,,,,,,,,,,,,,,,l,1,0.7738078000002133,,,,,,,,,,,,wpr,f,22,2024_Apr_18_1014,mian,2021.2.3,59.82965301208568,
8E,1,2,E,a,"[-0.2, 0.2]",,,,,,,,,,,,,,,,,,,,0,33,33,33,,,,,,,,,,,,,,,,,a,1,0.5727256000000125,,,,,,,,,,,,wpr,f,22,2024_Apr_18_1014,mian,2021.2.3,59.82965301208568,
A2,2,1,2.0,l,"[-0.2, -0.2]",,,,,,,,,,,,,,,,,,,,0,34,34,34,,,,,,,,,,,,,,,,,l,1,0.6494302000000971,,,,,,,,,,,,wpr,f,22,2024_Apr_18_1014,mian,2021.2.3,59.82965301208568,
H7,2,2,7.0,a,"[0.2, -0.2]",,,,,,,,,,,,,,,,,,,,0,35,35,35,,,,,,,,,,,,,,,,,a,1,0.566500900000392,,,,,,,,,,,,wpr,f,22,2024_Apr_18_1014,mian,2021.2.3,59.82965301208568,
h9,1,1,h,l,"[0.2, 0.2]",,,,,,,,,,,,,,,,,,,,0,36,36,36,,,,,,,,,,,,,,,,,l,1,2.256205499999851,,,,,,,,,,,,wpr,f,22,2024_Apr_18_1014,mian,2021.2.3,59.82965301208568,
8G,1,2,G,a,"[-0.2, 0.2]",,,,,,,,,,,,,,,,,,,,0,37,37,37,,,,,,,,,,,,,,,,,a,1,0.6359416000004785,,,,,,,,,,,,wpr,f,22,2024_Apr_18_1014,mian,2021.2.3,59.82965301208568,
H4,2,1,4.0,l,"[-0.2, -0.2]",,,,,,,,,,,,,,,,,,,,0,38,38,38,,,,,,,,,,,,,,,,,l,1,0.9748910999996951,,,,,,,,,,,,wpr,f,22,2024_Apr_18_1014,mian,2021.2.3,59.82965301208568,
A8,2,2,8.0,l,"[0.2, -0.2]",,,,,,,,,,,,,,,,,,,,0,39,39,39,,,,,,,,,,,,,,,,,l,1,0.9607100000002902,,,,,,,,,,,,wpr,f,22,2024_Apr_18_1014,mian,2021.2.3,59.82965301208568,
g7,1,1,g,l,"[0.2, 0.2]",,,,,,,,,,,,,,,,,,,,0,40,40,40,,,,,,,,,,,,,,,,,l,1,1.9130222999992839,,,,,,,,,,,,wpr,f,22,2024_Apr_18_1014,mian,2021.2.3,59.82965301208568,
H9,1,2,H,a,"[-0.2, 0.2]",,,,,,,,,,,,,,,,,,,,0,41,41,41,,,,,,,,,,,,,,,,,a,1,0.5880947000005108,,,,,,,,,,,,wpr,f,22,2024_Apr_18_1014,mian,2021.2.3,59.82965301208568,
9E,2,1,9.0,a,"[-0.2, -0.2]",,,,,,,,,,,,,,,,,,,,0,42,42,42,,,,,,,,,,,,,,,,,a,1,0.6112170999995215,,,,,,,,,,,,wpr,f,22,2024_Apr_18_1014,mian,2021.2.3,59.82965301208568,
a5,2,2,5.0,a,"[0.2, -0.2]",,,,,,,,,,,,,,,,,,,,0,43,43,43,,,,,,,,,,,,,,,,,a,1,0.4945385000000897,,,,,,,,,,,,wpr,f,22,2024_Apr_18_1014,mian,2021.2.3,59.82965301208568,
3E,1,1,E,a,"[0.2, 0.2]",,,,,,,,,,,,,,,,,,,,0,44,44,44,,,,,,,,,,,,,,,,,a,1,1.0715942999995605,,,,,,,,,,,,wpr,f,22,2024_Apr_18_1014,mian,2021.2.3,59.82965301208568,
6f,1,2,f,l,"[-0.2, 0.2]",,,,,,,,,,,,,,,,,,,,0,45,45,45,,,,,,,,,,,,,,,,,l,1,0.7482304999994085,,,,,,,,,,,,wpr,f,22,2024_Apr_18_1014,mian,2021.2.3,59.82965301208568,
g8,2,1,8.0,l,"[-0.2, -0.2]",,,,,,,,,,,,,,,,,,,,0,46,46,46,,,,,,,,,,,,,,,,,l,1,1.239571099999921,,,,,,,,,,,,wpr,f,22,2024_Apr_18_1014,mian,2021.2.3,59.82965301208568,
4F,2,2,4.0,l,"[0.2, -0.2]",,,,,,,,,,,,,,,,,,,,0,47,47,47,,,,,,,,,,,,,,,,,l,1,2.2955495000005612,,,,,,,,,,,,wpr,f,22,2024_Apr_18_1014,mian,2021.2.3,59.82965301208568,
4a,1,1,a,l,"[0.2, 0.2]",,,,,,,,,,,,,,,,,,,,0,48,48,48,,,,,,,,,,,,,,,,,l,1,2.2436905000004117,,,,,,,,,,,,wpr,f,22,2024_Apr_18_1014,mian,2021.2.3,59.82965301208568,
e3,1,2,e,l,"[-0.2, 0.2]",,,,,,,,,,,,,,,,,,,,0,49,49,49,,,,,,,,,,,,,,,,,l,1,0.8526461000001291,,,,,,,,,,,,wpr,f,22,2024_Apr_18_1014,mian,2021.2.3,59.82965301208568,
5g,2,1,5.0,a,"[-0.2, -0.2]",,,,,,,,,,,,,,,,,,,,0,50,50,50,,,,,,,,,,,,,,,,,a,1,0.5815706999992472,,,,,,,,,,,,wpr,f,22,2024_Apr_18_1014,mian,2021.2.3,59.82965301208568,
f4,2,2,4.0,l,"[0.2, -0.2]",,,,,,,,,,,,,,,,,,,,0,51,51,51,,,,,,,,,,,,,,,,,l,1,0.5871004999999059,,,,,,,,,,,,wpr,f,22,2024_Apr_18_1014,mian,2021.2.3,59.82965301208568,
6E,1,1,E,a,"[0.2, 0.2]",,,,,,,,,,,,,,,,,,,,0,52,52,52,,,,,,,,,,,,,,,,,a,1,1.4623266999997213,,,,,,,,,,,,wpr,f,22,2024_Apr_18_1014,mian,2021.2.3,59.82965301208568,
7A,1,2,A,a,"[-0.2, 0.2]",,,,,,,,,,,,,,,,,,,,0,53,53,53,,,,,,,,,,,,,,,,,a,1,0.44807939999918744,,,,,,,,,,,,wpr,f,22,2024_Apr_18_1014,mian,2021.2.3,59.82965301208568,
F4,2,1,4.0,l,"[-0.2, -0.2]",,,,,,,,,,,,,,,,,,,,0,54,54,54,,,,,,,,,,,,,,,,,l,1,0.9584580999999162,,,,,,,,,,,,wpr,f,22,2024_Apr_18_1014,mian,2021.2.3,59.82965301208568,
2g,2,2,2.0,l,"[0.2, -0.2]",,,,,,,,,,,,,,,,,,,,0,55,55,55,,,,,,,,,,,,,,,,,l,1,0.5151030000006358,,,,,,,,,,,,wpr,f,22,2024_Apr_18_1014,mian,2021.2.3,59.82965301208568,
7E,1,1,E,a,"[0.2, 0.2]",,,,,,,,,,,,,,,,,,,,0,56,56,56,,,,,,,,,,,,,,,,,a,1,0.6153908000005686,,,,,,,,,,,,wpr,f,22,2024_Apr_18_1014,mian,2021.2.3,59.82965301208568,
G4,1,2,G,a,"[-0.2, 0.2]",,,,,,,,,,,,,,,,,,,,0,57,57,57,,,,,,,,,,,,,,,,,a,1,0.6904725000003964,,,,,,,,,,,,wpr,f,22,2024_Apr_18_1014,mian,2021.2.3,59.82965301208568,
2F,2,1,2.0,l,"[-0.2, -0.2]",,,,,,,,,,,,,,,,,,,,0,58,58,58,,,,,,,,,,,,,,,,,l,1,0.6363513000005696,,,,,,,,,,,,wpr,f,22,2024_Apr_18_1014,mian,2021.2.3,59.82965301208568,
E9,2,2,9.0,a,"[0.2, -0.2]",,,,,,,,,,,,,,,,,,,,0,59,59,59,,,,,,,,,,,,,,,,,a,1,0.6628865000002406,,,,,,,,,,,,wpr,f,22,2024_Apr_18_1014,mian,2021.2.3,59.82965301208568,
5f,1,1,f,l,"[0.2, 0.2]",,,,,,,,,,,,,,,,,,,,0,60,60,60,,,,,,,,,,,,,,,,,l,1,3.426737000000685,,,,,,,,,,,,wpr,f,22,2024_Apr_18_1014,mian,2021.2.3,59.82965301208568,
e7,1,2,e,l,"[-0.2, 0.2]",,,,,,,,,,,,,,,,,,,,0,61,61,61,,,,,,,,,,,,,,,,,l,1,0.515701799999988,,,,,,,,,,,,wpr,f,22,2024_Apr_18_1014,mian,2021.2.3,59.82965301208568,
f2,2,1,2.0,l,"[-0.2, -0.2]",,,,,,,,,,,,,,,,,,,,0,62,62,62,,,,,,,,,,,,,,,,,l,1,0.5719063000005917,,,,,,,,,,,,wpr,f,22,2024_Apr_18_1014,mian,2021.2.3,59.82965301208568,
G9,2,2,9.0,a,"[0.2, -0.2]",,,,,,,,,,,,,,,,,,,,0,63,63,63,,,,,,,,,,,,,,,,,a,1,0.6806219000000056,,,,,,,,,,,,wpr,f,22,2024_Apr_18_1014,mian,2021.2.3,59.82965301208568,
7g,1,1,g,l,"[0.2, 0.2]",,,,,,,,,,,,,,,,,,,,0,64,64,64,,,,,,,,,,,,,,,,,l,1,0.752092900000207,,,,,,,,,,,,wpr,f,22,2024_Apr_18_1014,mian,2021.2.3,59.82965301208568,
F8,1,2,F,a,"[-0.2, 0.2]",,,,,,,,,,,,,,,,,,,,0,65,65,65,,,,,,,,,,,,,,,,,a,1,0.8279579999998532,,,,,,,,,,,,wpr,f,22,2024_Apr_18_1014,mian,2021.2.3,59.82965301208568,
A7,2,1,7.0,a,"[-0.2, -0.2]",,,,,,,,,,,,,,,,,,,,0,66,66,66,,,,,,,,,,,,,,,,,a,1,1.5295399000006,,,,,,,,,,,,wpr,f,22,2024_Apr_18_1014,mian,2021.2.3,59.82965301208568,
4G,2,2,4.0,l,"[0.2, -0.2]",,,,,,,,,,,,,,,,,,,,0,67,67,67,,,,,,,,,,,,,,,,,l,1,0.8879424000006111,,,,,,,,,,,,wpr,f,22,2024_Apr_18_1014,mian,2021.2.3,59.82965301208568,
g2,1,1,g,l,"[0.2, 0.2]",,,,,,,,,,,,,,,,,,,,0,68,68,68,,,,,,,,,,,,,,,,,l,1,3.1609552999998414,,,,,,,,,,,,wpr,f,22,2024_Apr_18_1014,mian,2021.2.3,59.82965301208568,
g4,1,2,g,l,"[-0.2, 0.2]",,,,,,,,,,,,,,,,,,,,0,69,69,69,,,,,,,,,,,,,,,,,l,1,0.812844000000041,,,,,,,,,,,,wpr,f,22,2024_Apr_18_1014,mian,2021.2.3,59.82965301208568,
7a,2,1,7.0,a,"[-0.2, -0.2]",,,,,,,,,,,,,,,,,,,,0,70,70,70,,,,,,,,,,,,,,,,,l,0,0.524203299999499,,,,,,,,,,,,wpr,f,22,2024_Apr_18_1014,mian,2021.2.3,59.82965301208568,
8e,2,2,8.0,l,"[0.2, -0.2]",,,,,,,,,,,,,,,,,,,,0,71,71,71,,,,,,,,,,,,,,,,,l,1,1.1692694999992455,,,,,,,,,,,,wpr,f,22,2024_Apr_18_1014,mian,2021.2.3,59.82965301208568,
h4,1,1,h,l,"[0.2, 0.2]",,,,,,,,,,,,,,,,,,,,0,72,72,72,,,,,,,,,,,,,,,,,l,1,2.752801300000101,,,,,,,,,,,,wpr,f,22,2024_Apr_18_1014,mian,2021.2.3,59.82965301208568,
G8,1,2,G,a,"[-0.2, 0.2]",,,,,,,,,,,,,,,,,,,,0,73,73,73,,,,,,,,,,,,,,,,,a,1,0.42748800000026677,,,,,,,,,,,,wpr,f,22,2024_Apr_18_1014,mian,2021.2.3,59.82965301208568,
6F,2,1,6.0,l,"[-0.2, -0.2]",,,,,,,,,,,,,,,,,,,,0,74,74,74,,,,,,,,,,,,,,,,,l,1,0.8114045000002079,,,,,,,,,,,,wpr,f,22,2024_Apr_18_1014,mian,2021.2.3,59.82965301208568,
g5,2,2,5.0,a,"[0.2, -0.2]",,,,,,,,,,,,,,,,,,,,0,75,75,75,,,,,,,,,,,,,,,,,a,1,0.4894192000001567,,,,,,,,,,,,wpr,f,22,2024_Apr_18_1014,mian,2021.2.3,59.82965301208568,
G5,1,1,G,a,"[0.2, 0.2]",,,,,,,,,,,,,,,,,,,,0,76,76,76,,,,,,,,,,,,,,,,,a,1,1.0447008999999525,,,,,,,,,,,,wpr,f,22,2024_Apr_18_1014,mian,2021.2.3,59.82965301208568,
h5,1,2,h,l,"[-0.2, 0.2]",,,,,,,,,,,,,,,,,,,,0,77,77,77,,,,,,,,,,,,,,,,,l,1,0.5891775000000052,,,,,,,,,,,,wpr,f,22,2024_Apr_18_1014,mian,2021.2.3,59.82965301208568,
9G,2,1,9.0,a,"[-0.2, -0.2]",,,,,,,,,,,,,,,,,,,,0,78,78,78,,,,,,,,,,,,,,,,,a,1,1.6700876999993852,,,,,,,,,,,,wpr,f,22,2024_Apr_18_1014,mian,2021.2.3,59.82965301208568,
F3,2,2,3.0,a,"[0.2, -0.2]",,,,,,,,,,,,,,,,,,,,0,79,79,79,,,,,,,,,,,,,,,,,a,1,0.8505900000000111,,,,,,,,,,,,wpr,f,22,2024_Apr_18_1014,mian,2021.2.3,59.82965301208568,
,,,,,,0,1,pic/flanker6.png,pic/flanker2.png,a,k,,,,,,,,,,,,,,,,,,0,0,0,0,0,0,0,2,,,,,,,,,,,,587.6110995999998,None,586.4162044999994,587.6278156999997,a,1,0.7188850000002276,顽强,k,1,1.9424736999999368,wpr,f,22,2024_Apr_18_1014,mian,2021.2.3,59.82965301208568,
,,,,,,1,1,pic/flanker6.png,pic/flanker4.png,s,k,,,,,,,,,,,,,,,,,,0,0,0,0,0,1,1,6,,,,,,,,,,,,592.4287009999998,None,591.2449833999999,592.4450416,s,1,0.7580840999999054,振作,k,1,1.1017358999997668,wpr,f,22,2024_Apr_18_1014,mian,2021.2.3,59.82965301208568,
,,,,,,1,1,pic/flanker5.png,pic/flanker3.png,a,k,,,,,,,,,,,,,,,,,,0,0,0,0,0,2,2,4,,,,,,,,,,,,596.2117207000001,None,595.0283829,596.2282814999999,a,1,0.8780904000004739,永恒,k,1,0.8918262000006507,wpr,f,22,2024_Apr_18_1014,mian,2021.2.3,59.82965301208568,
,,,,,,1,0,pic/flanker6.png,pic/flanker4.png,s,l,,,,,,,,,,,,,,,,,,0,0,0,0,0,3,3,5,,,,,,,,,,,,599.9782509999995,None,598.7950534000001,599.9951996,s,1,0.5701841000000059,排斥,l,1,1.0181972000000314,wpr,f,22,2024_Apr_18_1014,mian,2021.2.3,59.82965301208568,
,,,,,,0,1,pic/flanker5.png,pic/flanker1.png,s,k,,,,,,,,,,,,,,,,,,0,0,0,0,0,4,4,0,,,,,,,,,,,,603.6117451999999,None,602.4282734999997,603.6285380999998,s,1,0.635466799999449,珍藏,k,1,0.8818742000003112,wpr,f,22,2024_Apr_18_1014,mian,2021.2.3,59.82965301208568,
,,,,,,0,0,pic/flanker5.png,pic/flanker1.png,s,l,,,,,,,,,,,,,,,,,,0,0,0,0,0,5,5,3,,,,,,,,,,,,607.0116455999996,None,605.8284362999993,607.0285544999997,s,1,0.4408211999998457,禁止,l,1,1.063572099999874,wpr,f,22,2024_Apr_18_1014,mian,2021.2.3,59.82965301208568,
,,,,,,0,0,pic/flanker6.png,pic/flanker2.png,a,l,,,,,,,,,,,,,,,,,,0,0,0,0,0,6,6,1,,,,,,,,,,,,610.4949148999995,None,609.3119566999994,610.5112822000001,a,1,0.5597447000000102,逃避,l,1,0.7589064000003418,wpr,f,22,2024_Apr_18_1014,mian,2021.2.3,59.82965301208568,
,,,,,,1,0,pic/flanker5.png,pic/flanker3.png,a,l,,,,,,,,,,,,,,,,,,0,0,0,0,0,7,7,7,,,,,,,,,,,,613.7948276999996,None,612.6118251999997,613.8111521999999,a,1,0.5176234000000477,胡涂,l,1,0.996661099999983,wpr,f,22,2024_Apr_18_1014,mian,2021.2.3,59.82965301208568,
,,,,,,,,,,,,,,,,,,,,,,,,,,,,,0,0,0,0,,,,,,,,,,,,,,,,,,,,,,,,,,,wpr,f,22,2024_Apr_18_1014,mian,2021.2.3,59.82965301208568,
,,,,,,1,1,pic/flanker6.png,pic/flanker4.png,s,k,pic/AffRest1.png,,,,,,,,,,,,,,,,,,,,,,,,,0,0,0,0,0,0,0,54,,,,622.1951437999996,None,620.9957944999996,622.1951437999996,s,1,0.7955156000007264,爽朗,k,1,0.6842182000000321,wpr,f,22,2024_Apr_18_1014,mian,2021.2.3,59.82965301208568,
,,,,,,1,0,pic/flanker6.png,pic/flanker4.png,s,l,pic/AffRest1.png,,,,,,,,,,,,,,,,,,,,,,,,,0,0,0,0,0,1,1,29,,,,625.6783452999998,None,624.4949754999998,625.6950495000001,s,1,0.5873743000001923,悲观,l,1,0.7155880999998772,wpr,f,22,2024_Apr_18_1014,mian,2021.2.3,59.82965301208568,
,,,,,,0,0,pic/flanker5.png,pic/flanker1.png,s,l,pic/AffRest1.png,,,,,,,,,,,,,,,,,,,,,,,,,0,0,0,0,0,2,2,75,,,,628.9785671999998,None,627.7947531999998,628.9951861999998,s,1,0.43269650000002,焦躁,l,1,0.7896815000003699,wpr,f,22,2024_Apr_18_1014,mian,2021.2.3,59.82965301208568,
,,,,,,1,1,pic/flanker5.png,pic/flanker3.png,a,k,pic/AffRest1.png,,,,,,,,,,,,,,,,,,,,,,,,,0,0,0,0,0,3,3,36,,,,632.2453228999993,None,631.0617383999997,632.2619153999995,a,1,0.502361099999689,吉祥,k,1,0.7156924000000799,wpr,f,22,2024_Apr_18_1014,mian,2021.2.3,59.82965301208568,
,,,,,,1,1,pic/flanker6.png,pic/flanker4.png,s,k,pic/AffRest1.png,,,,,,,,,,,,,,,,,,,,,,,,,0,0,0,0,0,4,4,70,,,,635.5116798999998,None,634.3284253000002,635.5284489999995,s,1,0.5455098000002181,典雅,k,1,0.7979292999998506,wpr,f,22,2024_Apr_18_1014,mian,2021.2.3,59.82965301208568,
,,,,,,1,1,pic/flanker5.png,pic/flanker3.png,a,k,pic/AffRest1.png,,,,,,,,,,,,,,,,,,,,,,,,,0,0,0,0,0,5,5,76,,,,638.8950962999998,None,637.7117468999995,638.9117424999995,a,1,0.44182180000007065,畅销,k,1,0.8376869000003353,wpr,f,22,2024_Apr_18_1014,mian,2021.2.3,59.82965301208568,
,,,,,,0,0,pic/flanker5.png,pic/flanker1.png,s,l,pic/AffRest1.png,,,,,,,,,,,,,,,,,,,,,,,,,0,0,0,0,0,6,6,67,,,,642.2283927999997,None,641.0449873999996,642.2450195000001,s,1,0.46349300000019866,失意,l,1,0.7617014999996172,wpr,f,22,2024_Apr_18_1014,mian,2021.2.3,59.82965301208568,
,,,,,,0,0,pic/flanker5.png,pic/flanker1.png,s,l,pic/AffRest1.png,,,,,,,,,,,,,,,,,,,,,,,,,0,0,0,0,0,7,7,27,,,,645.4948508999996,None,644.3116366999993,645.5117486999998,s,1,0.6912529999999606,冷笑,None,0,,wpr,f,22,2024_Apr_18_1014,mian,2021.2.3,59.82965301208568,
,,,,,,0,1,pic/flanker5.png,pic/flanker1.png,s,k,pic/AffRest1.png,,,,,,,,,,,,,,,,,,,,,,,,,0,0,0,0,0,8,8,32,,,,650.5116173999995,None,649.3283603999998,650.5283826999994,s,1,0.4889359000007971,羡慕,k,1,0.7401162999994995,wpr,f,22,2024_Apr_18_1014,mian,2021.2.3,59.82965301208568,
,,,,,,1,1,pic/flanker5.png,pic/flanker3.png,a,k,pic/AffRest1.png,,,,,,,,,,,,,,,,,,,,,,,,,0,0,0,0,0,9,9,68,,,,653.6784312,None,652.4950466,653.6949893999999,a,1,0.677713500000209,永恒,k,1,1.1642011999992974,wpr,f,22,2024_Apr_18_1014,mian,2021.2.3,59.82965301208568,
,,,,,,1,1,pic/flanker5.png,pic/flanker3.png,a,k,pic/AffRest1.png,,,,,,,,,,,,,,,,,,,,,,,,,0,0,0,0,0,10,10,20,,,,657.4451755999999,None,656.2617082999996,657.4614481999997,a,1,0.47002450000036333,诚恳,k,1,1.0229923000006238,wpr,f,22,2024_Apr_18_1014,mian,2021.2.3,59.82965301208568,
,,,,,,0,1,pic/flanker5.png,pic/flanker1.png,s,k,pic/AffRest1.png,,,,,,,,,,,,,,,,,,,,,,,,,0,0,0,0,0,11,11,48,,,,660.7950074999999,None,659.6117613999995,660.8117019000001,s,1,0.3731868000004397,瑰丽,k,1,0.8177165000006426,wpr,f,22,2024_Apr_18_1014,mian,2021.2.3,59.82965301208568,
,,,,,,0,0,pic/flanker5.png,pic/flanker1.png,s,l,pic/AffRest1.png,,,,,,,,,,,,,,,,,,,,,,,,,0,0,0,0,0,12,12,51,,,,663.9950541999997,None,662.8109483999997,664.0108452999993,s,1,0.410660800000187,堵塞,l,1,0.8001053999996657,wpr,f,22,2024_Apr_18_1014,mian,2021.2.3,59.82965301208568,
,,,,,,1,0,pic/flanker5.png,pic/flanker3.png,a,l,pic/AffRest1.png,,,,,,,,,,,,,,,,,,,,,,,,,0,0,0,0,0,13,13,55,,,,667.1449735999995,None,665.9612483999999,667.1609816,a,1,0.4457718000003297,杂乱,l,1,0.6492981000001237,wpr,f,22,2024_Apr_18_1014,mian,2021.2.3,59.82965301208568,
,,,,,,1,1,pic/flanker6.png,pic/flanker4.png,s,k,pic/AffRest1.png,,,,,,,,,,,,,,,,,,,,,,,,,0,0,0,0,0,14,14,38,,,,670.2615806999993,None,669.0780307999994,670.2783043,s,1,0.49154119999911927,前进,k,1,1.0098670999996102,wpr,f,22,2024_Apr_18_1014,mian,2021.2.3,59.82965301208568,
,,,,,,0,1,pic/flanker5.png,pic/flanker1.png,s,k,pic/AffRest1.png,,,,,,,,,,,,,,,,,,,,,,,,,0,0,0,0,0,15,15,8,,,,673.8276609999994,None,672.6450360999997,673.8443412999995,s,1,0.37406469999950787,享受,k,1,0.7037901999992755,wpr,f,22,2024_Apr_18_1014,mian,2021.2.3,59.82965301208568,
,,,,,,0,1,pic/flanker6.png,pic/flanker2.png,a,k,pic/AffRest1.png,,,,,,,,,,,,,,,,,,,,,,,,,0,0,0,0,0,16,16,66,,,,676.8609400999994,None,675.6780755,676.8782777999995,a,1,0.4344393000001219,有利,k,1,0.6341976000003342,wpr,f,22,2024_Apr_18_1014,mian,2021.2.3,59.82965301208568,
,,,,,,0,0,pic/flanker5.png,pic/flanker1.png,s,l,pic/AffRest1.png,,,,,,,,,,,,,,,,,,,,,,,,,0,0,0,0,0,17,17,43,,,,679.9949268,None,678.8115192999994,680.0115189999997,s,1,0.40838740000071994,孤单,l,1,0.8136872999994011,wpr,f,22,2024_Apr_18_1014,mian,2021.2.3,59.82965301208568,
,,,,,,0,1,pic/flanker6.png,pic/flanker2.png,a,k,pic/AffRest1.png,,,,,,,,,,,,,,,,,,,,,,,,,0,0,0,0,0,18,18,34,,,,683.0614781999993,None,681.8781038999996,683.0782273999994,a,1,0.4098318999995172,正直,k,1,0.6479897999997775,wpr,f,22,2024_Apr_18_1014,mian,2021.2.3,59.82965301208568,
,,,,,,0,0,pic/flanker6.png,pic/flanker2.png,a,l,pic/AffRest1.png,,,,,,,,,,,,,,,,,,,,,,,,,0,0,0,0,0,19,19,9,,,,686.1449267999997,None,684.9615352000001,686.1615931999995,a,1,0.36674589999984164,沮丧,l,1,0.9782022999997935,wpr,f,22,2024_Apr_18_1014,mian,2021.2.3,59.82965301208568,
,,,,,,1,1,pic/flanker6.png,pic/flanker4.png,s,k,pic/AffRest1.png,,,,,,,,,,,,,,,,,,,,,,,,,0,0,0,0,0,20,20,30,,,,689.3949409999996,None,688.2113154999997,689.4115056,s,1,0.6177501000001939,精致,k,1,0.6524781999996776,wpr,f,22,2024_Apr_18_1014,mian,2021.2.3,59.82965301208568,
,,,,,,0,0,pic/flanker5.png,pic/flanker1.png,s,l,pic/AffRest1.png,,,,,,,,,,,,,,,,,,,,,,,,,0,0,0,0,0,21,21,35,,,,692.6280532000001,None,691.4446963,692.6447369999996,s,1,0.37220999999954074,别扭,l,1,0.9329143000004478,wpr,f,22,2024_Apr_18_1014,mian,2021.2.3,59.82965301208568,
,,,,,,1,0,pic/flanker5.png,pic/flanker3.png,a,l,pic/AffRest1.png,,,,,,,,,,,,,,,,,,,,,,,,,0,0,0,0,0,22,22,79,,,,695.8780532000001,None,694.6947936999995,695.8950357999993,a,1,0.4437540999997509,假冒,l,1,0.8415058999999019,wpr,f,22,2024_Apr_18_1014,mian,2021.2.3,59.82965301208568,
,,,,,,1,1,pic/flanker5.png,pic/flanker3.png,a,k,pic/AffRest1.png,,,,,,,,,,,,,,,,,,,,,,,,,0,0,0,0,0,23,23,28,,,,699.0615158999999,None,697.8781822000001,699.0781498999995,a,1,0.42439769999964483,旺盛,k,1,0.7368195999997624,wpr,f,22,2024_Apr_18_1014,mian,2021.2.3,59.82965301208568,
,,,,,,0,1,pic/flanker6.png,pic/flanker2.png,a,k,pic/AffRest1.png,,,,,,,,,,,,,,,,,,,,,,,,,0,0,0,0,0,24,24,58,,,,702.0780724999995,None,700.8948568999995,702.0948284999995,a,1,0.5345209999995859,优雅,k,1,0.6123201000000336,wpr,f,22,2024_Apr_18_1014,mian,2021.2.3,59.82965301208568,
,,,,,,0,0,pic/flanker5.png,pic/flanker1.png,s,l,pic/AffRest1.png,,,,,,,,,,,,,,,,,,,,,,,,,0,0,0,0,0,25,25,59,,,,705.0779667999996,None,703.8946607999997,705.0947330999998,s,1,0.3681713999994827,伤心,l,1,0.8042002999991382,wpr,f,22,2024_Apr_18_1014,mian,2021.2.3,59.82965301208568,
,,,,,,0,0,pic/flanker5.png,pic/flanker1.png,s,l,pic/AffRest1.png,,,,,,,,,,,,,,,,,,,,,,,,,0,0,0,0,0,26,26,19,,,,708.2947593999997,None,707.1115690999995,708.3116607000002,s,1,0.46466870000040217,慌忙,l,1,1.040910000000622,wpr,f,22,2024_Apr_18_1014,mian,2021.2.3,59.82965301208568,
,,,,,,0,1,pic/flanker6.png,pic/flanker2.png,a,k,pic/AffRest1.png,,,,,,,,,,,,,,,,,,,,,,,,,0,0,0,0,0,27,27,42,,,,711.6616223000001,None,710.4779934999997,711.6780438999995,a,1,0.32893960000001243,充裕,k,1,0.8270284999998694,wpr,f,22,2024_Apr_18_1014,mian,2021.2.3,59.82965301208568,
,,,,,,1,0,pic/flanker6.png,pic/flanker4.png,s,l,pic/AffRest1.png,,,,,,,,,,,,,,,,,,,,,,,,,0,0,0,0,0,28,28,37,,,,714.7948102999999,None,713.6116235,714.8115229999994,s,1,0.49783769999976357,禁止,l,1,0.8388401000001977,wpr,f,22,2024_Apr_18_1014,mian,2021.2.3,59.82965301208568,
,,,,,,1,1,pic/flanker5.png,pic/flanker3.png,a,k,pic/AffRest1.png,,,,,,,,,,,,,,,,,,,,,,,,,0,0,0,0,0,29,29,52,,,,717.9949422,None,716.8114726999993,718.0116059000002,a,1,0.43278470000041125,丰满,k,1,0.5491984999998749,wpr,f,22,2024_Apr_18_1014,mian,2021.2.3,59.82965301208568,
,,,,,,1,0,pic/flanker5.png,pic/flanker3.png,a,l,pic/AffRest1.png,,,,,,,,,,,,,,,,,,,,,,,,,0,0,0,0,0,30,30,23,,,,720.9781542999999,None,719.7945952,720.9947275999994,a,1,0.6681107999993401,烦恼,l,1,0.8478825000001962,wpr,f,22,2024_Apr_18_1014,mian,2021.2.3,59.82965301208568,
,,,,,,1,1,pic/flanker5.png,pic/flanker3.png,a,k,pic/AffRest1.png,,,,,,,,,,,,,,,,,,,,,,,,,0,0,0,0,0,31,31,12,,,,724.3447558999997,None,723.1614174999995,724.3613381999994,a,1,0.5202029999991282,生动,k,1,0.5993847999998252,wpr,f,22,2024_Apr_18_1014,mian,2021.2.3,59.82965301208568,
,,,,,,0,1,pic/flanker6.png,pic/flanker2.png,a,k,pic/AffRest1.png,,,,,,,,,,,,,,,,,,,,,,,,,0,0,0,0,0,32,32,50,,,,727.4949139,None,726.3113217,727.5114930999998,a,1,0.4019180999994205,如愿,k,1,1.2169764999998733,wpr,f,22,2024_Apr_18_1014,mian,2021.2.3,59.82965301208568,
,,,,,,1,1,pic/flanker6.png,pic/flanker4.png,s,k,pic/AffRest1.png,,,,,,,,,,,,,,,,,,,,,,,,,0,0,0,0,0,33,33,6,,,,731.0114181999998,None,729.8282438999995,731.0283196999999,s,1,0.4854094000002078,敬佩,k,1,0.6364907999995921,wpr,f,22,2024_Apr_18_1014,mian,2021.2.3,59.82965301208568,
,,,,,,0,1,pic/flanker6.png,pic/flanker2.png,a,k,pic/AffRest1.png,,,,,,,,,,,,,,,,,,,,,,,,,0,0,0,0,0,34,34,26,,,,734.0782386999999,None,732.8947842999996,734.0949228999998,a,1,0.33266749999984313,清秀,k,1,0.6090317999996842,wpr,f,22,2024_Apr_18_1014,mian,2021.2.3,59.82965301208568,
,,,,,,0,0,pic/flanker5.png,pic/flanker1.png,s,l,pic/AffRest1.png,,,,,,,,,,,,,,,,,,,,,,,,,0,0,0,0,0,35,35,11,,,,736.8614625,None,735.6781221000001,736.8781561999995,s,1,0.38952340000014374,懒惰,l,1,0.7921690000002855,wpr,f,22,2024_Apr_18_1014,mian,2021.2.3,59.82965301208568,
,,,,,,1,0,pic/flanker6.png,pic/flanker4.png,s,l,pic/AffRest1.png,,,,,,,,,,,,,,,,,,,,,,,,,0,0,0,0,0,36,36,21,,,,739.9281885,None,738.7448377000001,739.9447077999994,s,1,0.4847938000002614,嘲笑,l,1,0.9720295000006445,wpr,f,22,2024_Apr_18_1014,mian,2021.2.3,59.82965301208568,
,,,,,,1,1,pic/flanker6.png,pic/flanker4.png,s,k,pic/AffRest1.png,,,,,,,,,,,,,,,,,,,,,,,,,0,0,0,0,0,37,37,78,,,,743.2447218999996,None,742.0617182999995,743.2618278,s,1,0.4480228000002171,留恋,k,1,0.840322400000332,wpr,f,22,2024_Apr_18_1014,mian,2021.2.3,59.82965301208568,
,,,,,,1,0,pic/flanker6.png,pic/flanker4.png,s,l,pic/AffRest1.png,,,,,,,,,,,,,,,,,,,,,,,,,0,0,0,0,0,38,38,45,,,,746.5114521999994,None,745.3282012999998,746.5280984999999,s,1,0.44418190000033064,穷苦,l,1,0.704319000000396,wpr,f,22,2024_Apr_18_1014,mian,2021.2.3,59.82965301208568,
,,,,,,0,0,pic/flanker6.png,pic/flanker2.png,a,l,pic/AffRest1.png,,,,,,,,,,,,,,,,,,,,,,,,,0,0,0,0,0,39,39,57,,,,749.5614086999994,None,748.3782080999999,749.5780434999997,a,1,0.37058880000040517,闷热,l,1,0.8859905999997864,wpr,f,22,2024_Apr_18_1014,mian,2021.2.3,59.82965301208568,
,,,,,,0,1,pic/flanker6.png,pic/flanker2.png,a,k,pic/AffRest1.png,,,,,,,,,,,,,,,,,,,,,,,,,0,0,0,0,0,40,40,10,,,,752.8613821999998,None,751.6781136,752.8781522999998,a,1,0.3749180000004344,圣洁,k,1,0.7052982999994128,wpr,f,22,2024_Apr_18_1014,mian,2021.2.3,59.82965301208568,
,,,,,,0,1,pic/flanker5.png,pic/flanker1.png,s,k,pic/AffRest1.png,,,,,,,,,,,,,,,,,,,,,,,,,0,0,0,0,0,41,41,16,,,,755.8446565999993,None,754.6615811000001,755.8616386999993,s,1,0.3774776000000202,卓越,k,1,0.6619339999997464,wpr,f,22,2024_Apr_18_1014,mian,2021.2.3,59.82965301208568,
,,,,,,0,0,pic/flanker6.png,pic/flanker2.png,a,l,pic/AffRest1.png,,,,,,,,,,,,,,,,,,,,,,,,,0,0,0,0,0,42,42,49,,,,758.9447206999994,None,757.7613093999998,758.9615334,a,1,0.9030862999998135,厌恶,l,1,0.7495007999996233,wpr,f,22,2024_Apr_18_1014,mian,2021.2.3,59.82965301208568,
,,,,,,0,0,pic/flanker6.png,pic/flanker2.png,a,l,pic/AffRest1.png,,,,,,,,,,,,,,,,,,,,,,,,,0,0,0,0,0,43,43,17,,,,762.4447327999997,None,761.2614391999996,762.4613712999999,a,1,0.3321525000001202,损害,l,1,0.8831565999998929,wpr,f,22,2024_Apr_18_1014,mian,2021.2.3,59.82965301208568,
,,,,,,0,0,pic/flanker6.png,pic/flanker2.png,a,l,pic/AffRest1.png,,,,,,,,,,,,,,,,,,,,,,,,,0,0,0,0,0,44,44,73,,,,765.5113845999995,None,764.3279425999999,765.5278492999996,a,1,0.777115099999719,撒谎,l,1,0.647476999999526,wpr,f,22,2024_Apr_18_1014,mian,2021.2.3,59.82965301208568,
,,,,,,0,0,pic/flanker6.png,pic/flanker2.png,a,l,pic/AffRest1.png,,,,,,,,,,,,,,,,,,,,,,,,,0,0,0,0,0,45,45,41,,,,768.7614207999995,None,767.5775788000001,768.7780480000001,a,1,0.3376081999995222,丢失,l,1,0.6974748000002364,wpr,f,22,2024_Apr_18_1014,mian,2021.2.3,59.82965301208568,
,,,,,,0,1,pic/flanker5.png,pic/flanker1.png,s,k,pic/AffRest1.png,,,,,,,,,,,,,,,,,,,,,,,,,0,0,0,0,0,46,46,24,,,,771.8281336,None,770.6447596999997,771.8446768999993,s,1,0.3647086000000854,奉献,k,1,0.6948965000001408,wpr,f,22,2024_Apr_18_1014,mian,2021.2.3,59.82965301208568,
,,,,,,0,1,pic/flanker5.png,pic/flanker1.png,s,k,pic/AffRest1.png,,,,,,,,,,,,,,,,,,,,,,,,,0,0,0,0,0,47,47,72,,,,774.9281051999997,None,773.7445793999996,774.9445459999997,s,1,0.3857496999999057,顽强,k,1,0.9822727999999188,wpr,f,22,2024_Apr_18_1014,mian,2021.2.3,59.82965301208568,
,,,,,,1,0,pic/flanker5.png,pic/flanker3.png,a,l,pic/AffRest1.png,,,,,,,,,,,,,,,,,,,,,,,,,0,0,0,0,0,48,48,39,,,,778.2282351999993,None,777.0446286999995,778.2446560999997,a,1,0.7780681999993249,争吵,l,1,0.7180915999997524,wpr,f,22,2024_Apr_18_1014,mian,2021.2.3,59.82965301208568,
,,,,,,1,1,pic/flanker6.png,pic/flanker4.png,s,k,pic/AffRest1.png,,,,,,,,,,,,,,,,,,,,,,,,,0,0,0,0,0,49,49,14,,,,781.6107214999993,None,780.4275791,781.6276881999993,s,1,0.48693070000081207,舒畅,k,1,0.6261604000001171,wpr,f,22,2024_Apr_18_1014,mian,2021.2.3,59.82965301208568,
,,,,,,0,1,pic/flanker6.png,pic/flanker2.png,a,k,pic/AffRest1.png,,,,,,,,,,,,,,,,,,,,,,,,,0,0,0,0,0,50,50,18,,,,784.5615207999999,None,783.3778601999993,784.5775801999998,a,1,0.3809144999995624,秀丽,k,1,0.6630346000001737,wpr,f,22,2024_Apr_18_1014,mian,2021.2.3,59.82965301208568,
,,,,,,1,0,pic/flanker6.png,pic/flanker4.png,s,l,pic/AffRest1.png,,,,,,,,,,,,,,,,,,,,,,,,,0,0,0,0,0,51,51,61,,,,787.5448788999993,None,786.3612463999998,787.5614318999997,s,1,0.4350054000005912,心慌,l,1,0.6524872999998479,wpr,f,22,2024_Apr_18_1014,mian,2021.2.3,59.82965301208568,
,,,,,,0,0,pic/flanker6.png,pic/flanker2.png,a,l,pic/AffRest1.png,,,,,,,,,,,,,,,,,,,,,,,,,0,0,0,0,0,52,52,65,,,,790.6447111999996,None,789.4608650999999,790.6614912999994,a,1,0.3420252999994773,逃避,l,1,1.0766656999994666,wpr,f,22,2024_Apr_18_1014,mian,2021.2.3,59.82965301208568,
,,,,,,1,0,pic/flanker5.png,pic/flanker3.png,a,l,pic/AffRest1.png,,,,,,,,,,,,,,,,,,,,,,,,,0,0,0,0,0,53,53,31,,,,793.9447872000001,None,792.7612528,793.9613541999997,a,1,0.4387787000005119,郁闷,l,1,0.6408648999995421,wpr,f,22,2024_Apr_18_1014,mian,2021.2.3,59.82965301208568,
,,,,,,0,1,pic/flanker5.png,pic/flanker1.png,s,k,pic/AffRest1.png,,,,,,,,,,,,,,,,,,,,,,,,,0,0,0,0,0,54,54,0,,,,797.0114266,None,795.8275005999994,797.0275576999993,s,1,0.4123936000005415,热切,k,1,1.5664289999995162,wpr,f,22,2024_Apr_18_1014,mian,2021.2.3,59.82965301208568,
,,,,,,1,0,pic/flanker6.png,pic/flanker4.png,s,l,pic/AffRest1.png,,,,,,,,,,,,,,,,,,,,,,,,,0,0,0,0,0,55,55,5,,,,800.8115375999996,None,799.6280280000001,800.8281518999993,s,1,0.5179415000002336,忧虑,l,1,0.6669941000000108,wpr,f,22,2024_Apr_18_1014,mian,2021.2.3,59.82965301208568,
,,,,,,1,0,pic/flanker6.png,pic/flanker4.png,s,l,pic/AffRest1.png,,,,,,,,,,,,,,,,,,,,,,,,,0,0,0,0,0,56,56,69,,,,803.9780813999996,None,802.7947356999994,803.9947112999998,s,1,0.49824770000032004,消沉,l,1,0.6686265999996976,wpr,f,22,2024_Apr_18_1014,mian,2021.2.3,59.82965301208568,
,,,,,,0,1,pic/flanker5.png,pic/flanker1.png,s,k,pic/AffRest1.png,,,,,,,,,,,,,,,,,,,,,,,,,0,0,0,0,0,57,57,40,,,,806.9946368999999,None,805.8113358999999,807.0113456999998,s,1,0.3648188000006485,公平,k,1,1.0612060000003112,wpr,f,22,2024_Apr_18_1014,mian,2021.2.3,59.82965301208568,
,,,,,,0,0,pic/flanker6.png,pic/flanker2.png,a,l,pic/AffRest1.png,,,,,,,,,,,,,,,,,,,,,,,,,0,0,0,0,0,58,58,33,,,,810.3614723000001,None,809.1777255999996,810.3780680999998,a,1,0.44969140000011976,缺乏,l,1,0.5507343999997829,wpr,f,22,2024_Apr_18_1014,mian,2021.2.3,59.82965301208568,
,,,,,,1,1,pic/flanker6.png,pic/flanker4.png,s,k,pic/AffRest1.png,,,,,,,,,,,,,,,,,,,,,,,,,0,0,0,0,0,59,59,22,,,,813.3780441999997,None,812.1946592999993,813.3947823999997,s,1,0.471047400000316,珍藏,k,1,0.6318407999997362,wpr,f,22,2024_Apr_18_1014,mian,2021.2.3,59.82965301208568,
,,,,,,1,0,pic/flanker6.png,pic/flanker4.png,s,l,pic/AffRest1.png,,,,,,,,,,,,,,,,,,,,,,,,,0,0,0,0,0,60,60,77,,,,816.4614824999999,None,815.2779780000001,816.4780406,s,1,0.4712743000000046,胡涂,l,1,0.71084669999982,wpr,f,22,2024_Apr_18_1014,mian,2021.2.3,59.82965301208568,
,,,,,,1,0,pic/flanker6.png,pic/flanker4.png,s,l,pic/AffRest1.png,,,,,,,,,,,,,,,,,,,,,,,,,0,0,0,0,0,61,61,13,,,,819.5781430999996,None,818.3943405999999,819.5947141999995,s,1,0.511554900000192,浪费,l,1,1.2849833999998737,wpr,f,22,2024_Apr_18_1014,mian,2021.2.3,59.82965301208568,
,,,,,,0,0,pic/flanker6.png,pic/flanker2.png,a,l,pic/AffRest1.png,,,,,,,,,,,,,,,,,,,,,,,,,0,0,0,0,0,62,62,1,,,,823.4279288999996,None,822.2446709999995,823.4448868,a,1,0.4159032000006846,自卑,l,1,1.4211959999993269,wpr,f,22,2024_Apr_18_1014,mian,2021.2.3,59.82965301208568,
,,,,,,0,0,pic/flanker6.png,pic/flanker2.png,a,l,pic/AffRest1.png,,,,,,,,,,,,,,,,,,,,,,,,,0,0,0,0,0,63,63,25,,,,827.2774308999997,None,826.0947007999994,827.2947129999993,a,1,0.6418611999997665,排斥,l,1,0.8633216000007451,wpr,f,22,2024_Apr_18_1014,mian,2021.2.3,59.82965301208568,
,,,,,,1,0,pic/flanker5.png,pic/flanker3.png,a,l,pic/AffRest1.png,,,,,,,,,,,,,,,,,,,,,,,,,0,0,0,0,0,64,64,71,,,,830.6780549999994,None,829.4946937999994,830.6946293999999,a,1,0.6523578999995152,处罚,l,1,0.6835482999995293,wpr,f,22,2024_Apr_18_1014,mian,2021.2.3,59.82965301208568,
,,,,,,1,0,pic/flanker5.png,pic/flanker3.png,a,l,pic/AffRest1.png,,,,,,,,,,,,,,,,,,,,,,,,,0,0,0,0,0,65,65,63,,,,833.8613332999994,None,832.6781726999998,833.8780401999993,a,1,0.6578819999995176,轻率,l,1,0.9641476000006151,wpr,f,22,2024_Apr_18_1014,mian,2021.2.3,59.82965301208568,
,,,,,,1,1,pic/flanker6.png,pic/flanker4.png,s,k,pic/AffRest1.png,,,,,,,,,,,,,,,,,,,,,,,,,0,0,0,0,0,66,66,46,,,,837.3947939999998,None,836.2112614999996,837.4115086000002,s,1,0.7338454000000638,富丽,k,1,0.472711899999922,wpr,f,22,2024_Apr_18_1014,mian,2021.2.3,59.82965301208568,
,,,,,,0,1,pic/flanker5.png,pic/flanker1.png,s,k,pic/AffRest1.png,,,,,,,,,,,,,,,,,,,,,,,,,0,0,0,0,0,67,67,64,,,,840.4274894999999,None,839.2448723999996,840.4446332999996,s,1,0.41749590000017633,雄厚,k,1,0.5581389999997555,wpr,f,22,2024_Apr_18_1014,mian,2021.2.3,59.82965301208568,
,,,,,,0,0,pic/flanker5.png,pic/flanker1.png,s,l,pic/AffRest1.png,,,,,,,,,,,,,,,,,,,,,,,,,0,0,0,0,0,68,68,3,,,,843.2440171999997,None,842.0613463999998,843.2612918999994,s,1,0.5822822999998607,鲁莽,l,1,0.6638162999997803,wpr,f,22,2024_Apr_18_1014,mian,2021.2.3,59.82965301208568,
,,,,,,0,1,pic/flanker5.png,pic/flanker1.png,s,k,pic/AffRest1.png,,,,,,,,,,,,,,,,,,,,,,,,,0,0,0,0,0,69,69,56,,,,846.328133,None,845.1446823999995,846.3446888999997,s,1,0.48475909999979194,廉洁,k,1,1.2087100999997347,wpr,f,22,2024_Apr_18_1014,mian,2021.2.3,59.82965301208568,
,,,,,,1,0,pic/flanker6.png,pic/flanker4.png,s,l,pic/AffRest1.png,,,,,,,,,,,,,,,,,,,,,,,,,0,0,0,0,0,70,70,53,,,,849.9113385999999,None,848.7279250000001,849.9274176999998,s,1,0.58820999999989,怀疑,l,1,0.8496709999999439,wpr,f,22,2024_Apr_18_1014,mian,2021.2.3,59.82965301208568,
,,,,,,1,1,pic/flanker5.png,pic/flanker3.png,a,k,pic/AffRest1.png,,,,,,,,,,,,,,,,,,,,,,,,,0,0,0,0,0,71,71,60,,,,853.2447062000001,None,852.0612369,853.2612946999998,a,1,0.46448550000059186,鲜艳,k,1,0.6246793000000253,wpr,f,22,2024_Apr_18_1014,mian,2021.2.3,59.82965301208568,
,,,,,,1,1,pic/flanker5.png,pic/flanker3.png,a,k,pic/AffRest1.png,,,,,,,,,,,,,,,,,,,,,,,,,0,0,0,0,0,72,72,44,,,,856.2780625999994,None,855.0944485999999,856.2947563999996,a,1,0.4852485000001252,振作,k,1,0.5909610999997312,wpr,f,22,2024_Apr_18_1014,mian,2021.2.3,59.82965301208568,
,,,,,,1,0,pic/flanker5.png,pic/flanker3.png,a,l,pic/AffRest1.png,,,,,,,,,,,,,,,,,,,,,,,,,0,0,0,0,0,73,73,7,,,,859.3942473999996,None,858.2106951999995,859.4107284000002,a,1,0.5299505000002682,黑暗,l,1,1.2266719999997804,wpr,f,22,2024_Apr_18_1014,mian,2021.2.3,59.82965301208568,
,,,,,,1,0,pic/flanker5.png,pic/flanker3.png,a,l,pic/AffRest1.png,,,,,,,,,,,,,,,,,,,,,,,,,0,0,0,0,0,74,74,15,,,,863.1447183,None,861.9613946999998,863.1614221,a,1,0.40453010000055656,落后,l,1,0.7707467999998698,wpr,f,22,2024_Apr_18_1014,mian,2021.2.3,59.82965301208568,
,,,,,,1,1,pic/flanker5.png,pic/flanker3.png,a,k,pic/AffRest1.png,,,,,,,,,,,,,,,,,,,,,,,,,0,0,0,0,0,75,75,4,,,,866.3272000999996,None,865.1445564999995,866.3442859999996,a,1,0.4374141000007512,豪放,k,1,0.6818809000005785,wpr,f,22,2024_Apr_18_1014,mian,2021.2.3,59.82965301208568,
,,,,,,0,1,pic/flanker6.png,pic/flanker2.png,a,k,pic/AffRest1.png,,,,,,,,,,,,,,,,,,,,,,,,,0,0,0,0,0,76,76,2,,,,869.3777769999997,None,868.1947024000001,869.3947192999995,a,1,0.39882200000010926,富足,k,1,0.563011700000061,wpr,f,22,2024_Apr_18_1014,mian,2021.2.3,59.82965301208568,
,,,,,,0,1,pic/flanker6.png,pic/flanker2.png,a,k,pic/AffRest1.png,,,,,,,,,,,,,,,,,,,,,,,,,0,0,0,0,0,77,77,74,,,,872.2776036999994,None,871.0946058,872.2947403999997,a,1,0.35356620000038674,俊秀,k,1,0.5485559999997349,wpr,f,22,2024_Apr_18_1014,mian,2021.2.3,59.82965301208568,
,,,,,,1,1,pic/flanker6.png,pic/flanker4.png,s,k,pic/AffRest1.png,,,,,,,,,,,,,,,,,,,,,,,,,0,0,0,0,0,78,78,62,,,,875.1112984000001,None,873.9280623999994,875.1278930999997,s,1,0.4746180000001914,赞成,k,1,0.5362403999997696,wpr,f,22,2024_Apr_18_1014,mian,2021.2.3,59.82965301208568,
,,,,,,1,0,pic/flanker5.png,pic/flanker3.png,a,l,pic/AffRest1.png,,,,,,,,,,,,,,,,,,,,,,,,,0,0,0,0,0,79,79,47,,,,878.1614318000002,None,876.9780090999993,878.1780362,a,1,0.4581484000000273,罚款,l,1,0.7735669000003327,wpr,f,22,2024_Apr_18_1014,mian,2021.2.3,59.82965301208568,
,,,,,,,,,,,,pic/AffRest1.png,,,,,,,,,,,,,,,,,,,,,,,,,0,0,0,0,,,,,,,,,,,,,,,,,,,wpr,f,22,2024_Apr_18_1014,mian,2021.2.3,59.82965301208568,
,,,,,,0,1,pic/flanker6.png,pic/flanker2.png,a,k,pic/AffRest2.png,,,,,,,,,,,,,,,,,,,,,,,,,0,1,1,1,0,0,0,42,,,,892.3279220999993,None,891.1379041999999,892.3446260000001,a,1,0.38829059999989113,顽强,k,1,0.7290470999996614,wpr,f,22,2024_Apr_18_1014,mian,2021.2.3,59.82965301208568,
,,,,,,0,1,pic/flanker6.png,pic/flanker2.png,a,k,pic/AffRest2.png,,,,,,,,,,,,,,,,,,,,,,,,,0,1,1,1,0,1,1,2,,,,895.3111442,None,894.1280307999996,895.3277901000001,a,1,0.3963507999997091,赞成,k,1,0.4962354999997842,wpr,f,22,2024_Apr_18_1014,mian,2021.2.3,59.82965301208568,
,,,,,,0,1,pic/flanker5.png,pic/flanker1.png,s,k,pic/AffRest2.png,,,,,,,,,,,,,,,,,,,,,,,,,0,1,1,1,0,2,2,48,,,,898.0274842999997,None,896.8444392000001,898.0439587999999,s,1,0.4440161000002263,豪放,k,1,0.6433680000000095,wpr,f,22,2024_Apr_18_1014,mian,2021.2.3,59.82965301208568,
,,,,,,1,0,pic/flanker6.png,pic/flanker4.png,s,l,pic/AffRest2.png,,,,,,,,,,,,,,,,,,,,,,,,,0,1,1,1,0,3,3,29,,,,901.0443445999999,None,899.8612451999998,901.0612388999998,s,1,0.4977798999998413,伤心,l,1,0.5953856000005544,wpr,f,22,2024_Apr_18_1014,mian,2021.2.3,59.82965301208568,
,,,,,,1,0,pic/flanker5.png,pic/flanker3.png,a,l,pic/AffRest2.png,,,,,,,,,,,,,,,,,,,,,,,,,0,1,1,1,0,4,4,39,,,,904.1612369999993,None,902.9779866999997,904.1779688999995,a,1,0.4164947999997821,郁闷,l,1,0.5884342999997898,wpr,f,22,2024_Apr_18_1014,mian,2021.2.3,59.82965301208568,
,,,,,,0,0,pic/flanker6.png,pic/flanker2.png,a,l,pic/AffRest2.png,,,,,,,,,,,,,,,,,,,,,,,,,0,1,1,1,0,5,5,25,,,,907.0781589999997,None,905.8948455,907.0949090999993,a,1,0.46547869999994873,丢失,l,1,0.6445598000000246,wpr,f,22,2024_Apr_18_1014,mian,2021.2.3,59.82965301208568,
,,,,,,0,1,pic/flanker5.png,pic/flanker1.png,s,k,pic/AffRest2.png,,,,,,,,,,,,,,,,,,,,,,,,,0,1,1,1,0,6,6,72,,,,910.1781756999999,None,908.9943368999993,910.1945059999998,s,1,0.3347719000003053,前进,k,1,0.5792433000005985,wpr,f,22,2024_Apr_18_1014,mian,2021.2.3,59.82965301208568,
,,,,,,1,1,pic/flanker6.png,pic/flanker4.png,s,k,pic/AffRest2.png,,,,,,,,,,,,,,,,,,,,,,,,,0,1,1,1,0,7,7,70,,,,913.0776538,None,911.8940939999993,913.0944749999999,s,1,0.5086676000000807,鲜艳,k,1,0.6508258999992904,wpr,f,22,2024_Apr_18_1014,mian,2021.2.3,59.82965301208568,
,,,,,,0,1,pic/flanker6.png,pic/flanker2.png,a,k,pic/AffRest2.png,,,,,,,,,,,,,,,,,,,,,,,,,0,1,1,1,0,8,8,58,,,,916.1279107,None,914.9448839999995,916.1446042999996,a,1,0.3147060999999667,留恋,k,1,0.7854287000000113,wpr,f,22,2024_Apr_18_1014,mian,2021.2.3,59.82965301208568,
,,,,,,1,0,pic/flanker6.png,pic/flanker4.png,s,l,pic/AffRest2.png,,,,,,,,,,,,,,,,,,,,,,,,,0,1,1,1,0,9,9,45,,,,919.2115011999995,None,918.0279535,919.2279681,s,1,0.5934934999995676,撒谎,l,1,0.6896260999992592,wpr,f,22,2024_Apr_18_1014,mian,2021.2.3,59.82965301208568,
,,,,,,1,1,pic/flanker6.png,pic/flanker4.png,s,k,pic/AffRest2.png,,,,,,,,,,,,,,,,,,,,,,,,,0,1,1,1,0,10,10,54,,,,922.4779683999996,None,921.2944880999994,922.4945625999999,s,1,0.4626741000001857,秀丽,k,1,0.6232940999998391,wpr,f,22,2024_Apr_18_1014,mian,2021.2.3,59.82965301208568,
,,,,,,1,1,pic/flanker5.png,pic/flanker3.png,a,k,pic/AffRest2.png,,,,,,,,,,,,,,,,,,,,,,,,,0,1,1,1,0,11,11,4,,,,925.4949268,None,924.3111349999999,925.5114126999997,a,1,0.7244356000001062,有利,k,1,0.6390429999992193,wpr,f,22,2024_Apr_18_1014,mian,2021.2.3,59.82965301208568,
,,,,,,0,1,pic/flanker5.png,pic/flanker1.png,s,k,pic/AffRest2.png,,,,,,,,,,,,,,,,,,,,,,,,,0,1,1,1,0,12,12,64,,,,928.7944416999999,None,927.6111630999994,928.8113899999998,s,1,0.461138700000447,卓越,k,1,0.6721232999998392,wpr,f,22,2024_Apr_18_1014,mian,2021.2.3,59.82965301208568,
,,,,,,0,0,pic/flanker6.png,pic/flanker2.png,a,l,pic/AffRest2.png,,,,,,,,,,,,,,,,,,,,,,,,,0,1,1,1,0,13,13,41,,,,931.9779626999998,None,930.7945264999998,931.9945294999998,a,1,0.5946334999998726,怀疑,l,1,0.7903515999996671,wpr,f,22,2024_Apr_18_1014,mian,2021.2.3,59.82965301208568,
,,,,,,1,0,pic/flanker6.png,pic/flanker4.png,s,l,pic/AffRest2.png,,,,,,,,,,,,,,,,,,,,,,,,,0,1,1,1,0,14,14,53,,,,935.2446056999997,None,934.0612866000001,935.261297,s,1,0.7787306000000171,孤单,l,1,1.8769870999994964,wpr,f,22,2024_Apr_18_1014,mian,2021.2.3,59.82965301208568,
,,,,,,1,1,pic/flanker5.png,pic/flanker3.png,a,k,pic/AffRest2.png,,,,,,,,,,,,,,,,,,,,,,,,,0,1,1,1,0,15,15,36,,,,939.8776786999997,None,938.6944468000002,939.8944981999994,a,1,1.1066484000002674,优雅,k,1,0.9013204000002588,wpr,f,22,2024_Apr_18_1014,mian,2021.2.3,59.82965301208568,
,,,,,,1,1,pic/flanker6.png,pic/flanker4.png,s,k,pic/AffRest2.png,,,,,,,,,,,,,,,,,,,,,,,,,0,1,1,1,0,16,16,6,,,,943.9113111999995,None,942.7277702000001,943.9276450999996,s,1,1.2900627999997596,正直,k,1,0.7045366000002105,wpr,f,22,2024_Apr_18_1014,mian,2021.2.3,59.82965301208568,
,,,,,,1,1,pic/flanker6.png,pic/flanker4.png,s,k,pic/AffRest2.png,,,,,,,,,,,,,,,,,,,,,,,,,0,1,1,1,0,17,17,30,,,,947.8445025999999,None,946.6614400999997,947.8612710999996,s,1,0.509225200000401,吉祥,k,1,0.47048910000012256,wpr,f,22,2024_Apr_18_1014,mian,2021.2.3,59.82965301208568,
,,,,,,1,0,pic/flanker6.png,pic/flanker4.png,s,l,pic/AffRest2.png,,,,,,,,,,,,,,,,,,,,,,,,,0,1,1,1,0,18,18,13,,,,950.8612524,None,949.6776648999994,950.8778440999995,s,1,0.6187999000003401,冷笑,l,1,0.6898670000000493,wpr,f,22,2024_Apr_18_1014,mian,2021.2.3,59.82965301208568,
,,,,,,1,1,pic/flanker5.png,pic/flanker3.png,a,k,pic/AffRest2.png,,,,,,,,,,,,,,,,,,,,,,,,,0,1,1,1,0,19,19,12,,,,954.1106167999997,None,952.9277428999994,954.1278118,a,1,0.7349995000004128,精致,k,1,0.5595395000000281,wpr,f,22,2024_Apr_18_1014,mian,2021.2.3,59.82965301208568,
,,,,,,1,0,pic/flanker5.png,pic/flanker3.png,a,l,pic/AffRest2.png,,,,,,,,,,,,,,,,,,,,,,,,,0,1,1,1,0,20,20,7,,,,957.2441921,None,956.0605390000001,957.2609990000001,a,1,0.581552599999668,悲观,l,1,0.7982262999994418,wpr,f,22,2024_Apr_18_1014,mian,2021.2.3,59.82965301208568,
,,,,,,0,0,pic/flanker6.png,pic/flanker2.png,a,l,pic/AffRest2.png,,,,,,,,,,,,,,,,,,,,,,,,,0,1,1,1,0,21,21,49,,,,960.4945800999994,None,959.3110606999999,960.5111073999997,a,1,0.48829620000014984,懒惰,l,1,0.626421300000402,wpr,f,22,2024_Apr_18_1014,mian,2021.2.3,59.82965301208568,
,,,,,,1,0,pic/flanker5.png,pic/flanker3.png,a,l,pic/AffRest2.png,,,,,,,,,,,,,,,,,,,,,,,,,0,1,1,1,0,22,22,71,,,,963.4945577999997,None,962.3108904000001,963.5112945999999,a,1,1.0886293000003207,慌忙,l,1,1.03194429999985,wpr,f,22,2024_Apr_18_1014,mian,2021.2.3,59.82965301208568,
,,,,,,0,1,pic/flanker5.png,pic/flanker1.png,s,k,pic/AffRest2.png,,,,,,,,,,,,,,,,,,,,,,,,,0,1,1,1,0,23,23,32,,,,967.4444396999997,None,966.2611880999993,967.4611982999995,s,1,0.46691399999963323,富足,k,1,0.5471090000000913,wpr,f,22,2024_Apr_18_1014,mian,2021.2.3,59.82965301208568,
,,,,,,1,1,pic/flanker6.png,pic/flanker4.png,s,k,pic/AffRest2.png,,,,,,,,,,,,,,,,,,,,,,,,,0,1,1,1,0,24,24,78,,,,970.3944281999993,None,969.2113561999995,970.4111910000001,s,1,0.5150780000003579,充裕,k,1,1.4758098000002065,wpr,f,22,2024_Apr_18_1014,mian,2021.2.3,59.82965301208568,
,,,,,,1,1,pic/flanker5.png,pic/flanker3.png,a,k,pic/AffRest2.png,,,,,,,,,,,,,,,,,,,,,,,,,0,1,1,1,0,25,25,60,,,,974.3939532999993,None,973.2112096000001,974.4111929999999,a,1,0.4563719999996465,爽朗,k,1,0.5353666000000885,wpr,f,22,2024_Apr_18_1014,mian,2021.2.3,59.82965301208568,
,,,,,,0,0,pic/flanker6.png,pic/flanker2.png,a,l,pic/AffRest2.png,,,,,,,,,,,,,,,,,,,,,,,,,0,1,1,1,0,26,26,65,,,,977.3945343999994,None,976.2113288999999,977.4112412999993,a,1,0.4383650999998281,杂乱,l,1,0.6425052999993568,wpr,f,22,2024_Apr_18_1014,mian,2021.2.3,59.82965301208568,
,,,,,,1,0,pic/flanker5.png,pic/flanker3.png,a,l,pic/AffRest2.png,,,,,,,,,,,,,,,,,,,,,,,,,0,1,1,1,0,27,27,63,,,,980.51073,None,979.3272081999994,980.5273422,a,1,0.7774975000002087,浪费,l,1,0.7330538999995042,wpr,f,22,2024_Apr_18_1014,mian,2021.2.3,59.82965301208568,
,,,,,,1,1,pic/flanker5.png,pic/flanker3.png,a,k,pic/AffRest2.png,,,,,,,,,,,,,,,,,,,,,,,,,0,1,1,1,0,28,28,68,,,,983.9611104999994,None,982.7780026,983.9778428,a,1,0.4901559999998426,公平,k,1,0.9048204999999143,wpr,f,22,2024_Apr_18_1014,mian,2021.2.3,59.82965301208568,
,,,,,,0,1,pic/flanker6.png,pic/flanker2.png,a,k,pic/AffRest2.png,,,,,,,,,,,,,,,,,,,,,,,,,0,1,1,1,0,29,29,66,,,,987.3778112,None,986.1943999999994,987.3944352999997,a,1,0.3824709000000439,生动,k,1,0.5943127999998978,wpr,f,22,2024_Apr_18_1014,mian,2021.2.3,59.82965301208568,
,,,,,,0,0,pic/flanker6.png,pic/flanker2.png,a,l,pic/AffRest2.png,,,,,,,,,,,,,,,,,,,,,,,,,0,1,1,1,0,30,30,1,,,,990.3112899999996,None,989.1277972999997,990.3276559999995,a,1,0.3603136000001541,胡涂,l,1,0.9460402000004251,wpr,f,22,2024_Apr_18_1014,mian,2021.2.3,59.82965301208568,
,,,,,,0,0,pic/flanker5.png,pic/flanker1.png,s,l,pic/AffRest2.png,,,,,,,,,,,,,,,,,,,,,,,,,0,1,1,1,0,31,31,3,,,,993.4444926999995,None,992.2611781999994,993.4611122999995,s,1,0.3838553999994474,烦恼,l,1,0.6904522000004363,wpr,f,22,2024_Apr_18_1014,mian,2021.2.3,59.82965301208568,
,,,,,,1,1,pic/flanker6.png,pic/flanker4.png,s,k,pic/AffRest2.png,,,,,,,,,,,,,,,,,,,,,,,,,0,1,1,1,0,32,32,22,,,,996.4111910000001,None,995.2278994999997,996.4277892999999,s,1,1.1082040000001143,典雅,k,1,0.6250570000001971,wpr,f,22,2024_Apr_18_1014,mian,2021.2.3,59.82965301208568,
,,,,,,1,0,pic/flanker5.png,pic/flanker3.png,a,l,pic/AffRest2.png,,,,,,,,,,,,,,,,,,,,,,,,,0,1,1,1,0,33,33,55,,,,1000.0938478999997,None,998.9112142999993,1000.1111436000001,a,1,0.6878801000002568,落后,l,1,1.285391299999901,wpr,f,22,2024_Apr_18_1014,mian,2021.2.3,59.82965301208568,
,,,,,,1,0,pic/flanker6.png,pic/flanker4.png,s,l,pic/AffRest2.png,,,,,,,,,,,,,,,,,,,,,,,,,0,1,1,1,0,34,34,21,,,,1004.0604567999999,None,1002.8777572999998,1004.0770656999994,s,1,0.5567190000001574,缺乏,l,1,0.6546361000000616,wpr,f,22,2024_Apr_18_1014,mian,2021.2.3,59.82965301208568,
,,,,,,1,1,pic/flanker6.png,pic/flanker4.png,s,k,pic/AffRest2.png,,,,,,,,,,,,,,,,,,,,,,,,,0,1,1,1,0,35,35,38,,,,1007.2278448999996,None,1006.0442717999995,1007.2444175999999,s,1,0.5344273000000612,旺盛,k,1,0.6142718999999488,wpr,f,22,2024_Apr_18_1014,mian,2021.2.3,59.82965301208568,
,,,,,,0,1,pic/flanker5.png,pic/flanker1.png,s,k,pic/AffRest2.png,,,,,,,,,,,,,,,,,,,,,,,,,0,1,1,1,0,36,36,40,,,,1010.2105756999999,None,1009.0270755000001,1010.2273773999996,s,1,0.512909099999888,如愿,l,0,0.6919657999997071,wpr,f,22,2024_Apr_18_1014,mian,2021.2.3,59.82965301208568,
,,,,,,1,0,pic/flanker5.png,pic/flanker3.png,a,l,pic/AffRest2.png,,,,,,,,,,,,,,,,,,,,,,,,,0,1,1,1,0,37,37,31,,,,1013.4442141999998,None,1012.2613986999995,1013.4611422999997,a,1,0.7298064999995404,轻率,None,0,,wpr,f,22,2024_Apr_18_1014,mian,2021.2.3,59.82965301208568,
,,,,,,0,1,pic/flanker5.png,pic/flanker1.png,s,k,pic/AffRest2.png,,,,,,,,,,,,,,,,,,,,,,,,,0,1,1,1,0,38,38,8,,,,1018.5273969,None,1017.3438880999993,1018.5442245999993,s,1,0.344367599999714,廉洁,k,1,0.532510000000002,wpr,f,22,2024_Apr_18_1014,mian,2021.2.3,59.82965301208568,
,,,,,,1,0,pic/flanker5.png,pic/flanker3.png,a,l,pic/AffRest2.png,,,,,,,,,,,,,,,,,,,,,,,,,0,1,1,1,0,39,39,79,,,,1021.2939835999996,None,1020.1111076999996,1021.3106971999996,a,1,0.4934880000000703,禁止,l,1,0.7144697999992786,wpr,f,22,2024_Apr_18_1014,mian,2021.2.3,59.82965301208568,
,,,,,,0,1,pic/flanker6.png,pic/flanker2.png,a,k,pic/AffRest2.png,,,,,,,,,,,,,,,,,,,,,,,,,0,1,1,1,0,40,40,50,,,,1024.3444517999997,None,1023.1613812999994,1024.3612124,a,1,0.34953589999986434,诚恳,k,1,0.8791022000004887,wpr,f,22,2024_Apr_18_1014,mian,2021.2.3,59.82965301208568,
,,,,,,1,0,pic/flanker6.png,pic/flanker4.png,s,l,pic/AffRest2.png,,,,,,,,,,,,,,,,,,,,,,,,,0,1,1,1,0,41,41,69,,,,1027.5778061,None,1026.3944603999998,1027.5943625999998,s,1,0.4231926000002204,假冒,l,1,1.135473500000444,wpr,f,22,2024_Apr_18_1014,mian,2021.2.3,59.82965301208568,
,,,,,,1,0,pic/flanker5.png,pic/flanker3.png,a,l,pic/AffRest2.png,,,,,,,,,,,,,,,,,,,,,,,,,0,1,1,1,0,42,42,15,,,,1031.1278386999993,None,1029.9443522000001,1031.1444376999998,a,1,0.41903050000018993,处罚,l,1,0.6287827999994988,wpr,f,22,2024_Apr_18_1014,mian,2021.2.3,59.82965301208568,
,,,,,,0,1,pic/flanker6.png,pic/flanker2.png,a,k,pic/AffRest2.png,,,,,,,,,,,,,,,,,,,,,,,,,0,1,1,1,0,43,43,26,,,,1034.0610016,None,1032.8775975999997,1034.0774815999994,a,1,0.4306430000006003,享受,k,1,0.9151076999996803,wpr,f,22,2024_Apr_18_1014,mian,2021.2.3,59.82965301208568,
,,,,,,1,0,pic/flanker6.png,pic/flanker4.png,s,l,pic/AffRest2.png,,,,,,,,,,,,,,,,,,,,,,,,,0,1,1,1,0,44,44,77,,,,1037.2444672000001,None,1036.0610484999997,1037.2608934999998,s,1,0.4896270999997796,逃避,l,1,0.7611418999995294,wpr,f,22,2024_Apr_18_1014,mian,2021.2.3,59.82965301208568,
,,,,,,0,0,pic/flanker6.png,pic/flanker2.png,a,l,pic/AffRest2.png,,,,,,,,,,,,,,,,,,,,,,,,,0,1,1,1,0,45,45,17,,,,1040.3277049999997,None,1039.1442911999993,1040.3444728999993,a,1,0.3655687000000398,堵塞,l,1,0.5770110999992539,wpr,f,22,2024_Apr_18_1014,mian,2021.2.3,59.82965301208568,
,,,,,,0,0,pic/flanker5.png,pic/flanker1.png,s,l,pic/AffRest2.png,,,,,,,,,,,,,,,,,,,,,,,,,0,1,1,1,0,46,46,51,,,,1043.2108080999997,None,1042.0278153,1043.2276164999994,s,1,0.6001773000007233,失意,l,1,0.5883960000001025,wpr,f,22,2024_Apr_18_1014,mian,2021.2.3,59.82965301208568,
,,,,,,0,0,pic/flanker5.png,pic/flanker1.png,s,l,pic/AffRest2.png,,,,,,,,,,,,,,,,,,,,,,,,,0,1,1,1,0,47,47,27,,,,1046.394424,None,1045.2109552000002,1046.4109282,s,1,0.37015859999974055,焦躁,l,1,0.6231477000001178,wpr,f,22,2024_Apr_18_1014,mian,2021.2.3,59.82965301208568,
,,,,,,0,1,pic/flanker5.png,pic/flanker1.png,s,k,pic/AffRest2.png,,,,,,,,,,,,,,,,,,,,,,,,,0,1,1,1,0,48,48,16,,,,1049.3112698999994,None,1048.1274619999995,1049.3278940999999,s,1,0.35709439999936876,舒畅,l,0,0.7554913999993005,wpr,f,22,2024_Apr_18_1014,mian,2021.2.3,59.82965301208568,
,,,,,,1,0,pic/flanker6.png,pic/flanker4.png,s,l,pic/AffRest2.png,,,,,,,,,,,,,,,,,,,,,,,,,0,1,1,1,0,49,49,61,,,,1052.3775916999994,None,1051.1943833999994,1052.3944438999997,s,1,0.474981200000002,排斥,l,1,1.1968924000002517,wpr,f,22,2024_Apr_18_1014,mian,2021.2.3,59.82965301208568,
,,,,,,0,1,pic/flanker6.png,pic/flanker2.png,a,k,pic/AffRest2.png,,,,,,,,,,,,,,,,,,,,,,,,,0,1,1,1,0,50,50,18,,,,1055.9778471,None,1054.7944287,1055.9944902999996,a,1,0.3658466999995653,清秀,k,1,0.5503897999997207,wpr,f,22,2024_Apr_18_1014,mian,2021.2.3,59.82965301208568,
,,,,,,0,1,pic/flanker6.png,pic/flanker2.png,a,k,pic/AffRest2.png,,,,,,,,,,,,,,,,,,,,,,,,,0,1,1,1,0,51,51,74,,,,1058.7944082999993,None,1057.6111265999998,1058.8111826999993,a,1,0.33512489999975514,羡慕,k,1,0.7834099000001515,wpr,f,22,2024_Apr_18_1014,mian,2021.2.3,59.82965301208568,
,,,,,,1,1,pic/flanker5.png,pic/flanker3.png,a,k,pic/AffRest2.png,,,,,,,,,,,,,,,,,,,,,,,,,0,1,1,1,0,52,52,52,,,,1061.9110522,None,1060.7269189999997,1061.9273832999997,a,1,0.5777825000004668,奉献,k,1,0.6288744000003135,wpr,f,22,2024_Apr_18_1014,mian,2021.2.3,59.82965301208568,
,,,,,,1,0,pic/flanker6.png,pic/flanker4.png,s,l,pic/AffRest2.png,,,,,,,,,,,,,,,,,,,,,,,,,0,1,1,1,0,53,53,37,,,,1065.0612924999996,None,1063.8776064999993,1065.0778605999994,s,1,0.48422479999953794,嘲笑,l,1,0.6959384000001592,wpr,f,22,2024_Apr_18_1014,mian,2021.2.3,59.82965301208568,
,,,,,,0,1,pic/flanker5.png,pic/flanker1.png,s,k,pic/AffRest2.png,,,,,,,,,,,,,,,,,,,,,,,,,0,1,1,1,0,54,54,24,,,,1068.2112601,None,1067.0277019999994,1068.2279517999996,s,1,0.44821239999964746,热切,k,1,0.8012883999999758,wpr,f,22,2024_Apr_18_1014,mian,2021.2.3,59.82965301208568,
,,,,,,0,0,pic/flanker5.png,pic/flanker1.png,s,l,pic/AffRest2.png,,,,,,,,,,,,,,,,,,,,,,,,,0,1,1,1,0,55,55,35,,,,1071.5111219,None,1070.3275574999998,1071.5277417999996,s,1,0.3826750999996875,消沉,l,1,1.5971255999993446,wpr,f,22,2024_Apr_18_1014,mian,2021.2.3,59.82965301208568,
,,,,,,0,1,pic/flanker6.png,pic/flanker2.png,a,k,pic/AffRest2.png,,,,,,,,,,,,,,,,,,,,,,,,,0,1,1,1,0,56,56,34,,,,1075.4610626999993,None,1074.277647,1075.4777414,a,1,0.31447100000059436,雄厚,k,1,0.6917435000004843,wpr,f,22,2024_Apr_18_1014,mian,2021.2.3,59.82965301208568,
,,,,,,1,1,pic/flanker5.png,pic/flanker3.png,a,k,pic/AffRest2.png,,,,,,,,,,,,,,,,,,,,,,,,,0,1,1,1,0,57,57,28,,,,1078.4443320999999,None,1077.2610679999998,1078.4608362999998,a,1,0.485037000000375,丰满,k,1,1.6652149000001373,wpr,f,22,2024_Apr_18_1014,mian,2021.2.3,59.82965301208568,
,,,,,,0,0,pic/flanker5.png,pic/flanker1.png,s,l,pic/AffRest2.png,,,,,,,,,,,,,,,,,,,,,,,,,0,1,1,1,0,58,58,59,,,,1082.4444058999998,None,1081.2610957999996,1082.4610634,s,1,0.36395360000005894,忧虑,l,1,0.6120531999995364,wpr,f,22,2024_Apr_18_1014,mian,2021.2.3,59.82965301208568,
,,,,,,0,0,pic/flanker5.png,pic/flanker1.png,s,l,pic/AffRest2.png,,,,,,,,,,,,,,,,,,,,,,,,,0,1,1,1,0,59,59,75,,,,1085.3443241999994,None,1084.1609811999997,1085.3610811999997,s,1,0.3929898999995203,罚款,l,1,0.6745437999998103,wpr,f,22,2024_Apr_18_1014,mian,2021.2.3,59.82965301208568,
,,,,,,0,1,pic/flanker5.png,pic/flanker1.png,s,k,pic/AffRest2.png,,,,,,,,,,,,,,,,,,,,,,,,,0,1,1,1,0,60,60,56,,,,1088.3608881,None,1087.1775853,1088.3776622999994,s,1,0.37093389999972715,富丽,k,1,0.5730721999998423,wpr,f,22,2024_Apr_18_1014,mian,2021.2.3,59.82965301208568,
,,,,,,0,0,pic/flanker5.png,pic/flanker1.png,s,l,pic/AffRest2.png,,,,,,,,,,,,,,,,,,,,,,,,,0,1,1,1,0,61,61,19,,,,1091.2942506999998,None,1090.1109682999995,1091.3109316,s,1,1.179314300000442,心慌,l,1,1.4781482999997024,wpr,f,22,2024_Apr_18_1014,mian,2021.2.3,59.82965301208568,
,,,,,,1,1,pic/flanker5.png,pic/flanker3.png,a,k,pic/AffRest2.png,,,,,,,,,,,,,,,,,,,,,,,,,0,1,1,1,0,62,62,76,,,,1095.8943559,None,1094.7109351,1095.9108907999998,a,1,0.4142289000001256,圣洁,k,1,0.6530449000001681,wpr,f,22,2024_Apr_18_1014,mian,2021.2.3,59.82965301208568,
,,,,,,0,0,pic/flanker6.png,pic/flanker2.png,a,l,pic/AffRest2.png,,,,,,,,,,,,,,,,,,,,,,,,,0,1,1,1,0,63,63,73,,,,1098.8605457999993,None,1097.6768352999998,1098.8773262999994,a,1,0.4159822000001441,闷热,l,1,0.6461871999999858,wpr,f,22,2024_Apr_18_1014,mian,2021.2.3,59.82965301208568,
,,,,,,0,0,pic/flanker6.png,pic/flanker2.png,a,l,pic/AffRest2.png,,,,,,,,,,,,,,,,,,,,,,,,,0,1,1,1,0,64,64,9,,,,1101.9609653999996,None,1100.7777289999995,1101.977648,a,1,0.36698919999980717,损害,l,1,0.9134712999994008,wpr,f,22,2024_Apr_18_1014,mian,2021.2.3,59.82965301208568,
,,,,,,0,0,pic/flanker5.png,pic/flanker1.png,s,l,pic/AffRest2.png,,,,,,,,,,,,,,,,,,,,,,,,,0,1,1,1,0,65,65,43,,,,1105.2775652999999,None,1104.0943957999998,1105.2944404,s,1,0.5648108000004868,鲁莽,l,1,1.5110049000004437,wpr,f,22,2024_Apr_18_1014,mian,2021.2.3,59.82965301208568,
,,,,,,1,1,pic/flanker6.png,pic/flanker4.png,s,k,pic/AffRest2.png,,,,,,,,,,,,,,,,,,,,,,,,,0,1,1,1,0,66,66,62,,,,1109.1773153999993,None,1107.9943047999996,1109.1939404999994,s,1,0.6729181999999128,珍藏,k,1,0.767792499999814,wpr,f,22,2024_Apr_18_1014,mian,2021.2.3,59.82965301208568,
,,,,,,1,0,pic/flanker5.png,pic/flanker3.png,a,l,pic/AffRest2.png,,,,,,,,,,,,,,,,,,,,,,,,,0,1,1,1,0,67,67,47,,,,1112.5441987999993,None,1111.3608617999998,1112.5607191999998,a,1,0.6926630999996632,沮丧,l,1,0.7860786000001099,wpr,f,22,2024_Apr_18_1014,mian,2021.2.3,59.82965301208568,
,,,,,,1,0,pic/flanker5.png,pic/flanker3.png,a,l,pic/AffRest2.png,,,,,,,,,,,,,,,,,,,,,,,,,0,1,1,1,0,68,68,23,,,,1115.8612527999994,None,1114.6776002999995,1115.8774420999998,a,1,0.5189510999998674,别扭,l,1,0.5603622000007817,wpr,f,22,2024_Apr_18_1014,mian,2021.2.3,59.82965301208568,
,,,,,,0,0,pic/flanker6.png,pic/flanker2.png,a,l,pic/AffRest2.png,,,,,,,,,,,,,,,,,,,,,,,,,0,1,1,1,0,69,69,33,,,,1118.843452,None,1117.6609720999995,1118.8602784999994,a,1,0.4083922999998322,穷苦,l,1,0.672870200000034,wpr,f,22,2024_Apr_18_1014,mian,2021.2.3,59.82965301208568,
,,,,,,1,1,pic/flanker5.png,pic/flanker3.png,a,k,pic/AffRest2.png,,,,,,,,,,,,,,,,,,,,,,,,,0,1,1,1,0,70,70,44,,,,1121.7609667999996,None,1120.5774578,1121.7776668999995,a,1,0.5358239999995931,瑰丽,k,1,0.685205799999494,wpr,f,22,2024_Apr_18_1014,mian,2021.2.3,59.82965301208568,
,,,,,,0,0,pic/flanker5.png,pic/flanker1.png,s,l,pic/AffRest2.png,,,,,,,,,,,,,,,,,,,,,,,,,0,1,1,1,0,71,71,67,,,,1124.9607505999993,None,1123.7773583999997,1124.9777444000001,s,1,0.40808409999954165,自卑,l,1,1.2103789000002507,wpr,f,22,2024_Apr_18_1014,mian,2021.2.3,59.82965301208568,
,,,,,,1,1,pic/flanker6.png,pic/flanker4.png,s,k,pic/AffRest2.png,,,,,,,,,,,,,,,,,,,,,,,,,0,1,1,1,0,72,72,14,,,,1128.4609984999997,None,1127.2777417999996,1128.4775738999997,s,1,0.6787037999993117,敬佩,k,1,0.9166414000001168,wpr,f,22,2024_Apr_18_1014,mian,2021.2.3,59.82965301208568,
,,,,,,0,1,pic/flanker6.png,pic/flanker2.png,a,k,pic/AffRest2.png,,,,,,,,,,,,,,,,,,,,,,,,,0,1,1,1,0,73,73,10,,,,1131.8942188,None,1130.7107668999997,1131.9107883999995,a,1,0.34894899999926565,振作,k,1,0.7399144000000888,wpr,f,22,2024_Apr_18_1014,mian,2021.2.3,59.82965301208568,
,,,,,,0,1,pic/flanker5.png,pic/flanker1.png,s,k,pic/AffRest2.png,,,,,,,,,,,,,,,,,,,,,,,,,0,1,1,1,0,74,74,0,,,,1135.0440229999995,None,1133.8607923999998,1135.0608364,s,1,0.3457714999995005,畅销,k,1,0.8149814999997034,wpr,f,22,2024_Apr_18_1014,mian,2021.2.3,59.82965301208568,
,,,,,,1,0,pic/flanker6.png,pic/flanker4.png,s,l,pic/AffRest2.png,,,,,,,,,,,,,,,,,,,,,,,,,0,1,1,1,0,75,75,5,,,,1138.2440160999995,None,1137.0603387,1138.2613062,s,1,0.4626852000001236,黑暗,l,1,0.6309047000004284,wpr,f,22,2024_Apr_18_1014,mian,2021.2.3,59.82965301208568,
,,,,,,0,0,pic/flanker6.png,pic/flanker2.png,a,l,pic/AffRest2.png,,,,,,,,,,,,,,,,,,,,,,,,,0,1,1,1,0,76,76,57,,,,1141.3266821999996,None,1140.1441205,1141.3435375,a,1,0.3880759000003309,厌恶,l,1,0.5161981000001106,wpr,f,22,2024_Apr_18_1014,mian,2021.2.3,59.82965301208568,
,,,,,,1,1,pic/flanker6.png,pic/flanker4.png,s,k,pic/AffRest2.png,,,,,,,,,,,,,,,,,,,,,,,,,0,1,1,1,0,77,77,46,,,,1144.1108810999995,None,1142.9274759999998,1144.1274218999997,s,1,0.6918901000008191,永恒,l,0,0.8663378999999622,wpr,f,22,2024_Apr_18_1014,mian,2021.2.3,59.82965301208568,
,,,,,,1,1,pic/flanker5.png,pic/flanker3.png,a,k,pic/AffRest2.png,,,,,,,,,,,,,,,,,,,,,,,,,0,1,1,1,0,78,78,20,,,,1147.5442367999995,None,1146.3606786,1147.5607701999998,a,1,0.7194884000000457,俊秀,k,1,0.6121625000005224,wpr,f,22,2024_Apr_18_1014,mian,2021.2.3,59.82965301208568,
,,,,,,0,0,pic/flanker5.png,pic/flanker1.png,s,l,pic/AffRest2.png,,,,,,,,,,,,,,,,,,,,,,,,,0,1,1,1,0,79,79,11,,,,1150.827539,None,1149.6439740999995,1150.8441316999997,s,1,0.37695130000065546,争吵,l,1,1.4956817000002047,wpr,f,22,2024_Apr_18_1014,mian,2021.2.3,59.82965301208568,
,,,,,,,,,,,,pic/AffRest2.png,,,,,,,,,,,,,,,,,,,,,,,,,0,1,1,1,,,,,,,,,,,,,,,,,,,wpr,f,22,2024_Apr_18_1014,mian,2021.2.3,59.82965301208568,
,,,,,,1,0,pic/flanker5.png,pic/flanker3.png,a,l,pic/AffRest3.png,,,,,,,,,,,,,,,,,,,,,,,,,0,2,2,2,0,0,0,55,,,,1295.0773539000002,None,1293.8898789999994,1295.0940814999994,a,1,0.6542572999996992,伤心,l,1,0.6179550999995627,wpr,f,22,2024_Apr_18_1014,mian,2021.2.3,59.82965301208568,
,,,,,,1,1,pic/flanker6.png,pic/flanker4.png,s,k,pic/AffRest3.png,,,,,,,,,,,,,,,,,,,,,,,,,0,2,2,2,0,1,1,22,,,,1298.1940402,None,1297.0105586999998,1298.2107009000001,s,1,0.5111993000000439,富丽,k,1,0.5725721999997404,wpr,f,22,2024_Apr_18_1014,mian,2021.2.3,59.82965301208568,
,,,,,,1,0,pic/flanker6.png,pic/flanker4.png,s,l,pic/AffRest3.png,,,,,,,,,,,,,,,,,,,,,,,,,0,2,2,2,0,2,2,5,,,,1301.2106849000002,None,1300.0272436999994,1301.2273270999995,s,1,0.4443621999998868,撒谎,l,1,0.5839934000005087,wpr,f,22,2024_Apr_18_1014,mian,2021.2.3,59.82965301208568,
,,,,,,0,1,pic/flanker5.png,pic/flanker1.png,s,k,pic/AffRest3.png,,,,,,,,,,,,,,,,,,,,,,,,,0,2,2,2,0,3,3,56,,,,1304.2772661999998,None,1303.0939622999995,1304.2939632999996,s,1,0.4021951999993689,热切,k,1,0.8679811999991216,wpr,f,22,2024_Apr_18_1014,mian,2021.2.3,59.82965301208568,
,,,,,,0,1,pic/flanker6.png,pic/flanker2.png,a,k,pic/AffRest3.png,,,,,,,,,,,,,,,,,,,,,,,,,0,2,2,2,0,4,4,50,,,,1307.4106412,None,1306.2271842,1307.4271861999996,a,1,0.3485301000000618,鲜艳,k,1,0.5844004999999015,wpr,f,22,2024_Apr_18_1014,mian,2021.2.3,59.82965301208568,
,,,,,,0,0,pic/flanker6.png,pic/flanker2.png,a,l,pic/AffRest3.png,,,,,,,,,,,,,,,,,,,,,,,,,0,2,2,2,0,5,5,41,,,,1310.2774185999997,None,1309.0938762999995,1310.2939922999994,a,1,0.3397684000001391,浪费,l,1,0.6217074000005596,wpr,f,22,2024_Apr_18_1014,mian,2021.2.3,59.82965301208568,
,,,,,,0,1,pic/flanker5.png,pic/flanker1.png,s,k,pic/AffRest3.png,,,,,,,,,,,,,,,,,,,,,,,,,0,2,2,2,0,6,6,32,,,,1313.1273277999999,None,1311.9441018999996,1313.1439942999996,s,1,0.2998478999998042,畅销,k,1,0.562150599999768,wpr,f,22,2024_Apr_18_1014,mian,2021.2.3,59.82965301208568,
,,,,,,1,1,pic/flanker6.png,pic/flanker4.png,s,k,pic/AffRest3.png,,,,,,,,,,,,,,,,,,,,,,,,,0,2,2,2,0,7,7,14,,,,1315.9273023999995,None,1314.7439008000001,1315.9439765999996,s,1,0.45160370000030525,生动,k,1,0.6026958000002196,wpr,f,22,2024_Apr_18_1014,mian,2021.2.3,59.82965301208568,
,,,,,,1,0,pic/flanker6.png,pic/flanker4.png,s,l,pic/AffRest3.png,,,,,,,,,,,,,,,,,,,,,,,,,0,2,2,2,0,8,8,13,,,,1318.8267195999997,None,1317.6437913999998,1318.8440735999993,s,1,0.5786619000000428,穷苦,l,1,0.9750156000000061,wpr,f,22,2024_Apr_18_1014,mian,2021.2.3,59.82965301208568,
,,,,,,1,1,pic/flanker5.png,pic/flanker3.png,a,k,pic/AffRest3.png,,,,,,,,,,,,,,,,,,,,,,,,,0,2,2,2,0,9,9,60,,,,1322.2105265999999,None,1321.0275682000001,1322.2272407,a,1,0.4026975000006132,顽强,k,1,0.9726713000000018,wpr,f,22,2024_Apr_18_1014,mian,2021.2.3,59.82965301208568,
,,,,,,0,0,pic/flanker6.png,pic/flanker2.png,a,l,pic/AffRest3.png,,,,,,,,,,,,,,,,,,,,,,,,,0,2,2,2,0,10,10,73,,,,1325.5768933,None,1324.3940837,1325.5931308999998,a,1,0.3818908000002921,悲观,l,1,0.7886733000004824,wpr,f,22,2024_Apr_18_1014,mian,2021.2.3,59.82965301208568,
,,,,,,1,0,pic/flanker6.png,pic/flanker4.png,s,l,pic/AffRest3.png,,,,,,,,,,,,,,,,,,,,,,,,,0,2,2,2,0,11,11,61,,,,1328.6272324000001,None,1327.4437276999997,1328.6440384999996,s,1,0.47806800000034855,慌忙,l,1,0.7508905999993658,wpr,f,22,2024_Apr_18_1014,mian,2021.2.3,59.82965301208568,
,,,,,,1,1,pic/flanker5.png,pic/flanker3.png,a,k,pic/AffRest3.png,,,,,,,,,,,,,,,,,,,,,,,,,0,2,2,2,0,12,12,4,,,,1331.7104787999997,None,1330.5271152999994,1331.7271144999995,a,1,0.6725404999997409,吉祥,k,1,0.6277997000006508,wpr,f,22,2024_Apr_18_1014,mian,2021.2.3,59.82965301208568,
,,,,,,1,1,pic/flanker5.png,pic/flanker3.png,a,k,pic/AffRest3.png,,,,,,,,,,,,,,,,,,,,,,,,,0,2,2,2,0,13,13,76,,,,1334.8439484,None,1333.6606243999995,1334.8607066999994,a,1,0.6302348999997776,典雅,k,1,0.57340159999967,wpr,f,22,2024_Apr_18_1014,mian,2021.2.3,59.82965301208568,
,,,,,,1,0,pic/flanker5.png,pic/flanker3.png,a,l,pic/AffRest3.png,,,,,,,,,,,,,,,,,,,,,,,,,0,2,2,2,0,14,14,31,,,,1337.9766832999994,None,1336.7937689999999,1337.9933846999993,a,1,0.5560472000006484,堵塞,l,1,0.6721450000004552,wpr,f,22,2024_Apr_18_1014,mian,2021.2.3,59.82965301208568,
,,,,,,1,1,pic/flanker6.png,pic/flanker4.png,s,k,pic/AffRest3.png,,,,,,,,,,,,,,,,,,,,,,,,,0,2,2,2,0,15,15,78,,,,1341.0438570999995,None,1339.8605589999997,1341.0606081999995,s,1,0.4729466999997385,羡慕,k,1,0.5393408999998428,wpr,f,22,2024_Apr_18_1014,mian,2021.2.3,59.82965301208568,
,,,,,,0,1,pic/flanker5.png,pic/flanker1.png,s,k,pic/AffRest3.png,,,,,,,,,,,,,,,,,,,,,,,,,0,2,2,2,0,16,16,8,,,,1343.9939398999995,None,1342.8106383999993,1344.0105551999995,s,1,0.45921069999985775,正直,k,1,0.7277927000004638,wpr,f,22,2024_Apr_18_1014,mian,2021.2.3,59.82965301208568,
,,,,,,0,1,pic/flanker6.png,pic/flanker2.png,a,k,pic/AffRest3.png,,,,,,,,,,,,,,,,,,,,,,,,,0,2,2,2,0,17,17,66,,,,1347.2103111999995,None,1346.0271810999993,1347.227546,a,1,0.36824999999953434,圣洁,k,1,0.4893302999998923,wpr,f,22,2024_Apr_18_1014,mian,2021.2.3,59.82965301208568,
,,,,,,0,0,pic/flanker5.png,pic/flanker1.png,s,l,pic/AffRest3.png,,,,,,,,,,,,,,,,,,,,,,,,,0,2,2,2,0,18,18,67,,,,1350.0267095,None,1348.8438188,1350.0439688999995,s,1,0.3599973999998838,胡涂,l,1,1.03168259999984,wpr,f,22,2024_Apr_18_1014,mian,2021.2.3,59.82965301208568,
,,,,,,0,0,pic/flanker5.png,pic/flanker1.png,s,l,pic/AffRest3.png,,,,,,,,,,,,,,,,,,,,,,,,,0,2,2,2,0,19,19,19,,,,1353.3099697999996,None,1352.1270556999998,1353.3266906999997,s,1,0.3416323999999804,缺乏,l,1,0.6249698000001445,wpr,f,22,2024_Apr_18_1014,mian,2021.2.3,59.82965301208568,
,,,,,,0,0,pic/flanker5.png,pic/flanker1.png,s,l,pic/AffRest3.png,,,,,,,,,,,,,,,,,,,,,,,,,0,2,2,2,0,20,20,27,,,,1356.2607447,None,1355.0770317999995,1356.2769846,s,1,0.31526250000024447,逃避,l,1,0.7015012000001661,wpr,f,22,2024_Apr_18_1014,mian,2021.2.3,59.82965301208568,
,,,,,,1,0,pic/flanker5.png,pic/flanker3.png,a,l,pic/AffRest3.png,,,,,,,,,,,,,,,,,,,,,,,,,0,2,2,2,0,21,21,79,,,,1359.1772537999996,None,1357.9936995999997,1359.1939888999996,a,1,0.7377508999998099,懒惰,l,1,0.6120305000004009,wpr,f,22,2024_Apr_18_1014,mian,2021.2.3,59.82965301208568,
,,,,,,1,0,pic/flanker5.png,pic/flanker3.png,a,l,pic/AffRest3.png,,,,,,,,,,,,,,,,,,,,,,,,,0,2,2,2,0,22,22,15,,,,1362.5605815999998,None,1361.3766265999993,1362.5766832,a,1,0.48201960000005784,损害,l,1,0.6189184000004389,wpr,f,22,2024_Apr_18_1014,mian,2021.2.3,59.82965301208568,
,,,,,,0,1,pic/flanker5.png,pic/flanker1.png,s,k,pic/AffRest3.png,,,,,,,,,,,,,,,,,,,,,,,,,0,2,2,2,0,23,23,72,,,,1365.5105734999997,None,1364.3271841999995,1365.5270813999996,s,1,0.35524009999971895,清秀,k,1,0.6292884000004051,wpr,f,22,2024_Apr_18_1014,mian,2021.2.3,59.82965301208568,
,,,,,,0,0,pic/flanker5.png,pic/flanker1.png,s,l,pic/AffRest3.png,,,,,,,,,,,,,,,,,,,,,,,,,0,2,2,2,0,24,24,43,,,,1368.476917,None,1367.2939221999995,1368.4939011999995,s,1,0.35971020000033604,冷笑,l,1,0.6786820000006628,wpr,f,22,2024_Apr_18_1014,mian,2021.2.3,59.82965301208568,
,,,,,,0,0,pic/flanker5.png,pic/flanker1.png,s,l,pic/AffRest3.png,,,,,,,,,,,,,,,,,,,,,,,,,0,2,2,2,0,25,25,3,,,,1371.3939067000001,None,1370.2105308999999,1371.4105241999996,s,1,0.35349740000037855,厌恶,l,1,0.6052981000002546,wpr,f,22,2024_Apr_18_1014,mian,2021.2.3,59.82965301208568,
,,,,,,1,0,pic/flanker5.png,pic/flanker3.png,a,l,pic/AffRest3.png,,,,,,,,,,,,,,,,,,,,,,,,,0,2,2,2,0,26,26,71,,,,1374.3936559999993,None,1373.2105766999994,1374.4105549999995,a,1,0.6132825999993656,落后,l,1,0.8565124000006108,wpr,f,22,2024_Apr_18_1014,mian,2021.2.3,59.82965301208568,
,,,,,,0,1,pic/flanker6.png,pic/flanker2.png,a,k,pic/AffRest3.png,,,,,,,,,,,,,,,,,,,,,,,,,0,2,2,2,0,27,27,74,,,,1377.6939275999994,None,1376.5104530999997,1377.7106107999998,a,1,0.7905290000007881,瑰丽,k,1,0.6012405000001309,wpr,f,22,2024_Apr_18_1014,mian,2021.2.3,59.82965301208568,
,,,,,,0,0,pic/flanker6.png,pic/flanker2.png,a,l,pic/AffRest3.png,,,,,,,,,,,,,,,,,,,,,,,,,0,2,2,2,0,28,28,25,,,,1380.9766532999993,None,1379.7938373999996,1380.9933526999994,a,1,0.3469764999999825,假冒,l,1,0.6011501000002681,wpr,f,22,2024_Apr_18_1014,mian,2021.2.3,59.82965301208568,
,,,,,,0,0,pic/flanker6.png,pic/flanker2.png,a,l,pic/AffRest3.png,,,,,,,,,,,,,,,,,,,,,,,,,0,2,2,2,0,29,29,1,,,,1383.8606390999994,None,1382.6771986999993,1383.8773223999997,a,1,0.416508000000249,处罚,l,1,0.6443269000001237,wpr,f,22,2024_Apr_18_1014,mian,2021.2.3,59.82965301208568,
,,,,,,0,0,pic/flanker5.png,pic/flanker1.png,s,l,pic/AffRest3.png,,,,,,,,,,,,,,,,,,,,,,,,,0,2,2,2,0,30,30,11,,,,1386.8439204999995,None,1385.6605173999997,1386.8605104999997,s,1,0.31307139999989886,心慌,l,1,0.7098635000002105,wpr,f,22,2024_Apr_18_1014,mian,2021.2.3,59.82965301208568,
,,,,,,1,1,pic/flanker5.png,pic/flanker3.png,a,k,pic/AffRest3.png,,,,,,,,,,,,,,,,,,,,,,,,,0,2,2,2,0,31,31,20,,,,1389.743786,None,1388.5603760999993,1389.7606836999994,a,1,0.416960200000176,优雅,k,1,0.6611087000001135,wpr,f,22,2024_Apr_18_1014,mian,2021.2.3,59.82965301208568,
,,,,,,0,0,pic/flanker5.png,pic/flanker1.png,s,l,pic/AffRest3.png,,,,,,,,,,,,,,,,,,,,,,,,,0,2,2,2,0,32,32,75,,,,1392.8602015999995,None,1391.6766594,1392.8768401999996,s,1,0.31794780000018363,杂乱,l,1,0.8140058999997564,wpr,f,22,2024_Apr_18_1014,mian,2021.2.3,59.82965301208568,
,,,,,,0,0,pic/flanker6.png,pic/flanker2.png,a,l,pic/AffRest3.png,,,,,,,,,,,,,,,,,,,,,,,,,0,2,2,2,0,33,33,17,,,,1396.0604317999996,None,1394.8772251,1396.0770429999993,a,1,0.30867099999977654,争吵,l,1,0.4955035000002681,wpr,f,22,2024_Apr_18_1014,mian,2021.2.3,59.82965301208568,
,,,,,,1,1,pic/flanker5.png,pic/flanker3.png,a,k,pic/AffRest3.png,,,,,,,,,,,,,,,,,,,,,,,,,0,2,2,2,0,34,34,44,,,,1398.9105672999995,None,1397.7273673,1398.9271159999998,a,1,0.4734056999996028,富足,k,1,0.6855130000003555,wpr,f,22,2024_Apr_18_1014,mian,2021.2.3,59.82965301208568,
,,,,,,0,1,pic/flanker6.png,pic/flanker2.png,a,k,pic/AffRest3.png,,,,,,,,,,,,,,,,,,,,,,,,,0,2,2,2,0,35,35,18,,,,1402.0604026,None,1400.8769994999993,1402.0770701000001,a,1,0.33481579999988753,敬佩,k,1,0.8672766999998203,wpr,f,22,2024_Apr_18_1014,mian,2021.2.3,59.82965301208568,
,,,,,,1,1,pic/flanker6.png,pic/flanker4.png,s,k,pic/AffRest3.png,,,,,,,,,,,,,,,,,,,,,,,,,0,2,2,2,0,36,36,46,,,,1405.1437779999997,None,1403.9602931999998,1405.1603860999994,s,1,0.5511138000001665,享受,k,1,0.4488633999999365,wpr,f,22,2024_Apr_18_1014,mian,2021.2.3,59.82965301208568,
,,,,,,1,0,pic/flanker5.png,pic/flanker3.png,a,l,pic/AffRest3.png,,,,,,,,,,,,,,,,,,,,,,,,,0,2,2,2,0,37,37,39,,,,1408.1271713999995,None,1406.9438992999994,1408.1437734,a,1,0.41019580000011047,忧虑,l,1,0.5894152999999278,wpr,f,22,2024_Apr_18_1014,mian,2021.2.3,59.82965301208568,
,,,,,,1,0,pic/flanker5.png,pic/flanker3.png,a,l,pic/AffRest3.png,,,,,,,,,,,,,,,,,,,,,,,,,0,2,2,2,0,38,38,63,,,,1411.1102259,None,1409.9271589999998,1411.1262680999998,a,1,0.6385049999998955,怀疑,l,1,2.130229999999756,wpr,f,22,2024_Apr_18_1014,mian,2021.2.3,59.82965301208568,
,,,,,,0,1,pic/flanker5.png,pic/flanker1.png,s,k,pic/AffRest3.png,,,,,,,,,,,,,,,,,,,,,,,,,0,2,2,2,0,39,39,40,,,,1415.7771726,None,1414.5938640999993,1415.7935270999997,s,1,0.44781500000044616,爽朗,k,1,0.5875568000001294,wpr,f,22,2024_Apr_18_1014,mian,2021.2.3,59.82965301208568,
,,,,,,0,0,pic/flanker5.png,pic/flanker1.png,s,l,pic/AffRest3.png,,,,,,,,,,,,,,,,,,,,,,,,,0,2,2,2,0,40,40,51,,,,1418.8270865999993,None,1417.6439027999995,1418.8438975,s,1,0.34982159999981377,闷热,l,1,0.7208351000008406,wpr,f,22,2024_Apr_18_1014,mian,2021.2.3,59.82965301208568,
,,,,,,1,0,pic/flanker6.png,pic/flanker4.png,s,l,pic/AffRest3.png,,,,,,,,,,,,,,,,,,,,,,,,,0,2,2,2,0,41,41,21,,,,1421.7605737999993,None,1420.5772646999994,1421.7771619999994,s,1,0.5599116999992475,孤单,l,1,0.6255531999995583,wpr,f,22,2024_Apr_18_1014,mian,2021.2.3,59.82965301208568,
,,,,,,0,0,pic/flanker6.png,pic/flanker2.png,a,l,pic/AffRest3.png,,,,,,,,,,,,,,,,,,,,,,,,,0,2,2,2,0,42,42,65,,,,1424.9441980000001,None,1423.7604887999996,1424.9604915999998,a,1,0.3346692000004623,沮丧,l,1,0.5595152000005328,wpr,f,22,2024_Apr_18_1014,mian,2021.2.3,59.82965301208568,
,,,,,,1,1,pic/flanker6.png,pic/flanker4.png,s,k,pic/AffRest3.png,,,,,,,,,,,,,,,,,,,,,,,,,0,2,2,2,0,43,43,54,,,,1427.8770466999995,None,1426.6937629999993,1427.8938349999999,s,1,0.455363999999463,旺盛,k,1,0.5778084999992643,wpr,f,22,2024_Apr_18_1014,mian,2021.2.3,59.82965301208568,
,,,,,,1,0,pic/flanker5.png,pic/flanker3.png,a,l,pic/AffRest3.png,,,,,,,,,,,,,,,,,,,,,,,,,0,2,2,2,0,44,44,23,,,,1430.8105698,None,1429.6271552999997,1430.8273982,a,1,0.4395027000000482,禁止,l,1,0.7582157999995616,wpr,f,22,2024_Apr_18_1014,mian,2021.2.3,59.82965301208568,
,,,,,,1,1,pic/flanker6.png,pic/flanker4.png,s,k,pic/AffRest3.png,,,,,,,,,,,,,,,,,,,,,,,,,0,2,2,2,0,45,45,38,,,,1433.9103865999996,None,1432.7270195,1433.9272587999994,s,1,0.48435760000029404,廉洁,k,1,0.6552566000000297,wpr,f,22,2024_Apr_18_1014,mian,2021.2.3,59.82965301208568,
,,,,,,1,0,pic/flanker6.png,pic/flanker4.png,s,l,pic/AffRest3.png,,,,,,,,,,,,,,,,,,,,,,,,,0,2,2,2,0,46,46,29,,,,1436.9105042,None,1435.7269551,1436.9270631999998,s,1,0.4570387000003393,别扭,l,1,0.6600039000004472,wpr,f,22,2024_Apr_18_1014,mian,2021.2.3,59.82965301208568,
,,,,,,0,1,pic/flanker5.png,pic/flanker1.png,s,k,pic/AffRest3.png,,,,,,,,,,,,,,,,,,,,,,,,,0,2,2,2,0,47,47,24,,,,1440.0106786999995,None,1438.8271613999996,1440.0271299999995,s,1,0.4361470999992889,豪放,k,1,0.5434361999996327,wpr,f,22,2024_Apr_18_1014,mian,2021.2.3,59.82965301208568,
,,,,,,0,0,pic/flanker5.png,pic/flanker1.png,s,l,pic/AffRest3.png,,,,,,,,,,,,,,,,,,,,,,,,,0,2,2,2,0,48,48,35,,,,1442.8105009,None,1441.6271553999995,1442.8272511999994,s,1,0.3990912000008393,郁闷,l,1,0.5436650999999983,wpr,f,22,2024_Apr_18_1014,mian,2021.2.3,59.82965301208568,
,,,,,,0,1,pic/flanker5.png,pic/flanker1.png,s,k,pic/AffRest3.png,,,,,,,,,,,,,,,,,,,,,,,,,0,2,2,2,0,49,49,16,,,,1445.7769779,None,1444.5937629999999,1445.7937754999994,s,1,0.471528699999908,充裕,k,1,0.5817544999999882,wpr,f,22,2024_Apr_18_1014,mian,2021.2.3,59.82965301208568,
,,,,,,0,1,pic/flanker6.png,pic/flanker2.png,a,k,pic/AffRest3.png,,,,,,,,,,,,,,,,,,,,,,,,,0,2,2,2,0,50,50,10,,,,1448.7104331,None,1447.5272553999994,1448.7271664999998,a,1,0.364536500000213,振作,k,1,0.5172741999995196,wpr,f,22,2024_Apr_18_1014,mian,2021.2.3,59.82965301208568,
,,,,,,1,1,pic/flanker5.png,pic/flanker3.png,a,k,pic/AffRest3.png,,,,,,,,,,,,,,,,,,,,,,,,,0,2,2,2,0,51,51,36,,,,1451.6437440999998,None,1450.4605376,1451.660516,a,1,0.5576790999994046,珍藏,k,1,1.4051331000000573,wpr,f,22,2024_Apr_18_1014,mian,2021.2.3,59.82965301208568,
,,,,,,1,0,pic/flanker5.png,pic/flanker3.png,a,l,pic/AffRest3.png,,,,,,,,,,,,,,,,,,,,,,,,,0,2,2,2,0,52,52,7,,,,1455.5772025999995,None,1454.3936471999996,1455.5937464999997,a,1,0.8384980999999243,罚款,l,1,0.6039003000005323,wpr,f,22,2024_Apr_18_1014,mian,2021.2.3,59.82965301208568,
,,,,,,1,1,pic/flanker5.png,pic/flanker3.png,a,k,pic/AffRest3.png,,,,,,,,,,,,,,,,,,,,,,,,,0,2,2,2,0,53,53,12,,,,1458.8602869999995,None,1457.6771112999995,1458.8771704,a,1,0.4245403000004444,舒畅,k,1,0.7861466000003929,wpr,f,22,2024_Apr_18_1014,mian,2021.2.3,59.82965301208568,
,,,,,,0,0,pic/flanker6.png,pic/flanker2.png,a,l,pic/AffRest3.png,,,,,,,,,,,,,,,,,,,,,,,,,0,2,2,2,0,54,54,57,,,,1461.9270791,None,1460.7438354999995,1461.9437521,a,1,0.33883179999975255,轻率,l,1,1.0095967000006567,wpr,f,22,2024_Apr_18_1014,mian,2021.2.3,59.82965301208568,
,,,,,,1,0,pic/flanker6.png,pic/flanker4.png,s,l,pic/AffRest3.png,,,,,,,,,,,,,,,,,,,,,,,,,0,2,2,2,0,55,55,45,,,,1465.1269900999996,None,1463.9437966999994,1465.1437537000002,s,1,0.5232040999999299,消沉,l,1,0.6902156000005562,wpr,f,22,2024_Apr_18_1014,mian,2021.2.3,59.82965301208568,
,,,,,,1,1,pic/flanker6.png,pic/flanker4.png,s,k,pic/AffRest3.png,,,,,,,,,,,,,,,,,,,,,,,,,0,2,2,2,0,56,56,70,,,,1468.3938158,None,1467.2103649,1468.4105049,s,1,0.7683513000001767,诚恳,k,1,0.9208146999999371,wpr,f,22,2024_Apr_18_1014,mian,2021.2.3,59.82965301208568,
,,,,,,1,1,pic/flanker5.png,pic/flanker3.png,a,k,pic/AffRest3.png,,,,,,,,,,,,,,,,,,,,,,,,,0,2,2,2,0,57,57,68,,,,1472.1267983999996,None,1470.9436203999994,1472.1439354999993,a,1,0.5218977999993513,前进,k,1,0.4681602999999086,wpr,f,22,2024_Apr_18_1014,mian,2021.2.3,59.82965301208568,
,,,,,,0,0,pic/flanker6.png,pic/flanker2.png,a,l,pic/AffRest3.png,,,,,,,,,,,,,,,,,,,,,,,,,0,2,2,2,0,58,58,49,,,,1475.0603370999997,None,1473.8768298999994,1475.0769990999997,a,1,0.3595678000001499,失意,l,1,0.5049924000004467,wpr,f,22,2024_Apr_18_1014,mian,2021.2.3,59.82965301208568,
,,,,,,0,1,pic/flanker6.png,pic/flanker2.png,a,k,pic/AffRest3.png,,,,,,,,,,,,,,,,,,,,,,,,,0,2,2,2,0,59,59,58,,,,1477.8770998,None,1476.6937567999994,1477.8937531000001,a,1,0.3823028999995586,赞成,k,1,0.6118226999997205,wpr,f,22,2024_Apr_18_1014,mian,2021.2.3,59.82965301208568,
,,,,,,1,0,pic/flanker6.png,pic/flanker4.png,s,l,pic/AffRest3.png,,,,,,,,,,,,,,,,,,,,,,,,,0,2,2,2,0,60,60,37,,,,1480.8768356,None,1479.6931482,1480.893513,s,1,0.5328602999998111,黑暗,l,1,1.0423094999996465,wpr,f,22,2024_Apr_18_1014,mian,2021.2.3,59.82965301208568,
,,,,,,1,1,pic/flanker5.png,pic/flanker3.png,a,k,pic/AffRest3.png,,,,,,,,,,,,,,,,,,,,,,,,,0,2,2,2,0,61,61,52,,,,1484.3436882999995,None,1483.1600484,1484.3604756999994,a,1,0.46435979999932897,公平,k,1,0.6392434999997931,wpr,f,22,2024_Apr_18_1014,mian,2021.2.3,59.82965301208568,
,,,,,,1,1,pic/flanker6.png,pic/flanker4.png,s,k,pic/AffRest3.png,,,,,,,,,,,,,,,,,,,,,,,,,0,2,2,2,0,62,62,6,,,,1487.4768633999993,None,1486.2930206,1487.4935337999996,s,1,0.45067999999992026,俊秀,k,1,1.1269554999998945,wpr,f,22,2024_Apr_18_1014,mian,2021.2.3,59.82965301208568,
,,,,,,0,0,pic/flanker6.png,pic/flanker2.png,a,l,pic/AffRest3.png,,,,,,,,,,,,,,,,,,,,,,,,,0,2,2,2,0,63,63,33,,,,1490.8936014,None,1489.7103238,1490.9103797999996,a,1,0.3454680000004373,鲁莽,l,1,1.0942826000000423,wpr,f,22,2024_Apr_18_1014,mian,2021.2.3,59.82965301208568,
,,,,,,0,1,pic/flanker6.png,pic/flanker2.png,a,k,pic/AffRest3.png,,,,,,,,,,,,,,,,,,,,,,,,,0,2,2,2,0,64,64,26,,,,1494.3103918999996,None,1493.1273243999995,1494.3270840999994,a,1,0.31081170000015845,留恋,k,1,0.8760829000002559,wpr,f,22,2024_Apr_18_1014,mian,2021.2.3,59.82965301208568,
,,,,,,1,0,pic/flanker6.png,pic/flanker4.png,s,l,pic/AffRest3.png,,,,,,,,,,,,,,,,,,,,,,,,,0,2,2,2,0,65,65,53,,,,1497.4770819999994,None,1496.2947917000001,1497.5105201999995,s,1,0.4353034000005209,排斥,l,1,0.6851664999994682,wpr,f,22,2024_Apr_18_1014,mian,2021.2.3,59.82965301208568,
,,,,,,1,1,pic/flanker6.png,pic/flanker4.png,s,k,pic/AffRest3.png,,,,,,,,,,,,,,,,,,,,,,,,,0,2,2,2,0,66,66,62,,,,1500.5105367999995,None,1499.3269657,1500.5271981999995,s,1,0.5335854000004474,卓越,l,0,0.6621192000002338,wpr,f,22,2024_Apr_18_1014,mian,2021.2.3,59.82965301208568,
,,,,,,1,0,pic/flanker6.png,pic/flanker4.png,s,l,pic/AffRest3.png,,,,,,,,,,,,,,,,,,,,,,,,,0,2,2,2,0,67,67,77,,,,1503.7603867999997,None,1502.5771427999998,1503.7771026,s,1,0.4905703000003996,焦躁,l,1,0.9405604000003223,wpr,f,22,2024_Apr_18_1014,mian,2021.2.3,59.82965301208568,
,,,,,,0,1,pic/flanker5.png,pic/flanker1.png,s,k,pic/AffRest3.png,,,,,,,,,,,,,,,,,,,,,,,,,0,2,2,2,0,68,68,64,,,,1507.2270645999997,None,1506.0436915999999,1507.2435317,s,1,0.41936879999957455,秀丽,k,1,0.5193232999999964,wpr,f,22,2024_Apr_18_1014,mian,2021.2.3,59.82965301208568,
,,,,,,0,1,pic/flanker6.png,pic/flanker2.png,a,k,pic/AffRest3.png,,,,,,,,,,,,,,,,,,,,,,,,,0,2,2,2,0,69,69,42,,,,1510.1431241,None,1508.9601980999996,1510.1601514999993,a,1,0.3150722999998834,有利,k,1,1.4845961999999417,wpr,f,22,2024_Apr_18_1014,mian,2021.2.3,59.82965301208568,
,,,,,,1,1,pic/flanker5.png,pic/flanker3.png,a,k,pic/AffRest3.png,,,,,,,,,,,,,,,,,,,,,,,,,0,2,2,2,0,70,70,28,,,,1513.8267723,None,1512.6436917,1513.8433647000002,a,1,0.5690040999998018,雄厚,k,1,0.6681741999991573,wpr,f,22,2024_Apr_18_1014,mian,2021.2.3,59.82965301208568,
,,,,,,0,1,pic/flanker6.png,pic/flanker2.png,a,k,pic/AffRest3.png,,,,,,,,,,,,,,,,,,,,,,,,,0,2,2,2,0,71,71,34,,,,1516.9769917999993,None,1515.7936359999994,1516.9937258999998,a,1,0.3968981999996686,永恒,k,1,0.6786290999998528,wpr,f,22,2024_Apr_18_1014,mian,2021.2.3,59.82965301208568,
,,,,,,0,0,pic/flanker5.png,pic/flanker1.png,s,l,pic/AffRest3.png,,,,,,,,,,,,,,,,,,,,,,,,,0,2,2,2,0,72,72,59,,,,1519.8930907999993,None,1518.7104098,1519.9103774999994,s,1,0.3724365999996735,丢失,l,1,0.5930777000003218,wpr,f,22,2024_Apr_18_1014,mian,2021.2.3,59.82965301208568,
,,,,,,0,1,pic/flanker5.png,pic/flanker1.png,s,k,pic/AffRest3.png,,,,,,,,,,,,,,,,,,,,,,,,,0,2,2,2,0,73,73,48,,,,1522.7438259,None,1521.5600668999996,1522.7603986999993,s,1,0.41647399999965273,丰满,k,1,0.7075268999997206,wpr,f,22,2024_Apr_18_1014,mian,2021.2.3,59.82965301208568,
,,,,,,1,0,pic/flanker5.png,pic/flanker3.png,a,l,pic/AffRest3.png,,,,,,,,,,,,,,,,,,,,,,,,,0,2,2,2,0,74,74,47,,,,1525.9430665999998,None,1524.7600310999997,1525.9602656999996,a,1,0.49086259999967297,烦恼,l,1,1.2882710000003499,wpr,f,22,2024_Apr_18_1014,mian,2021.2.3,59.82965301208568,
,,,,,,0,0,pic/flanker6.png,pic/flanker2.png,a,l,pic/AffRest3.png,,,,,,,,,,,,,,,,,,,,,,,,,0,2,2,2,0,75,75,9,,,,1529.6936446999998,None,1528.5103490000001,1529.7102715,a,1,0.47336039999936474,嘲笑,l,1,0.6506444999995438,wpr,f,22,2024_Apr_18_1014,mian,2021.2.3,59.82965301208568,
,,,,,,0,1,pic/flanker5.png,pic/flanker1.png,s,k,pic/AffRest3.png,,,,,,,,,,,,,,,,,,,,,,,,,0,2,2,2,0,76,76,0,,,,1532.660221,None,1531.4768985,1532.6771429,s,1,0.32519590000083554,精致,k,1,0.6791562999997041,wpr,f,22,2024_Apr_18_1014,mian,2021.2.3,59.82965301208568,
,,,,,,1,1,pic/flanker6.png,pic/flanker4.png,s,k,pic/AffRest3.png,,,,,,,,,,,,,,,,,,,,,,,,,0,2,2,2,0,77,77,30,,,,1535.6936103999997,None,1534.5102327999994,1535.7103327999994,a,0,0.2922389999994266,如愿,k,1,1.6092946999997366,wpr,f,22,2024_Apr_18_1014,mian,2021.2.3,59.82965301208568,
,,,,,,1,0,pic/flanker6.png,pic/flanker4.png,s,l,pic/AffRest3.png,,,,,,,,,,,,,,,,,,,,,,,,,0,2,2,2,0,78,78,69,,,,1539.4268434999994,None,1538.243606,1539.4434410999993,s,1,0.4482773999998244,自卑,l,1,0.8129430999997567,wpr,f,22,2024_Apr_18_1014,mian,2021.2.3,59.82965301208568,
,,,,,,0,1,pic/flanker6.png,pic/flanker2.png,a,k,pic/AffRest3.png,,,,,,,,,,,,,,,,,,,,,,,,,0,2,2,2,0,79,79,2,,,,1542.5431226,None,1541.3597701999997,1542.5597057999994,a,1,0.3598461000001407,奉献,k,1,1.0332773000000088,wpr,f,22,2024_Apr_18_1014,mian,2021.2.3,59.82965301208568,
,,,,,,,,,,,,pic/AffRest3.png,,,,,,,,,,,,,,,,,,,,,,,,,0,2,2,2,,,,,,,,,,,,,,,,,,,wpr,f,22,2024_Apr_18_1014,mian,2021.2.3,59.82965301208568,
,,,,,,1,1,pic/flanker5.png,pic/flanker3.png,a,k,pic/EndExp.PNG,,,,,,,,,,,,,,,,,,,,,,,,,0,3,3,3,0,0,0,68,,,,1581.8101853999997,None,1580.6221646999993,1581.8267723999998,a,1,0.7816808999996283,清秀,k,1,0.5534702999993897,wpr,f,22,2024_Apr_18_1014,mian,2021.2.3,59.82965301208568,
