target,反应类型,条件,truetarget,CorAns,Position,congruency,AffValue,flankerPic,targetPic,corAnsF,corAnsA,RestPic,returnPractice.thisRepN,returnPractice.thisTrialN,returnPractice.thisN,returnPractice.thisIndex,pracNum.thisRepN,pracNum.thisTrialN,pracNum.thisN,pracNum.thisIndex,NumBlock1.thisRepN,NumBlock1.thisTrialN,NumBlock1.thisN,NumBlock1.thisIndex,NumBlock2.thisRepN,NumBlock2.thisTrialN,NumBlock2.thisN,NumBlock2.thisIndex,returnPrac.thisRepN,returnPrac.thisTrialN,returnPrac.thisN,returnPrac.thisIndex,PracAff.thisRepN,PracAff.thisTrialN,PracAff.thisN,PracAff.thisIndex,AffBlocks.thisRepN,AffBlocks.thisTrialN,AffBlocks.thisN,AffBlocks.thisIndex,AffBlock1.thisRepN,AffBlock1.thisTrialN,AffBlock1.thisN,AffBlock1.thisIndex,respNum2word.keys,respNum2word.corr,respNum2word.rt,text.started,text.stopped,blank.started,blank.stopped,respFlanker.keys,respFlanker.corr,thisWord,respAffWord.keys,respAffWord.corr,respAffWord.rt,respFlanker.rt,姓名,性别,年龄（周岁）,date,expName,psychopyVersion,frameRate,
2A,1,1,A,a,"[0.2, 0.2]",,,,,,,,0,0,0,0,0,0,0,0,,,,,,,,,,,,,,,,,,,,,,,,,a,1,1.8118814999761526,,,,,,,,,,,,xyh,m,20,2024_Apr_15_1439,mian,2021.2.3,59.83899718729389,
A9,1,2,A,a,"[-0.2, 0.2]",,,,,,,,0,0,0,0,0,1,1,1,,,,,,,,,,,,,,,,,,,,,,,,,a,1,1.521213500003796,,,,,,,,,,,,xyh,m,20,2024_Apr_15_1439,mian,2021.2.3,59.83899718729389,
7e,2,1,7.0,a,"[-0.2, -0.2]",,,,,,,,0,0,0,0,0,2,2,2,,,,,,,,,,,,,,,,,,,,,,,,,a,1,2.0979829000134487,,,,,,,,,,,,xyh,m,20,2024_Apr_15_1439,mian,2021.2.3,59.83899718729389,
9H,2,2,9.0,a,"[0.2, -0.2]",,,,,,,,0,0,0,0,0,3,3,3,,,,,,,,,,,,,,,,,,,,,,,,,a,1,1.865935999987414,,,,,,,,,,,,xyh,m,20,2024_Apr_15_1439,mian,2021.2.3,59.83899718729389,
h4,1,1,h,l,"[0.2, 0.2]",,,,,,,,0,0,0,0,0,4,4,4,,,,,,,,,,,,,,,,,,,,,,,,,l,1,1.5242136000015307,,,,,,,,,,,,xyh,m,20,2024_Apr_15_1439,mian,2021.2.3,59.83899718729389,
4H,1,2,H,a,"[-0.2, 0.2]",,,,,,,,0,0,0,0,0,5,5,5,,,,,,,,,,,,,,,,,,,,,,,,,a,1,1.8112694000010379,,,,,,,,,,,,xyh,m,20,2024_Apr_15_1439,mian,2021.2.3,59.83899718729389,
F8,2,1,8.0,l,"[-0.2, -0.2]",,,,,,,,0,0,0,0,0,6,6,6,,,,,,,,,,,,,,,,,,,,,,,,,l,1,1.2761358999996446,,,,,,,,,,,,xyh,m,20,2024_Apr_15_1439,mian,2021.2.3,59.83899718729389,
h7,2,2,7.0,a,"[0.2, -0.2]",,,,,,,,0,0,0,0,0,7,7,7,,,,,,,,,,,,,,,,,,,,,,,,,a,1,1.5947643999825232,,,,,,,,,,,,xyh,m,20,2024_Apr_15_1439,mian,2021.2.3,59.83899718729389,
5e,1,1,e,l,"[0.2, 0.2]",,,,,,,,0,0,0,0,0,8,8,8,,,,,,,,,,,,,,,,,,,,,,,,,l,1,3.388099299976602,,,,,,,,,,,,xyh,m,20,2024_Apr_15_1439,mian,2021.2.3,59.83899718729389,
e8,1,2,e,l,"[-0.2, 0.2]",,,,,,,,0,0,0,0,0,9,9,9,,,,,,,,,,,,,,,,,,,,,,,,,l,1,0.7948777000128757,,,,,,,,,,,,xyh,m,20,2024_Apr_15_1439,mian,2021.2.3,59.83899718729389,
4E,2,1,4.0,l,"[-0.2, -0.2]",,,,,,,,0,0,0,0,0,10,10,10,,,,,,,,,,,,,,,,,,,,,,,,,l,1,1.091198499983875,,,,,,,,,,,,xyh,m,20,2024_Apr_15_1439,mian,2021.2.3,59.83899718729389,
5H,2,2,5.0,a,"[0.2, -0.2]",,,,,,,,0,0,0,0,0,11,11,11,,,,,,,,,,,,,,,,,,,,,,,,,a,1,2.385870000027353,,,,,,,,,,,,xyh,m,20,2024_Apr_15_1439,mian,2021.2.3,59.83899718729389,
9E,1,1,E,a,"[0.2, 0.2]",,,,,,,,0,0,0,0,0,12,12,12,,,,,,,,,,,,,,,,,,,,,,,,,a,1,1.3451069000002462,,,,,,,,,,,,xyh,m,20,2024_Apr_15_1439,mian,2021.2.3,59.83899718729389,
h9,1,2,h,l,"[-0.2, 0.2]",,,,,,,,0,0,0,0,0,13,13,13,,,,,,,,,,,,,,,,,,,,,,,,,l,1,0.6587019999860786,,,,,,,,,,,,xyh,m,20,2024_Apr_15_1439,mian,2021.2.3,59.83899718729389,
2a,2,1,2.0,l,"[-0.2, -0.2]",,,,,,,,0,0,0,0,0,14,14,14,,,,,,,,,,,,,,,,,,,,,,,,,a,0,0.8679111999808811,,,,,,,,,,,,xyh,m,20,2024_Apr_15_1439,mian,2021.2.3,59.83899718729389,
e5,2,2,5.0,a,"[0.2, -0.2]",,,,,,,,0,0,0,0,0,15,15,15,,,,,,,,,,,,,,,,,,,,,,,,,a,1,2.2133701000129804,,,,,,,,,,,,xyh,m,20,2024_Apr_15_1439,mian,2021.2.3,59.83899718729389,
A5,1,1,A,a,"[0.2, 0.2]",,,,,,,,0,0,0,0,0,16,16,16,,,,,,,,,,,,,,,,,,,,,,,,,a,1,2.001208699977724,,,,,,,,,,,,xyh,m,20,2024_Apr_15_1439,mian,2021.2.3,59.83899718729389,
a6,1,2,a,l,"[-0.2, 0.2]",,,,,,,,0,0,0,0,0,17,17,17,,,,,,,,,,,,,,,,,,,,,,,,,l,1,0.9712481999886222,,,,,,,,,,,,xyh,m,20,2024_Apr_15_1439,mian,2021.2.3,59.83899718729389,
2F,2,1,2.0,l,"[-0.2, -0.2]",,,,,,,,0,0,0,0,0,18,18,18,,,,,,,,,,,,,,,,,,,,,,,,,l,1,1.9157037000113633,,,,,,,,,,,,xyh,m,20,2024_Apr_15_1439,mian,2021.2.3,59.83899718729389,
e4,2,2,4.0,l,"[0.2, -0.2]",,,,,,,,0,0,0,0,0,19,19,19,,,,,,,,,,,,,,,,,,,,,,,,,l,1,0.8076057999860495,,,,,,,,,,,,xyh,m,20,2024_Apr_15_1439,mian,2021.2.3,59.83899718729389,
,,,,,,,,,,,,,0,0,0,0,,,,,,,,,,,,,,,,,,,,,,,,,,,,,,,,,,,,,,,,,,,xyh,m,20,2024_Apr_15_1439,mian,2021.2.3,59.83899718729389,
2A,1,1,A,a,"[0.2, 0.2]",,,,,,,,1,0,1,0,0,0,0,0,,,,,,,,,,,,,,,,,,,,,,,,,a,1,2.589754999993602,,,,,,,,,,,,xyh,m,20,2024_Apr_15_1439,mian,2021.2.3,59.83899718729389,
A9,1,2,A,a,"[-0.2, 0.2]",,,,,,,,1,0,1,0,0,1,1,1,,,,,,,,,,,,,,,,,,,,,,,,,a,1,0.7658964000002015,,,,,,,,,,,,xyh,m,20,2024_Apr_15_1439,mian,2021.2.3,59.83899718729389,
7e,2,1,7.0,a,"[-0.2, -0.2]",,,,,,,,1,0,1,0,0,2,2,2,,,,,,,,,,,,,,,,,,,,,,,,,a,1,0.5364959000144154,,,,,,,,,,,,xyh,m,20,2024_Apr_15_1439,mian,2021.2.3,59.83899718729389,
9H,2,2,9.0,a,"[0.2, -0.2]",,,,,,,,1,0,1,0,0,3,3,3,,,,,,,,,,,,,,,,,,,,,,,,,a,1,0.5883487999963108,,,,,,,,,,,,xyh,m,20,2024_Apr_15_1439,mian,2021.2.3,59.83899718729389,
h4,1,1,h,l,"[0.2, 0.2]",,,,,,,,1,0,1,0,0,4,4,4,,,,,,,,,,,,,,,,,,,,,,,,,l,1,1.294736300013028,,,,,,,,,,,,xyh,m,20,2024_Apr_15_1439,mian,2021.2.3,59.83899718729389,
4H,1,2,H,a,"[-0.2, 0.2]",,,,,,,,1,0,1,0,0,5,5,5,,,,,,,,,,,,,,,,,,,,,,,,,a,1,0.7179046000237577,,,,,,,,,,,,xyh,m,20,2024_Apr_15_1439,mian,2021.2.3,59.83899718729389,
F8,2,1,8.0,l,"[-0.2, -0.2]",,,,,,,,1,0,1,0,0,6,6,6,,,,,,,,,,,,,,,,,,,,,,,,,l,1,1.1137493000132963,,,,,,,,,,,,xyh,m,20,2024_Apr_15_1439,mian,2021.2.3,59.83899718729389,
h7,2,2,7.0,a,"[0.2, -0.2]",,,,,,,,1,0,1,0,0,7,7,7,,,,,,,,,,,,,,,,,,,,,,,,,a,1,0.7903541999985464,,,,,,,,,,,,xyh,m,20,2024_Apr_15_1439,mian,2021.2.3,59.83899718729389,
5e,1,1,e,l,"[0.2, 0.2]",,,,,,,,1,0,1,0,0,8,8,8,,,,,,,,,,,,,,,,,,,,,,,,,l,1,1.2565848999947775,,,,,,,,,,,,xyh,m,20,2024_Apr_15_1439,mian,2021.2.3,59.83899718729389,
e8,1,2,e,l,"[-0.2, 0.2]",,,,,,,,1,0,1,0,0,9,9,9,,,,,,,,,,,,,,,,,,,,,,,,,l,1,0.7856976000184659,,,,,,,,,,,,xyh,m,20,2024_Apr_15_1439,mian,2021.2.3,59.83899718729389,
4E,2,1,4.0,l,"[-0.2, -0.2]",,,,,,,,1,0,1,0,0,10,10,10,,,,,,,,,,,,,,,,,,,,,,,,,l,1,2.3447262999834493,,,,,,,,,,,,xyh,m,20,2024_Apr_15_1439,mian,2021.2.3,59.83899718729389,
5H,2,2,5.0,a,"[0.2, -0.2]",,,,,,,,1,0,1,0,0,11,11,11,,,,,,,,,,,,,,,,,,,,,,,,,a,1,0.6255153999954928,,,,,,,,,,,,xyh,m,20,2024_Apr_15_1439,mian,2021.2.3,59.83899718729389,
9E,1,1,E,a,"[0.2, 0.2]",,,,,,,,1,0,1,0,0,12,12,12,,,,,,,,,,,,,,,,,,,,,,,,,a,1,0.6879632999771275,,,,,,,,,,,,xyh,m,20,2024_Apr_15_1439,mian,2021.2.3,59.83899718729389,
h9,1,2,h,l,"[-0.2, 0.2]",,,,,,,,1,0,1,0,0,13,13,13,,,,,,,,,,,,,,,,,,,,,,,,,l,1,0.5420350999920629,,,,,,,,,,,,xyh,m,20,2024_Apr_15_1439,mian,2021.2.3,59.83899718729389,
2a,2,1,2.0,l,"[-0.2, -0.2]",,,,,,,,1,0,1,0,0,14,14,14,,,,,,,,,,,,,,,,,,,,,,,,,l,1,1.7483635999960825,,,,,,,,,,,,xyh,m,20,2024_Apr_15_1439,mian,2021.2.3,59.83899718729389,
e5,2,2,5.0,a,"[0.2, -0.2]",,,,,,,,1,0,1,0,0,15,15,15,,,,,,,,,,,,,,,,,,,,,,,,,a,1,0.6218494000204373,,,,,,,,,,,,xyh,m,20,2024_Apr_15_1439,mian,2021.2.3,59.83899718729389,
A5,1,1,A,a,"[0.2, 0.2]",,,,,,,,1,0,1,0,0,16,16,16,,,,,,,,,,,,,,,,,,,,,,,,,a,1,1.3833116999885533,,,,,,,,,,,,xyh,m,20,2024_Apr_15_1439,mian,2021.2.3,59.83899718729389,
a6,1,2,a,l,"[-0.2, 0.2]",,,,,,,,1,0,1,0,0,17,17,17,,,,,,,,,,,,,,,,,,,,,,,,,l,1,0.7211167000059504,,,,,,,,,,,,xyh,m,20,2024_Apr_15_1439,mian,2021.2.3,59.83899718729389,
2F,2,1,2.0,l,"[-0.2, -0.2]",,,,,,,,1,0,1,0,0,18,18,18,,,,,,,,,,,,,,,,,,,,,,,,,l,1,1.0164798000187147,,,,,,,,,,,,xyh,m,20,2024_Apr_15_1439,mian,2021.2.3,59.83899718729389,
e4,2,2,4.0,l,"[0.2, -0.2]",,,,,,,,1,0,1,0,0,19,19,19,,,,,,,,,,,,,,,,,,,,,,,,,l,1,0.6953366999805439,,,,,,,,,,,,xyh,m,20,2024_Apr_15_1439,mian,2021.2.3,59.83899718729389,
,,,,,,,,,,,,,1,0,1,0,,,,,,,,,,,,,,,,,,,,,,,,,,,,,,,,,,,,,,,,,,,xyh,m,20,2024_Apr_15_1439,mian,2021.2.3,59.83899718729389,
7h,1,1,h,l,"[0.2, 0.2]",,,,,,,,,,,,,,,,0,0,0,0,,,,,,,,,,,,,,,,,,,,,l,1,1.9506399999954738,,,,,,,,,,,,xyh,m,20,2024_Apr_15_1439,mian,2021.2.3,59.83899718729389,
8F,1,2,F,a,"[-0.2, 0.2]",,,,,,,,,,,,,,,,0,1,1,1,,,,,,,,,,,,,,,,,,,,,a,1,0.8997821999946609,,,,,,,,,,,,xyh,m,20,2024_Apr_15_1439,mian,2021.2.3,59.83899718729389,
8h,2,1,8.0,l,"[-0.2, -0.2]",,,,,,,,,,,,,,,,0,2,2,2,,,,,,,,,,,,,,,,,,,,,l,1,1.259233899996616,,,,,,,,,,,,xyh,m,20,2024_Apr_15_1439,mian,2021.2.3,59.83899718729389,
a2,2,2,2.0,l,"[0.2, -0.2]",,,,,,,,,,,,,,,,0,3,3,3,,,,,,,,,,,,,,,,,,,,,l,1,1.3073079999885522,,,,,,,,,,,,xyh,m,20,2024_Apr_15_1439,mian,2021.2.3,59.83899718729389,
8f,1,1,f,l,"[0.2, 0.2]",,,,,,,,,,,,,,,,0,4,4,4,,,,,,,,,,,,,,,,,,,,,l,1,1.324302799999714,,,,,,,,,,,,xyh,m,20,2024_Apr_15_1439,mian,2021.2.3,59.83899718729389,
6a,1,2,a,l,"[-0.2, 0.2]",,,,,,,,,,,,,,,,0,5,5,5,,,,,,,,,,,,,,,,,,,,,l,1,0.8460537999926601,,,,,,,,,,,,xyh,m,20,2024_Apr_15_1439,mian,2021.2.3,59.83899718729389,
h6,2,1,6.0,l,"[-0.2, -0.2]",,,,,,,,,,,,,,,,0,6,6,6,,,,,,,,,,,,,,,,,,,,,l,1,2.150279000023147,,,,,,,,,,,,xyh,m,20,2024_Apr_15_1439,mian,2021.2.3,59.83899718729389,
f9,2,2,9.0,a,"[0.2, -0.2]",,,,,,,,,,,,,,,,0,7,7,7,,,,,,,,,,,,,,,,,,,,,a,1,0.7082898000080604,,,,,,,,,,,,xyh,m,20,2024_Apr_15_1439,mian,2021.2.3,59.83899718729389,
E4,1,1,E,a,"[0.2, 0.2]",,,,,,,,,,,,,,,,0,8,8,8,,,,,,,,,,,,,,,,,,,,,a,1,2.032009200018365,,,,,,,,,,,,xyh,m,20,2024_Apr_15_1439,mian,2021.2.3,59.83899718729389,
6e,1,2,e,l,"[-0.2, 0.2]",,,,,,,,,,,,,,,,0,9,9,9,,,,,,,,,,,,,,,,,,,,,l,1,0.8321910999948159,,,,,,,,,,,,xyh,m,20,2024_Apr_15_1439,mian,2021.2.3,59.83899718729389,
5G,2,1,5.0,a,"[-0.2, -0.2]",,,,,,,,,,,,,,,,0,10,10,10,,,,,,,,,,,,,,,,,,,,,a,1,1.0953627999988385,,,,,,,,,,,,xyh,m,20,2024_Apr_15_1439,mian,2021.2.3,59.83899718729389,
h3,2,2,3.0,a,"[0.2, -0.2]",,,,,,,,,,,,,,,,0,11,11,11,,,,,,,,,,,,,,,,,,,,,a,1,0.8245962999935728,,,,,,,,,,,,xyh,m,20,2024_Apr_15_1439,mian,2021.2.3,59.83899718729389,
9e,1,1,e,l,"[0.2, 0.2]",,,,,,,,,,,,,,,,0,12,12,12,,,,,,,,,,,,,,,,,,,,,l,1,0.8727876000048127,,,,,,,,,,,,xyh,m,20,2024_Apr_15_1439,mian,2021.2.3,59.83899718729389,
a8,1,2,a,l,"[-0.2, 0.2]",,,,,,,,,,,,,,,,0,13,13,13,,,,,,,,,,,,,,,,,,,,,l,1,0.4453127000015229,,,,,,,,,,,,xyh,m,20,2024_Apr_15_1439,mian,2021.2.3,59.83899718729389,
e8,2,1,8.0,l,"[-0.2, -0.2]",,,,,,,,,,,,,,,,0,14,14,14,,,,,,,,,,,,,,,,,,,,,l,1,1.15217990000383,,,,,,,,,,,,xyh,m,20,2024_Apr_15_1439,mian,2021.2.3,59.83899718729389,
3f,2,2,3.0,a,"[0.2, -0.2]",,,,,,,,,,,,,,,,0,15,15,15,,,,,,,,,,,,,,,,,,,,,a,1,1.1907982999982778,,,,,,,,,,,,xyh,m,20,2024_Apr_15_1439,mian,2021.2.3,59.83899718729389,
7f,1,1,f,l,"[0.2, 0.2]",,,,,,,,,,,,,,,,0,16,16,16,,,,,,,,,,,,,,,,,,,,,l,1,1.5090941000089515,,,,,,,,,,,,xyh,m,20,2024_Apr_15_1439,mian,2021.2.3,59.83899718729389,
a7,1,2,a,l,"[-0.2, 0.2]",,,,,,,,,,,,,,,,0,17,17,17,,,,,,,,,,,,,,,,,,,,,l,1,0.7237547999829985,,,,,,,,,,,,xyh,m,20,2024_Apr_15_1439,mian,2021.2.3,59.83899718729389,
5A,2,1,5.0,a,"[-0.2, -0.2]",,,,,,,,,,,,,,,,0,18,18,18,,,,,,,,,,,,,,,,,,,,,a,1,1.9793206000176724,,,,,,,,,,,,xyh,m,20,2024_Apr_15_1439,mian,2021.2.3,59.83899718729389,
8g,2,2,8.0,l,"[0.2, -0.2]",,,,,,,,,,,,,,,,0,19,19,19,,,,,,,,,,,,,,,,,,,,,l,1,0.8080435000010766,,,,,,,,,,,,xyh,m,20,2024_Apr_15_1439,mian,2021.2.3,59.83899718729389,
9a,1,1,a,l,"[0.2, 0.2]",,,,,,,,,,,,,,,,0,20,20,20,,,,,,,,,,,,,,,,,,,,,l,1,1.0700066999997944,,,,,,,,,,,,xyh,m,20,2024_Apr_15_1439,mian,2021.2.3,59.83899718729389,
f7,1,2,f,l,"[-0.2, 0.2]",,,,,,,,,,,,,,,,0,21,21,21,,,,,,,,,,,,,,,,,,,,,l,1,0.579018599994015,,,,,,,,,,,,xyh,m,20,2024_Apr_15_1439,mian,2021.2.3,59.83899718729389,
g9,2,1,9.0,a,"[-0.2, -0.2]",,,,,,,,,,,,,,,,0,22,22,22,,,,,,,,,,,,,,,,,,,,,a,1,1.4840245000086725,,,,,,,,,,,,xyh,m,20,2024_Apr_15_1439,mian,2021.2.3,59.83899718729389,
3h,2,2,3.0,a,"[0.2, -0.2]",,,,,,,,,,,,,,,,0,23,23,23,,,,,,,,,,,,,,,,,,,,,a,1,0.8351065999886487,,,,,,,,,,,,xyh,m,20,2024_Apr_15_1439,mian,2021.2.3,59.83899718729389,
E6,1,1,E,a,"[0.2, 0.2]",,,,,,,,,,,,,,,,0,24,24,24,,,,,,,,,,,,,,,,,,,,,a,1,2.0024860999837983,,,,,,,,,,,,xyh,m,20,2024_Apr_15_1439,mian,2021.2.3,59.83899718729389,
F6,1,2,F,a,"[-0.2, 0.2]",,,,,,,,,,,,,,,,0,25,25,25,,,,,,,,,,,,,,,,,,,,,a,1,0.48306460000458173,,,,,,,,,,,,xyh,m,20,2024_Apr_15_1439,mian,2021.2.3,59.83899718729389,
3A,2,1,3.0,a,"[-0.2, -0.2]",,,,,,,,,,,,,,,,0,26,26,26,,,,,,,,,,,,,,,,,,,,,a,1,0.9933003000041936,,,,,,,,,,,,xyh,m,20,2024_Apr_15_1439,mian,2021.2.3,59.83899718729389,
8H,2,2,8.0,l,"[0.2, -0.2]",,,,,,,,,,,,,,,,0,27,27,27,,,,,,,,,,,,,,,,,,,,,l,1,0.6950534000061452,,,,,,,,,,,,xyh,m,20,2024_Apr_15_1439,mian,2021.2.3,59.83899718729389,
5a,1,1,a,l,"[0.2, 0.2]",,,,,,,,,,,,,,,,0,28,28,28,,,,,,,,,,,,,,,,,,,,,l,1,3.5575113000231795,,,,,,,,,,,,xyh,m,20,2024_Apr_15_1439,mian,2021.2.3,59.83899718729389,
2h,1,2,h,l,"[-0.2, 0.2]",,,,,,,,,,,,,,,,0,29,29,29,,,,,,,,,,,,,,,,,,,,,l,1,0.6367720999987796,,,,,,,,,,,,xyh,m,20,2024_Apr_15_1439,mian,2021.2.3,59.83899718729389,
e5,2,1,5.0,a,"[-0.2, -0.2]",,,,,,,,,,,,,,,,0,30,30,30,,,,,,,,,,,,,,,,,,,,,a,1,1.05063899999368,,,,,,,,,,,,xyh,m,20,2024_Apr_15_1439,mian,2021.2.3,59.83899718729389,
a3,2,2,3.0,a,"[0.2, -0.2]",,,,,,,,,,,,,,,,0,31,31,31,,,,,,,,,,,,,,,,,,,,,a,1,0.7392379000084475,,,,,,,,,,,,xyh,m,20,2024_Apr_15_1439,mian,2021.2.3,59.83899718729389,
f3,1,1,f,l,"[0.2, 0.2]",,,,,,,,,,,,,,,,0,32,32,32,,,,,,,,,,,,,,,,,,,,,l,1,2.276277899974957,,,,,,,,,,,,xyh,m,20,2024_Apr_15_1439,mian,2021.2.3,59.83899718729389,
2E,1,2,E,a,"[-0.2, 0.2]",,,,,,,,,,,,,,,,0,33,33,33,,,,,,,,,,,,,,,,,,,,,a,1,0.8150297999964096,,,,,,,,,,,,xyh,m,20,2024_Apr_15_1439,mian,2021.2.3,59.83899718729389,
2H,2,1,2.0,l,"[-0.2, -0.2]",,,,,,,,,,,,,,,,0,34,34,34,,,,,,,,,,,,,,,,,,,,,l,1,1.2651366000063717,,,,,,,,,,,,xyh,m,20,2024_Apr_15_1439,mian,2021.2.3,59.83899718729389,
H8,2,2,8.0,l,"[0.2, -0.2]",,,,,,,,,,,,,,,,0,35,35,35,,,,,,,,,,,,,,,,,,,,,l,1,1.7832011000136845,,,,,,,,,,,,xyh,m,20,2024_Apr_15_1439,mian,2021.2.3,59.83899718729389,
9g,1,1,g,l,"[0.2, 0.2]",,,,,,,,,,,,,,,,0,36,36,36,,,,,,,,,,,,,,,,,,,,,l,1,1.7629062999913003,,,,,,,,,,,,xyh,m,20,2024_Apr_15_1439,mian,2021.2.3,59.83899718729389,
5h,1,2,h,l,"[-0.2, 0.2]",,,,,,,,,,,,,,,,0,37,37,37,,,,,,,,,,,,,,,,,,,,,l,1,0.45882349999737926,,,,,,,,,,,,xyh,m,20,2024_Apr_15_1439,mian,2021.2.3,59.83899718729389,
e4,2,1,4.0,l,"[-0.2, -0.2]",,,,,,,,,,,,,,,,0,38,38,38,,,,,,,,,,,,,,,,,,,,,l,1,1.0071455999859609,,,,,,,,,,,,xyh,m,20,2024_Apr_15_1439,mian,2021.2.3,59.83899718729389,
9h,2,2,9.0,a,"[0.2, -0.2]",,,,,,,,,,,,,,,,0,39,39,39,,,,,,,,,,,,,,,,,,,,,a,1,0.5320912000024691,,,,,,,,,,,,xyh,m,20,2024_Apr_15_1439,mian,2021.2.3,59.83899718729389,
G3,1,1,G,a,"[0.2, 0.2]",,,,,,,,,,,,,,,,0,40,40,40,,,,,,,,,,,,,,,,,,,,,a,1,3.520752500015078,,,,,,,,,,,,xyh,m,20,2024_Apr_15_1439,mian,2021.2.3,59.83899718729389,
9A,1,2,A,a,"[-0.2, 0.2]",,,,,,,,,,,,,,,,0,41,41,41,,,,,,,,,,,,,,,,,,,,,a,1,0.49852480000117794,,,,,,,,,,,,xyh,m,20,2024_Apr_15_1439,mian,2021.2.3,59.83899718729389,
H5,2,1,5.0,a,"[-0.2, -0.2]",,,,,,,,,,,,,,,,0,42,42,42,,,,,,,,,,,,,,,,,,,,,a,1,0.9121424999902956,,,,,,,,,,,,xyh,m,20,2024_Apr_15_1439,mian,2021.2.3,59.83899718729389,
4e,2,2,4.0,l,"[0.2, -0.2]",,,,,,,,,,,,,,,,0,43,43,43,,,,,,,,,,,,,,,,,,,,,l,1,0.6193487000127789,,,,,,,,,,,,xyh,m,20,2024_Apr_15_1439,mian,2021.2.3,59.83899718729389,
E2,1,1,E,a,"[0.2, 0.2]",,,,,,,,,,,,,,,,0,44,44,44,,,,,,,,,,,,,,,,,,,,,a,1,0.6290484000055585,,,,,,,,,,,,xyh,m,20,2024_Apr_15_1439,mian,2021.2.3,59.83899718729389,
A5,1,2,A,a,"[-0.2, 0.2]",,,,,,,,,,,,,,,,0,45,45,45,,,,,,,,,,,,,,,,,,,,,a,1,0.4281055000028573,,,,,,,,,,,,xyh,m,20,2024_Apr_15_1439,mian,2021.2.3,59.83899718729389,
2A,2,1,2.0,l,"[-0.2, -0.2]",,,,,,,,,,,,,,,,0,46,46,46,,,,,,,,,,,,,,,,,,,,,l,1,1.4514381000190042,,,,,,,,,,,,xyh,m,20,2024_Apr_15_1439,mian,2021.2.3,59.83899718729389,
6G,2,2,6.0,l,"[0.2, -0.2]",,,,,,,,,,,,,,,,0,47,47,47,,,,,,,,,,,,,,,,,,,,,l,1,1.0848798000079114,,,,,,,,,,,,xyh,m,20,2024_Apr_15_1439,mian,2021.2.3,59.83899718729389,
H3,1,1,H,a,"[0.2, 0.2]",,,,,,,,,,,,,,,,0,48,48,48,,,,,,,,,,,,,,,,,,,,,a,1,1.0347324000031222,,,,,,,,,,,,xyh,m,20,2024_Apr_15_1439,mian,2021.2.3,59.83899718729389,
H2,1,2,H,a,"[-0.2, 0.2]",,,,,,,,,,,,,,,,0,49,49,49,,,,,,,,,,,,,,,,,,,,,a,1,0.5704795000201557,,,,,,,,,,,,xyh,m,20,2024_Apr_15_1439,mian,2021.2.3,59.83899718729389,
e9,2,1,9.0,a,"[-0.2, -0.2]",,,,,,,,,,,,,,,,0,50,50,50,,,,,,,,,,,,,,,,,,,,,a,1,1.4385330000077374,,,,,,,,,,,,xyh,m,20,2024_Apr_15_1439,mian,2021.2.3,59.83899718729389,
2G,2,2,2.0,l,"[0.2, -0.2]",,,,,,,,,,,,,,,,0,51,51,51,,,,,,,,,,,,,,,,,,,,,l,1,0.5418264000036288,,,,,,,,,,,,xyh,m,20,2024_Apr_15_1439,mian,2021.2.3,59.83899718729389,
4f,1,1,f,l,"[0.2, 0.2]",,,,,,,,,,,,,,,,0,52,52,52,,,,,,,,,,,,,,,,,,,,,l,1,2.0743445000262,,,,,,,,,,,,xyh,m,20,2024_Apr_15_1439,mian,2021.2.3,59.83899718729389,
H6,1,2,H,a,"[-0.2, 0.2]",,,,,,,,,,,,,,,,0,53,53,53,,,,,,,,,,,,,,,,,,,,,a,1,0.5292092000017874,,,,,,,,,,,,xyh,m,20,2024_Apr_15_1439,mian,2021.2.3,59.83899718729389,
A4,2,1,4.0,l,"[-0.2, -0.2]",,,,,,,,,,,,,,,,0,54,54,54,,,,,,,,,,,,,,,,,,,,,l,1,0.8309628000133671,,,,,,,,,,,,xyh,m,20,2024_Apr_15_1439,mian,2021.2.3,59.83899718729389,
3F,2,2,3.0,a,"[0.2, -0.2]",,,,,,,,,,,,,,,,0,55,55,55,,,,,,,,,,,,,,,,,,,,,a,1,0.6935975999804214,,,,,,,,,,,,xyh,m,20,2024_Apr_15_1439,mian,2021.2.3,59.83899718729389,
7e,1,1,e,l,"[0.2, 0.2]",,,,,,,,,,,,,,,,0,56,56,56,,,,,,,,,,,,,,,,,,,,,l,1,3.5410880999988876,,,,,,,,,,,,xyh,m,20,2024_Apr_15_1439,mian,2021.2.3,59.83899718729389,
F9,1,2,F,a,"[-0.2, 0.2]",,,,,,,,,,,,,,,,0,57,57,57,,,,,,,,,,,,,,,,,,,,,a,1,0.5018226999964099,,,,,,,,,,,,xyh,m,20,2024_Apr_15_1439,mian,2021.2.3,59.83899718729389,
e2,2,1,2.0,l,"[-0.2, -0.2]",,,,,,,,,,,,,,,,0,58,58,58,,,,,,,,,,,,,,,,,,,,,l,1,0.7457565999939106,,,,,,,,,,,,xyh,m,20,2024_Apr_15_1439,mian,2021.2.3,59.83899718729389,
5F,2,2,5.0,a,"[0.2, -0.2]",,,,,,,,,,,,,,,,0,59,59,59,,,,,,,,,,,,,,,,,,,,,a,1,0.5665571999852546,,,,,,,,,,,,xyh,m,20,2024_Apr_15_1439,mian,2021.2.3,59.83899718729389,
f6,1,1,f,l,"[0.2, 0.2]",,,,,,,,,,,,,,,,0,60,60,60,,,,,,,,,,,,,,,,,,,,,l,1,2.29934100000537,,,,,,,,,,,,xyh,m,20,2024_Apr_15_1439,mian,2021.2.3,59.83899718729389,
7G,1,2,G,a,"[-0.2, 0.2]",,,,,,,,,,,,,,,,0,61,61,61,,,,,,,,,,,,,,,,,,,,,a,1,0.4920107999932952,,,,,,,,,,,,xyh,m,20,2024_Apr_15_1439,mian,2021.2.3,59.83899718729389,
e6,2,1,6.0,l,"[-0.2, -0.2]",,,,,,,,,,,,,,,,0,62,62,62,,,,,,,,,,,,,,,,,,,,,l,1,0.8466793999832589,,,,,,,,,,,,xyh,m,20,2024_Apr_15_1439,mian,2021.2.3,59.83899718729389,
3G,2,2,3.0,a,"[0.2, -0.2]",,,,,,,,,,,,,,,,0,63,63,63,,,,,,,,,,,,,,,,,,,,,a,1,0.44066559997736476,,,,,,,,,,,,xyh,m,20,2024_Apr_15_1439,mian,2021.2.3,59.83899718729389,
5E,1,1,E,a,"[0.2, 0.2]",,,,,,,,,,,,,,,,0,64,64,64,,,,,,,,,,,,,,,,,,,,,a,1,2.4672542999906,,,,,,,,,,,,xyh,m,20,2024_Apr_15_1439,mian,2021.2.3,59.83899718729389,
A6,1,2,A,a,"[-0.2, 0.2]",,,,,,,,,,,,,,,,0,65,65,65,,,,,,,,,,,,,,,,,,,,,a,1,0.44283260000520386,,,,,,,,,,,,xyh,m,20,2024_Apr_15_1439,mian,2021.2.3,59.83899718729389,
E3,2,1,3.0,a,"[-0.2, -0.2]",,,,,,,,,,,,,,,,0,66,66,66,,,,,,,,,,,,,,,,,,,,,a,1,1.2715163999819197,,,,,,,,,,,,xyh,m,20,2024_Apr_15_1439,mian,2021.2.3,59.83899718729389,
2f,2,2,2.0,l,"[0.2, -0.2]",,,,,,,,,,,,,,,,0,67,67,67,,,,,,,,,,,,,,,,,,,,,l,1,0.40764359998865984,,,,,,,,,,,,xyh,m,20,2024_Apr_15_1439,mian,2021.2.3,59.83899718729389,
g3,1,1,g,l,"[0.2, 0.2]",,,,,,,,,,,,,,,,0,68,68,68,,,,,,,,,,,,,,,,,,,,,l,1,2.787913399981335,,,,,,,,,,,,xyh,m,20,2024_Apr_15_1439,mian,2021.2.3,59.83899718729389,
E8,1,2,E,a,"[-0.2, 0.2]",,,,,,,,,,,,,,,,0,69,69,69,,,,,,,,,,,,,,,,,,,,,a,1,0.5761906999978237,,,,,,,,,,,,xyh,m,20,2024_Apr_15_1439,mian,2021.2.3,59.83899718729389,
6g,2,1,6.0,l,"[-0.2, -0.2]",,,,,,,,,,,,,,,,0,70,70,70,,,,,,,,,,,,,,,,,,,,,l,1,0.8056642999872565,,,,,,,,,,,,xyh,m,20,2024_Apr_15_1439,mian,2021.2.3,59.83899718729389,
5H,2,2,5.0,a,"[0.2, -0.2]",,,,,,,,,,,,,,,,0,71,71,71,,,,,,,,,,,,,,,,,,,,,a,1,0.5755180999985896,,,,,,,,,,,,xyh,m,20,2024_Apr_15_1439,mian,2021.2.3,59.83899718729389,
4A,1,1,A,a,"[0.2, 0.2]",,,,,,,,,,,,,,,,0,72,72,72,,,,,,,,,,,,,,,,,,,,,a,1,2.9199050000170246,,,,,,,,,,,,xyh,m,20,2024_Apr_15_1439,mian,2021.2.3,59.83899718729389,
7F,1,2,F,a,"[-0.2, 0.2]",,,,,,,,,,,,,,,,0,73,73,73,,,,,,,,,,,,,,,,,,,,,a,1,0.4174163999850862,,,,,,,,,,,,xyh,m,20,2024_Apr_15_1439,mian,2021.2.3,59.83899718729389,
6H,2,1,6.0,l,"[-0.2, -0.2]",,,,,,,,,,,,,,,,0,74,74,74,,,,,,,,,,,,,,,,,,,,,l,1,1.1850296999909915,,,,,,,,,,,,xyh,m,20,2024_Apr_15_1439,mian,2021.2.3,59.83899718729389,
3a,2,2,3.0,a,"[0.2, -0.2]",,,,,,,,,,,,,,,,0,75,75,75,,,,,,,,,,,,,,,,,,,,,a,1,0.42657530002179556,,,,,,,,,,,,xyh,m,20,2024_Apr_15_1439,mian,2021.2.3,59.83899718729389,
9F,1,1,F,a,"[0.2, 0.2]",,,,,,,,,,,,,,,,0,76,76,76,,,,,,,,,,,,,,,,,,,,,a,1,0.9088972000172362,,,,,,,,,,,,xyh,m,20,2024_Apr_15_1439,mian,2021.2.3,59.83899718729389,
G7,1,2,G,a,"[-0.2, 0.2]",,,,,,,,,,,,,,,,0,77,77,77,,,,,,,,,,,,,,,,,,,,,a,1,0.4700674000196159,,,,,,,,,,,,xyh,m,20,2024_Apr_15_1439,mian,2021.2.3,59.83899718729389,
a6,2,1,6.0,l,"[-0.2, -0.2]",,,,,,,,,,,,,,,,0,78,78,78,,,,,,,,,,,,,,,,,,,,,l,1,1.1476698000042234,,,,,,,,,,,,xyh,m,20,2024_Apr_15_1439,mian,2021.2.3,59.83899718729389,
4h,2,2,4.0,l,"[0.2, -0.2]",,,,,,,,,,,,,,,,0,79,79,79,,,,,,,,,,,,,,,,,,,,,l,1,0.5791950999991968,,,,,,,,,,,,xyh,m,20,2024_Apr_15_1439,mian,2021.2.3,59.83899718729389,
6A,1,1,A,a,"[0.2, 0.2]",,,,,,,,,,,,,,,,,,,,0,0,0,0,,,,,,,,,,,,,,,,,a,1,1.2942518999916501,,,,,,,,,,,,xyh,m,20,2024_Apr_15_1439,mian,2021.2.3,59.83899718729389,
4H,1,2,H,a,"[-0.2, 0.2]",,,,,,,,,,,,,,,,,,,,0,1,1,1,,,,,,,,,,,,,,,,,a,1,0.872807699983241,,,,,,,,,,,,xyh,m,20,2024_Apr_15_1439,mian,2021.2.3,59.83899718729389,
3H,2,1,3.0,a,"[-0.2, -0.2]",,,,,,,,,,,,,,,,,,,,0,2,2,2,,,,,,,,,,,,,,,,,a,1,0.7439809000061359,,,,,,,,,,,,xyh,m,20,2024_Apr_15_1439,mian,2021.2.3,59.83899718729389,
a9,2,2,9.0,a,"[0.2, -0.2]",,,,,,,,,,,,,,,,,,,,0,3,3,3,,,,,,,,,,,,,,,,,a,1,0.7814628999913111,,,,,,,,,,,,xyh,m,20,2024_Apr_15_1439,mian,2021.2.3,59.83899718729389,
E7,1,1,E,a,"[0.2, 0.2]",,,,,,,,,,,,,,,,,,,,0,4,4,4,,,,,,,,,,,,,,,,,a,1,0.5271110000030603,,,,,,,,,,,,xyh,m,20,2024_Apr_15_1439,mian,2021.2.3,59.83899718729389,
6h,1,2,h,l,"[-0.2, 0.2]",,,,,,,,,,,,,,,,,,,,0,5,5,5,,,,,,,,,,,,,,,,,l,1,0.564628400024958,,,,,,,,,,,,xyh,m,20,2024_Apr_15_1439,mian,2021.2.3,59.83899718729389,
8A,2,1,8.0,l,"[-0.2, -0.2]",,,,,,,,,,,,,,,,,,,,0,6,6,6,,,,,,,,,,,,,,,,,l,1,2.0821696000057273,,,,,,,,,,,,xyh,m,20,2024_Apr_15_1439,mian,2021.2.3,59.83899718729389,
f5,2,2,5.0,a,"[0.2, -0.2]",,,,,,,,,,,,,,,,,,,,0,7,7,7,,,,,,,,,,,,,,,,,a,1,0.5815119000035338,,,,,,,,,,,,xyh,m,20,2024_Apr_15_1439,mian,2021.2.3,59.83899718729389,
2a,1,1,a,l,"[0.2, 0.2]",,,,,,,,,,,,,,,,,,,,0,8,8,8,,,,,,,,,,,,,,,,,l,1,2.2201513999898452,,,,,,,,,,,,xyh,m,20,2024_Apr_15_1439,mian,2021.2.3,59.83899718729389,
F7,1,2,F,a,"[-0.2, 0.2]",,,,,,,,,,,,,,,,,,,,0,9,9,9,,,,,,,,,,,,,,,,,a,1,0.9311435999989044,,,,,,,,,,,,xyh,m,20,2024_Apr_15_1439,mian,2021.2.3,59.83899718729389,
h2,2,1,2.0,l,"[-0.2, -0.2]",,,,,,,,,,,,,,,,,,,,0,10,10,10,,,,,,,,,,,,,,,,,l,1,1.6750570999865886,,,,,,,,,,,,xyh,m,20,2024_Apr_15_1439,mian,2021.2.3,59.83899718729389,
F5,2,2,5.0,a,"[0.2, -0.2]",,,,,,,,,,,,,,,,,,,,0,11,11,11,,,,,,,,,,,,,,,,,a,1,0.5799341999809258,,,,,,,,,,,,xyh,m,20,2024_Apr_15_1439,mian,2021.2.3,59.83899718729389,
A9,1,1,A,a,"[0.2, 0.2]",,,,,,,,,,,,,,,,,,,,0,12,12,12,,,,,,,,,,,,,,,,,a,1,1.946165999979712,,,,,,,,,,,,xyh,m,20,2024_Apr_15_1439,mian,2021.2.3,59.83899718729389,
3e,1,2,e,l,"[-0.2, 0.2]",,,,,,,,,,,,,,,,,,,,0,13,13,13,,,,,,,,,,,,,,,,,l,1,0.7317850999825168,,,,,,,,,,,,xyh,m,20,2024_Apr_15_1439,mian,2021.2.3,59.83899718729389,
f8,2,1,8.0,l,"[-0.2, -0.2]",,,,,,,,,,,,,,,,,,,,0,14,14,14,,,,,,,,,,,,,,,,,l,1,0.8050084999995306,,,,,,,,,,,,xyh,m,20,2024_Apr_15_1439,mian,2021.2.3,59.83899718729389,
G2,2,2,2.0,l,"[0.2, -0.2]",,,,,,,,,,,,,,,,,,,,0,15,15,15,,,,,,,,,,,,,,,,,l,1,0.6091817000124138,,,,,,,,,,,,xyh,m,20,2024_Apr_15_1439,mian,2021.2.3,59.83899718729389,
F2,1,1,F,a,"[0.2, 0.2]",,,,,,,,,,,,,,,,,,,,0,16,16,16,,,,,,,,,,,,,,,,,a,1,0.6997981000167783,,,,,,,,,,,,xyh,m,20,2024_Apr_15_1439,mian,2021.2.3,59.83899718729389,
5e,1,2,e,l,"[-0.2, 0.2]",,,,,,,,,,,,,,,,,,,,0,17,17,17,,,,,,,,,,,,,,,,,l,1,0.6887031999940518,,,,,,,,,,,,xyh,m,20,2024_Apr_15_1439,mian,2021.2.3,59.83899718729389,
A3,2,1,3.0,a,"[-0.2, -0.2]",,,,,,,,,,,,,,,,,,,,0,18,18,18,,,,,,,,,,,,,,,,,a,1,0.9524298000033014,,,,,,,,,,,,xyh,m,20,2024_Apr_15_1439,mian,2021.2.3,59.83899718729389,
4g,2,2,4.0,l,"[0.2, -0.2]",,,,,,,,,,,,,,,,,,,,0,19,19,19,,,,,,,,,,,,,,,,,l,1,0.6046371000120416,,,,,,,,,,,,xyh,m,20,2024_Apr_15_1439,mian,2021.2.3,59.83899718729389,
h7,1,1,h,l,"[0.2, 0.2]",,,,,,,,,,,,,,,,,,,,0,20,20,20,,,,,,,,,,,,,,,,,l,1,2.7346688999969047,,,,,,,,,,,,xyh,m,20,2024_Apr_15_1439,mian,2021.2.3,59.83899718729389,
3g,1,2,g,l,"[-0.2, 0.2]",,,,,,,,,,,,,,,,,,,,0,21,21,21,,,,,,,,,,,,,,,,,l,1,0.38135670000337996,,,,,,,,,,,,xyh,m,20,2024_Apr_15_1439,mian,2021.2.3,59.83899718729389,
8a,2,1,8.0,l,"[-0.2, -0.2]",,,,,,,,,,,,,,,,,,,,0,22,22,22,,,,,,,,,,,,,,,,,l,1,1.3726297999965027,,,,,,,,,,,,xyh,m,20,2024_Apr_15_1439,mian,2021.2.3,59.83899718729389,
4E,2,2,4.0,l,"[0.2, -0.2]",,,,,,,,,,,,,,,,,,,,0,23,23,23,,,,,,,,,,,,,,,,,l,1,0.739883500005817,,,,,,,,,,,,xyh,m,20,2024_Apr_15_1439,mian,2021.2.3,59.83899718729389,
E5,1,1,E,a,"[0.2, 0.2]",,,,,,,,,,,,,,,,,,,,0,24,24,24,,,,,,,,,,,,,,,,,a,1,1.4917727999854833,,,,,,,,,,,,xyh,m,20,2024_Apr_15_1439,mian,2021.2.3,59.83899718729389,
g6,1,2,g,l,"[-0.2, 0.2]",,,,,,,,,,,,,,,,,,,,0,25,25,25,,,,,,,,,,,,,,,,,l,1,0.6925212000205647,,,,,,,,,,,,xyh,m,20,2024_Apr_15_1439,mian,2021.2.3,59.83899718729389,
2e,2,1,2.0,l,"[-0.2, -0.2]",,,,,,,,,,,,,,,,,,,,0,26,26,26,,,,,,,,,,,,,,,,,l,1,1.2356650999863632,,,,,,,,,,,,xyh,m,20,2024_Apr_15_1439,mian,2021.2.3,59.83899718729389,
h8,2,2,8.0,l,"[0.2, -0.2]",,,,,,,,,,,,,,,,,,,,0,27,27,27,,,,,,,,,,,,,,,,,l,1,0.5772945999924559,,,,,,,,,,,,xyh,m,20,2024_Apr_15_1439,mian,2021.2.3,59.83899718729389,
G6,1,1,G,a,"[0.2, 0.2]",,,,,,,,,,,,,,,,,,,,0,28,28,28,,,,,,,,,,,,,,,,,a,1,1.922711999999592,,,,,,,,,,,,xyh,m,20,2024_Apr_15_1439,mian,2021.2.3,59.83899718729389,
a4,1,2,a,l,"[-0.2, 0.2]",,,,,,,,,,,,,,,,,,,,0,29,29,29,,,,,,,,,,,,,,,,,l,1,0.5389751000038814,,,,,,,,,,,,xyh,m,20,2024_Apr_15_1439,mian,2021.2.3,59.83899718729389,
9H,2,1,9.0,a,"[-0.2, -0.2]",,,,,,,,,,,,,,,,,,,,0,30,30,30,,,,,,,,,,,,,,,,,None,0,,,,,,,,,,,,,xyh,m,20,2024_Apr_15_1439,mian,2021.2.3,59.83899718729389,
7H,2,2,7.0,a,"[0.2, -0.2]",,,,,,,,,,,,,,,,,,,,0,31,31,31,,,,,,,,,,,,,,,,,a,1,0.9082371999975294,,,,,,,,,,,,xyh,m,20,2024_Apr_15_1439,mian,2021.2.3,59.83899718729389,
9f,1,1,f,l,"[0.2, 0.2]",,,,,,,,,,,,,,,,,,,,0,32,32,32,,,,,,,,,,,,,,,,,l,1,2.5939414000022225,,,,,,,,,,,,xyh,m,20,2024_Apr_15_1439,mian,2021.2.3,59.83899718729389,
8E,1,2,E,a,"[-0.2, 0.2]",,,,,,,,,,,,,,,,,,,,0,33,33,33,,,,,,,,,,,,,,,,,a,1,1.9740748000040185,,,,,,,,,,,,xyh,m,20,2024_Apr_15_1439,mian,2021.2.3,59.83899718729389,
A2,2,1,2.0,l,"[-0.2, -0.2]",,,,,,,,,,,,,,,,,,,,0,34,34,34,,,,,,,,,,,,,,,,,l,1,0.7591219000169076,,,,,,,,,,,,xyh,m,20,2024_Apr_15_1439,mian,2021.2.3,59.83899718729389,
H7,2,2,7.0,a,"[0.2, -0.2]",,,,,,,,,,,,,,,,,,,,0,35,35,35,,,,,,,,,,,,,,,,,a,1,0.6562809999741148,,,,,,,,,,,,xyh,m,20,2024_Apr_15_1439,mian,2021.2.3,59.83899718729389,
h9,1,1,h,l,"[0.2, 0.2]",,,,,,,,,,,,,,,,,,,,0,36,36,36,,,,,,,,,,,,,,,,,l,1,0.7375845999922603,,,,,,,,,,,,xyh,m,20,2024_Apr_15_1439,mian,2021.2.3,59.83899718729389,
8G,1,2,G,a,"[-0.2, 0.2]",,,,,,,,,,,,,,,,,,,,0,37,37,37,,,,,,,,,,,,,,,,,a,1,0.514283800002886,,,,,,,,,,,,xyh,m,20,2024_Apr_15_1439,mian,2021.2.3,59.83899718729389,
H4,2,1,4.0,l,"[-0.2, -0.2]",,,,,,,,,,,,,,,,,,,,0,38,38,38,,,,,,,,,,,,,,,,,l,1,0.5894686999963596,,,,,,,,,,,,xyh,m,20,2024_Apr_15_1439,mian,2021.2.3,59.83899718729389,
A8,2,2,8.0,l,"[0.2, -0.2]",,,,,,,,,,,,,,,,,,,,0,39,39,39,,,,,,,,,,,,,,,,,l,1,0.5491188000014517,,,,,,,,,,,,xyh,m,20,2024_Apr_15_1439,mian,2021.2.3,59.83899718729389,
g7,1,1,g,l,"[0.2, 0.2]",,,,,,,,,,,,,,,,,,,,0,40,40,40,,,,,,,,,,,,,,,,,l,1,0.6559024000016507,,,,,,,,,,,,xyh,m,20,2024_Apr_15_1439,mian,2021.2.3,59.83899718729389,
H9,1,2,H,a,"[-0.2, 0.2]",,,,,,,,,,,,,,,,,,,,0,41,41,41,,,,,,,,,,,,,,,,,a,1,0.7263537000108045,,,,,,,,,,,,xyh,m,20,2024_Apr_15_1439,mian,2021.2.3,59.83899718729389,
9E,2,1,9.0,a,"[-0.2, -0.2]",,,,,,,,,,,,,,,,,,,,0,42,42,42,,,,,,,,,,,,,,,,,a,1,0.9951324999856297,,,,,,,,,,,,xyh,m,20,2024_Apr_15_1439,mian,2021.2.3,59.83899718729389,
a5,2,2,5.0,a,"[0.2, -0.2]",,,,,,,,,,,,,,,,,,,,0,43,43,43,,,,,,,,,,,,,,,,,a,1,0.5792447999992874,,,,,,,,,,,,xyh,m,20,2024_Apr_15_1439,mian,2021.2.3,59.83899718729389,
3E,1,1,E,a,"[0.2, 0.2]",,,,,,,,,,,,,,,,,,,,0,44,44,44,,,,,,,,,,,,,,,,,a,1,0.7272317000024486,,,,,,,,,,,,xyh,m,20,2024_Apr_15_1439,mian,2021.2.3,59.83899718729389,
6f,1,2,f,l,"[-0.2, 0.2]",,,,,,,,,,,,,,,,,,,,0,45,45,45,,,,,,,,,,,,,,,,,l,1,0.7392285999958403,,,,,,,,,,,,xyh,m,20,2024_Apr_15_1439,mian,2021.2.3,59.83899718729389,
g8,2,1,8.0,l,"[-0.2, -0.2]",,,,,,,,,,,,,,,,,,,,0,46,46,46,,,,,,,,,,,,,,,,,l,1,1.166299300006358,,,,,,,,,,,,xyh,m,20,2024_Apr_15_1439,mian,2021.2.3,59.83899718729389,
4F,2,2,4.0,l,"[0.2, -0.2]",,,,,,,,,,,,,,,,,,,,0,47,47,47,,,,,,,,,,,,,,,,,l,1,0.5265837000042666,,,,,,,,,,,,xyh,m,20,2024_Apr_15_1439,mian,2021.2.3,59.83899718729389,
4a,1,1,a,l,"[0.2, 0.2]",,,,,,,,,,,,,,,,,,,,0,48,48,48,,,,,,,,,,,,,,,,,l,1,1.4625441000098363,,,,,,,,,,,,xyh,m,20,2024_Apr_15_1439,mian,2021.2.3,59.83899718729389,
e3,1,2,e,l,"[-0.2, 0.2]",,,,,,,,,,,,,,,,,,,,0,49,49,49,,,,,,,,,,,,,,,,,l,1,0.678639399993699,,,,,,,,,,,,xyh,m,20,2024_Apr_15_1439,mian,2021.2.3,59.83899718729389,
5g,2,1,5.0,a,"[-0.2, -0.2]",,,,,,,,,,,,,,,,,,,,0,50,50,50,,,,,,,,,,,,,,,,,a,1,1.1226556999899913,,,,,,,,,,,,xyh,m,20,2024_Apr_15_1439,mian,2021.2.3,59.83899718729389,
f4,2,2,4.0,l,"[0.2, -0.2]",,,,,,,,,,,,,,,,,,,,0,51,51,51,,,,,,,,,,,,,,,,,l,1,0.5522589999891352,,,,,,,,,,,,xyh,m,20,2024_Apr_15_1439,mian,2021.2.3,59.83899718729389,
6E,1,1,E,a,"[0.2, 0.2]",,,,,,,,,,,,,,,,,,,,0,52,52,52,,,,,,,,,,,,,,,,,a,1,1.0859991000033915,,,,,,,,,,,,xyh,m,20,2024_Apr_15_1439,mian,2021.2.3,59.83899718729389,
7A,1,2,A,a,"[-0.2, 0.2]",,,,,,,,,,,,,,,,,,,,0,53,53,53,,,,,,,,,,,,,,,,,a,1,0.3945102000143379,,,,,,,,,,,,xyh,m,20,2024_Apr_15_1439,mian,2021.2.3,59.83899718729389,
F4,2,1,4.0,l,"[-0.2, -0.2]",,,,,,,,,,,,,,,,,,,,0,54,54,54,,,,,,,,,,,,,,,,,l,1,2.152951399999438,,,,,,,,,,,,xyh,m,20,2024_Apr_15_1439,mian,2021.2.3,59.83899718729389,
2g,2,2,2.0,l,"[0.2, -0.2]",,,,,,,,,,,,,,,,,,,,0,55,55,55,,,,,,,,,,,,,,,,,l,1,0.5971193000150379,,,,,,,,,,,,xyh,m,20,2024_Apr_15_1439,mian,2021.2.3,59.83899718729389,
7E,1,1,E,a,"[0.2, 0.2]",,,,,,,,,,,,,,,,,,,,0,56,56,56,,,,,,,,,,,,,,,,,a,1,1.4683266000065487,,,,,,,,,,,,xyh,m,20,2024_Apr_15_1439,mian,2021.2.3,59.83899718729389,
G4,1,2,G,a,"[-0.2, 0.2]",,,,,,,,,,,,,,,,,,,,0,57,57,57,,,,,,,,,,,,,,,,,a,1,0.45413150000968017,,,,,,,,,,,,xyh,m,20,2024_Apr_15_1439,mian,2021.2.3,59.83899718729389,
2F,2,1,2.0,l,"[-0.2, -0.2]",,,,,,,,,,,,,,,,,,,,0,58,58,58,,,,,,,,,,,,,,,,,l,1,1.070069000008516,,,,,,,,,,,,xyh,m,20,2024_Apr_15_1439,mian,2021.2.3,59.83899718729389,
E9,2,2,9.0,a,"[0.2, -0.2]",,,,,,,,,,,,,,,,,,,,0,59,59,59,,,,,,,,,,,,,,,,,a,1,0.6565245000238065,,,,,,,,,,,,xyh,m,20,2024_Apr_15_1439,mian,2021.2.3,59.83899718729389,
5f,1,1,f,l,"[0.2, 0.2]",,,,,,,,,,,,,,,,,,,,0,60,60,60,,,,,,,,,,,,,,,,,l,1,1.9357052999839652,,,,,,,,,,,,xyh,m,20,2024_Apr_15_1439,mian,2021.2.3,59.83899718729389,
e7,1,2,e,l,"[-0.2, 0.2]",,,,,,,,,,,,,,,,,,,,0,61,61,61,,,,,,,,,,,,,,,,,l,1,0.5448500000056811,,,,,,,,,,,,xyh,m,20,2024_Apr_15_1439,mian,2021.2.3,59.83899718729389,
f2,2,1,2.0,l,"[-0.2, -0.2]",,,,,,,,,,,,,,,,,,,,0,62,62,62,,,,,,,,,,,,,,,,,l,1,1.2558152000128757,,,,,,,,,,,,xyh,m,20,2024_Apr_15_1439,mian,2021.2.3,59.83899718729389,
G9,2,2,9.0,a,"[0.2, -0.2]",,,,,,,,,,,,,,,,,,,,0,63,63,63,,,,,,,,,,,,,,,,,a,1,0.5096498999919277,,,,,,,,,,,,xyh,m,20,2024_Apr_15_1439,mian,2021.2.3,59.83899718729389,
7g,1,1,g,l,"[0.2, 0.2]",,,,,,,,,,,,,,,,,,,,0,64,64,64,,,,,,,,,,,,,,,,,l,1,1.6672221000189893,,,,,,,,,,,,xyh,m,20,2024_Apr_15_1439,mian,2021.2.3,59.83899718729389,
F8,1,2,F,a,"[-0.2, 0.2]",,,,,,,,,,,,,,,,,,,,0,65,65,65,,,,,,,,,,,,,,,,,a,1,0.5075548999884631,,,,,,,,,,,,xyh,m,20,2024_Apr_15_1439,mian,2021.2.3,59.83899718729389,
A7,2,1,7.0,a,"[-0.2, -0.2]",,,,,,,,,,,,,,,,,,,,0,66,66,66,,,,,,,,,,,,,,,,,a,1,0.8498944999882951,,,,,,,,,,,,xyh,m,20,2024_Apr_15_1439,mian,2021.2.3,59.83899718729389,
4G,2,2,4.0,l,"[0.2, -0.2]",,,,,,,,,,,,,,,,,,,,0,67,67,67,,,,,,,,,,,,,,,,,l,1,0.6036665000137873,,,,,,,,,,,,xyh,m,20,2024_Apr_15_1439,mian,2021.2.3,59.83899718729389,
g2,1,1,g,l,"[0.2, 0.2]",,,,,,,,,,,,,,,,,,,,0,68,68,68,,,,,,,,,,,,,,,,,l,1,3.5943376000213902,,,,,,,,,,,,xyh,m,20,2024_Apr_15_1439,mian,2021.2.3,59.83899718729389,
g4,1,2,g,l,"[-0.2, 0.2]",,,,,,,,,,,,,,,,,,,,0,69,69,69,,,,,,,,,,,,,,,,,l,1,0.49065260001225397,,,,,,,,,,,,xyh,m,20,2024_Apr_15_1439,mian,2021.2.3,59.83899718729389,
7a,2,1,7.0,a,"[-0.2, -0.2]",,,,,,,,,,,,,,,,,,,,0,70,70,70,,,,,,,,,,,,,,,,,a,1,0.9911486000055447,,,,,,,,,,,,xyh,m,20,2024_Apr_15_1439,mian,2021.2.3,59.83899718729389,
8e,2,2,8.0,l,"[0.2, -0.2]",,,,,,,,,,,,,,,,,,,,0,71,71,71,,,,,,,,,,,,,,,,,l,1,0.5810737000138033,,,,,,,,,,,,xyh,m,20,2024_Apr_15_1439,mian,2021.2.3,59.83899718729389,
h4,1,1,h,l,"[0.2, 0.2]",,,,,,,,,,,,,,,,,,,,0,72,72,72,,,,,,,,,,,,,,,,,l,1,1.3307135000068229,,,,,,,,,,,,xyh,m,20,2024_Apr_15_1439,mian,2021.2.3,59.83899718729389,
G8,1,2,G,a,"[-0.2, 0.2]",,,,,,,,,,,,,,,,,,,,0,73,73,73,,,,,,,,,,,,,,,,,a,1,2.499861799995415,,,,,,,,,,,,xyh,m,20,2024_Apr_15_1439,mian,2021.2.3,59.83899718729389,
6F,2,1,6.0,l,"[-0.2, -0.2]",,,,,,,,,,,,,,,,,,,,0,74,74,74,,,,,,,,,,,,,,,,,l,1,0.8664695000043139,,,,,,,,,,,,xyh,m,20,2024_Apr_15_1439,mian,2021.2.3,59.83899718729389,
g5,2,2,5.0,a,"[0.2, -0.2]",,,,,,,,,,,,,,,,,,,,0,75,75,75,,,,,,,,,,,,,,,,,a,1,0.5138375999813434,,,,,,,,,,,,xyh,m,20,2024_Apr_15_1439,mian,2021.2.3,59.83899718729389,
G5,1,1,G,a,"[0.2, 0.2]",,,,,,,,,,,,,,,,,,,,0,76,76,76,,,,,,,,,,,,,,,,,a,1,0.9945129999832716,,,,,,,,,,,,xyh,m,20,2024_Apr_15_1439,mian,2021.2.3,59.83899718729389,
h5,1,2,h,l,"[-0.2, 0.2]",,,,,,,,,,,,,,,,,,,,0,77,77,77,,,,,,,,,,,,,,,,,l,1,0.4705719999910798,,,,,,,,,,,,xyh,m,20,2024_Apr_15_1439,mian,2021.2.3,59.83899718729389,
9G,2,1,9.0,a,"[-0.2, -0.2]",,,,,,,,,,,,,,,,,,,,0,78,78,78,,,,,,,,,,,,,,,,,a,1,0.6705903999973089,,,,,,,,,,,,xyh,m,20,2024_Apr_15_1439,mian,2021.2.3,59.83899718729389,
F3,2,2,3.0,a,"[0.2, -0.2]",,,,,,,,,,,,,,,,,,,,0,79,79,79,,,,,,,,,,,,,,,,,a,1,0.9392948999884538,,,,,,,,,,,,xyh,m,20,2024_Apr_15_1439,mian,2021.2.3,59.83899718729389,
,,,,,,1,1,pic/flanker5.png,pic/flanker3.png,a,k,,,,,,,,,,,,,,,,,,0,0,0,0,0,0,0,4,,,,,,,,,,,,647.1629021000117,None,645.9776457000116,647.1792800000112,None,0,享受,k,1,1.6597269000194501,,xyh,m,20,2024_Apr_15_1439,mian,2021.2.3,59.83899718729389,
,,,,,,0,1,pic/flanker5.png,pic/flanker1.png,s,k,,,,,,,,,,,,,,,,,,0,0,0,0,0,1,1,0,,,,,,,,,,,,652.2325257000048,None,651.0482309000217,652.2493594000116,s,1,前进,k,1,1.1733571999939159,0.6126081999973394,xyh,m,20,2024_Apr_15_1439,mian,2021.2.3,59.83899718729389,
,,,,,,0,0,pic/flanker6.png,pic/flanker2.png,a,l,,,,,,,,,,,,,,,,,,0,0,0,0,0,2,2,1,,,,,,,,,,,,655.8517106999934,None,654.6667585000105,655.8677710000193,a,1,郁闷,l,1,0.7317396000144072,0.6010654999990948,xyh,m,20,2024_Apr_15_1439,mian,2021.2.3,59.83899718729389,
,,,,,,1,0,pic/flanker5.png,pic/flanker3.png,a,l,,,,,,,,,,,,,,,,,,0,0,0,0,0,3,3,7,,,,,,,,,,,,659.1859088000201,None,658.0016751000076,659.2031164000218,a,1,自卑,l,1,0.8439909000007901,0.6357188999827486,xyh,m,20,2024_Apr_15_1439,mian,2021.2.3,59.83899718729389,
,,,,,,1,0,pic/flanker6.png,pic/flanker4.png,s,l,,,,,,,,,,,,,,,,,,0,0,0,0,0,4,4,5,,,,,,,,,,,,662.5543291000067,None,661.370508699998,662.5705114000011,s,1,浪费,l,1,0.7581007000117097,0.9062160000030417,xyh,m,20,2024_Apr_15_1439,mian,2021.2.3,59.83899718729389,
,,,,,,0,0,pic/flanker5.png,pic/flanker1.png,s,l,,,,,,,,,,,,,,,,,,0,0,0,0,0,5,5,3,,,,,,,,,,,,666.0395577000163,None,664.8553677000164,666.0558698000095,None,0,丢失,k,0,0.9748263999936171,,xyh,m,20,2024_Apr_15_1439,mian,2021.2.3,59.83899718729389,
,,,,,,1,1,pic/flanker6.png,pic/flanker4.png,s,k,,,,,,,,,,,,,,,,,,0,0,0,0,0,6,6,6,,,,,,,,,,,,670.3248569999996,None,669.1402968000039,670.3416007000196,s,1,廉洁,k,1,0.8220399999991059,0.6847870000055991,xyh,m,20,2024_Apr_15_1439,mian,2021.2.3,59.83899718729389,
,,,,,,0,1,pic/flanker6.png,pic/flanker2.png,a,k,,,,,,,,,,,,,,,,,,0,0,0,0,0,7,7,2,,,,,,,,,,,,673.7100269999937,None,672.5260297000059,673.726682700013,a,1,生动,k,1,0.6667910999967717,0.4955216999805998,xyh,m,20,2024_Apr_15_1439,mian,2021.2.3,59.83899718729389,
,,,,,,,,,,,,,,,,,,,,,,,,,,,,,0,0,0,0,,,,,,,,,,,,,,,,,,,,,,,,,,,xyh,m,20,2024_Apr_15_1439,mian,2021.2.3,59.83899718729389,
,,,,,,0,1,pic/flanker5.png,pic/flanker1.png,s,k,pic/AffRest1.png,,,,,,,,,,,,,,,,,,,,,,,,,0,0,0,0,0,0,0,56,,,,681.1138713000109,None,679.9281627000018,681.1301577000122,s,1,赞成,k,1,0.5715870000130963,0.5408740999992006,xyh,m,20,2024_Apr_15_1439,mian,2021.2.3,59.83899718729389,
,,,,,,0,0,pic/flanker5.png,pic/flanker1.png,s,l,pic/AffRest1.png,,,,,,,,,,,,,,,,,,,,,,,,,0,0,0,0,0,1,1,11,,,,684.1995263000135,None,683.0146288000105,684.2153304000094,s,1,郁闷,l,1,0.6723002000071574,0.3335175999964122,xyh,m,20,2024_Apr_15_1439,mian,2021.2.3,59.83899718729389,
,,,,,,1,0,pic/flanker5.png,pic/flanker3.png,a,l,pic/AffRest1.png,,,,,,,,,,,,,,,,,,,,,,,,,0,0,0,0,0,2,2,31,,,,687.0340663999959,None,685.8491364000074,687.0503001000034,a,1,孤单,l,1,0.7442710000032093,0.47517879999941215,xyh,m,20,2024_Apr_15_1439,mian,2021.2.3,59.83899718729389,
,,,,,,1,1,pic/flanker6.png,pic/flanker4.png,s,k,pic/AffRest1.png,,,,,,,,,,,,,,,,,,,,,,,,,0,0,0,0,0,3,3,30,,,,690.2351147000154,None,689.0509806000046,690.2522687000164,s,1,卓越,k,1,0.5679565999889746,0.5197105999977794,xyh,m,20,2024_Apr_15_1439,mian,2021.2.3,59.83899718729389,
,,,,,,0,1,pic/flanker6.png,pic/flanker2.png,a,k,pic/AffRest1.png,,,,,,,,,,,,,,,,,,,,,,,,,0,0,0,0,0,4,4,2,,,,693.2536899000115,None,692.0690573000174,693.2707676000136,a,1,留恋,k,1,0.9765958999923896,0.4184075999946799,xyh,m,20,2024_Apr_15_1439,mian,2021.2.3,59.83899718729389,
,,,,,,1,1,pic/flanker5.png,pic/flanker3.png,a,k,pic/AffRest1.png,,,,,,,,,,,,,,,,,,,,,,,,,0,0,0,0,0,5,5,44,,,,696.6382541000203,None,695.4537891000218,696.6550011000072,a,1,豪放,k,1,0.6460726000077557,0.635805599973537,xyh,m,20,2024_Apr_15_1439,mian,2021.2.3,59.83899718729389,
,,,,,,1,1,pic/flanker5.png,pic/flanker3.png,a,k,pic/AffRest1.png,,,,,,,,,,,,,,,,,,,,,,,,,0,0,0,0,0,6,6,28,,,,699.9068492999941,None,698.7222514000023,699.9233590000076,a,1,秀丽,k,1,0.6209240999887697,0.5872888999874704,xyh,m,20,2024_Apr_15_1439,mian,2021.2.3,59.83899718729389,
,,,,,,0,1,pic/flanker6.png,pic/flanker2.png,a,k,pic/AffRest1.png,,,,,,,,,,,,,,,,,,,,,,,,,0,0,0,0,0,7,7,42,,,,703.1415878999978,None,701.9571425000031,703.1585792000114,a,1,充裕,k,1,0.7182024999929126,0.3636425999866333,xyh,m,20,2024_Apr_15_1439,mian,2021.2.3,59.83899718729389,
,,,,,,0,1,pic/flanker5.png,pic/flanker1.png,s,k,pic/AffRest1.png,,,,,,,,,,,,,,,,,,,,,,,,,0,0,0,0,0,8,8,72,,,,706.0596918000083,None,704.8751046000107,706.0758026000112,s,1,振作,k,1,0.9025948000198696,0.4172103999881074,xyh,m,20,2024_Apr_15_1439,mian,2021.2.3,59.83899718729389,
,,,,,,0,0,pic/flanker6.png,pic/flanker2.png,a,l,pic/AffRest1.png,,,,,,,,,,,,,,,,,,,,,,,,,0,0,0,0,0,9,9,25,,,,709.311331600009,None,708.1272590000008,709.3280556999962,a,1,伤心,l,1,0.733891300013056,0.3293234000157099,xyh,m,20,2024_Apr_15_1439,mian,2021.2.3,59.83899718729389,
,,,,,,0,1,pic/flanker5.png,pic/flanker1.png,s,k,pic/AffRest1.png,,,,,,,,,,,,,,,,,,,,,,,,,0,0,0,0,0,10,10,16,,,,712.2965415999934,None,711.1123270000098,712.313254800014,s,1,圣洁,k,1,0.5280239999992773,0.35587840000516735,xyh,m,20,2024_Apr_15_1439,mian,2021.2.3,59.83899718729389,
,,,,,,1,0,pic/flanker5.png,pic/flanker3.png,a,l,pic/AffRest1.png,,,,,,,,,,,,,,,,,,,,,,,,,0,0,0,0,0,11,11,63,,,,715.0970536000095,None,713.913437900017,715.1143874000118,a,1,胡涂,l,1,0.8508805000165012,0.5885722000093665,xyh,m,20,2024_Apr_15_1439,mian,2021.2.3,59.83899718729389,
,,,,,,1,1,pic/flanker5.png,pic/flanker3.png,a,k,pic/AffRest1.png,,,,,,,,,,,,,,,,,,,,,,,,,0,0,0,0,0,12,12,36,,,,718.5165568999946,None,717.3317295000015,718.5328178000054,a,1,丰满,k,1,0.529032400023425,0.4558488999900874,xyh,m,20,2024_Apr_15_1439,mian,2021.2.3,59.83899718729389,
,,,,,,1,0,pic/flanker5.png,pic/flanker3.png,a,l,pic/AffRest1.png,,,,,,,,,,,,,,,,,,,,,,,,,0,0,0,0,0,13,13,7,,,,721.5346075000125,None,720.3500615000085,721.5514444000146,a,1,别扭,l,1,1.5585002999869175,0.5641475000011269,xyh,m,20,2024_Apr_15_1439,mian,2021.2.3,59.83899718729389,
,,,,,,0,0,pic/flanker6.png,pic/flanker2.png,a,l,pic/AffRest1.png,,,,,,,,,,,,,,,,,,,,,,,,,0,0,0,0,0,14,14,17,,,,725.6199013000005,None,724.4359753000026,725.6366977000143,a,1,排斥,l,1,1.870518700015964,0.2710209999931976,xyh,m,20,2024_Apr_15_1439,mian,2021.2.3,59.83899718729389,
,,,,,,1,1,pic/flanker6.png,pic/flanker4.png,s,k,pic/AffRest1.png,,,,,,,,,,,,,,,,,,,,,,,,,0,0,0,0,0,15,15,78,,,,729.7543520000181,None,728.5710194999992,729.7719455000188,s,1,奉献,k,1,0.6060005000035744,0.49683119999826886,xyh,m,20,2024_Apr_15_1439,mian,2021.2.3,59.83899718729389,
,,,,,,1,0,pic/flanker6.png,pic/flanker4.png,s,l,pic/AffRest1.png,,,,,,,,,,,,,,,,,,,,,,,,,0,0,0,0,0,16,16,13,,,,732.8903060000157,None,731.706053700007,732.907035900018,s,1,丢失,l,1,0.782617000018945,0.488678699999582,xyh,m,20,2024_Apr_15_1439,mian,2021.2.3,59.83899718729389,
,,,,,,1,1,pic/flanker5.png,pic/flanker3.png,a,k,pic/AffRest1.png,,,,,,,,,,,,,,,,,,,,,,,,,0,0,0,0,0,17,17,52,,,,736.1407967999985,None,734.9571703000111,736.1574643000204,a,1,诚恳,k,1,0.5310185000125784,0.4708461999834981,xyh,m,20,2024_Apr_15_1439,mian,2021.2.3,59.83899718729389,
,,,,,,0,1,pic/flanker5.png,pic/flanker1.png,s,k,pic/AffRest1.png,,,,,,,,,,,,,,,,,,,,,,,,,0,0,0,0,0,18,18,24,,,,738.9769595999969,None,737.7926699999953,738.99360050002,s,1,敬佩,k,1,0.4670717999979388,0.3918376000074204,xyh,m,20,2024_Apr_15_1439,mian,2021.2.3,59.83899718729389,
,,,,,,0,1,pic/flanker6.png,pic/flanker2.png,a,k,pic/AffRest1.png,,,,,,,,,,,,,,,,,,,,,,,,,0,0,0,0,0,19,19,66,,,,741.7611356000125,None,740.5776486000104,741.7778668999963,a,1,富丽,k,1,0.44903739998699166,0.5612842999980785,xyh,m,20,2024_Apr_15_1439,mian,2021.2.3,59.83899718729389,
,,,,,,1,1,pic/flanker5.png,pic/flanker3.png,a,k,pic/AffRest1.png,,,,,,,,,,,,,,,,,,,,,,,,,0,0,0,0,0,20,20,60,,,,744.6455767000152,None,743.461252500012,744.6623083000013,a,1,有利,l,0,0.8811061999876983,0.5897036999813281,xyh,m,20,2024_Apr_15_1439,mian,2021.2.3,59.83899718729389,
,,,,,,1,1,pic/flanker6.png,pic/flanker4.png,s,k,pic/AffRest1.png,,,,,,,,,,,,,,,,,,,,,,,,,0,0,0,0,0,21,21,54,,,,747.981227900018,None,746.7987655000179,747.9978555999987,s,1,俊秀,k,1,0.5572389999870211,0.5132894999987911,xyh,m,20,2024_Apr_15_1439,mian,2021.2.3,59.83899718729389,
,,,,,,0,0,pic/flanker5.png,pic/flanker1.png,s,l,pic/AffRest1.png,,,,,,,,,,,,,,,,,,,,,,,,,0,0,0,0,0,22,22,51,,,,750.9826153000176,None,749.7984991999983,750.9993396000064,s,1,鲁莽,l,1,0.8201476999965962,0.4266164999862667,xyh,m,20,2024_Apr_15_1439,mian,2021.2.3,59.83899718729389,
,,,,,,0,1,pic/flanker6.png,pic/flanker2.png,a,k,pic/AffRest1.png,,,,,,,,,,,,,,,,,,,,,,,,,0,0,0,0,0,23,23,34,,,,754.0514713000157,None,752.866320000001,754.0678207000019,a,1,畅销,k,1,0.731204500014428,0.36195910000242293,xyh,m,20,2024_Apr_15_1439,mian,2021.2.3,59.83899718729389,
,,,,,,1,1,pic/flanker5.png,pic/flanker3.png,a,k,pic/AffRest1.png,,,,,,,,,,,,,,,,,,,,,,,,,0,0,0,0,0,24,24,76,,,,757.0188656999962,None,755.8341002000088,757.0360191000218,a,1,舒畅,k,1,0.6709254999877885,0.577143199974671,xyh,m,20,2024_Apr_15_1439,mian,2021.2.3,59.83899718729389,
,,,,,,1,0,pic/flanker6.png,pic/flanker4.png,s,l,pic/AffRest1.png,,,,,,,,,,,,,,,,,,,,,,,,,0,0,0,0,0,25,25,29,,,,760.087372000009,None,758.9029091999982,760.1037477000209,s,1,冷笑,l,1,0.5506296000094153,0.46681499999249354,xyh,m,20,2024_Apr_15_1439,mian,2021.2.3,59.83899718729389,
,,,,,,0,0,pic/flanker6.png,pic/flanker2.png,a,l,pic/AffRest1.png,,,,,,,,,,,,,,,,,,,,,,,,,0,0,0,0,0,26,26,73,,,,763.0885812000197,None,761.9043246000074,763.1056614000117,a,1,怀疑,l,1,0.7367817999911495,0.3477450000063982,xyh,m,20,2024_Apr_15_1439,mian,2021.2.3,59.83899718729389,
,,,,,,0,0,pic/flanker5.png,pic/flanker1.png,s,l,pic/AffRest1.png,,,,,,,,,,,,,,,,,,,,,,,,,0,0,0,0,0,27,27,3,,,,766.1727232999983,None,764.9909526999982,766.2061061999993,s,1,忧虑,l,1,0.9151929000217933,0.29250430001411587,xyh,m,20,2024_Apr_15_1439,mian,2021.2.3,59.83899718729389,
,,,,,,0,0,pic/flanker5.png,pic/flanker1.png,s,l,pic/AffRest1.png,,,,,,,,,,,,,,,,,,,,,,,,,0,0,0,0,0,28,28,19,,,,769.3089741000149,None,768.1245055000181,769.3255266000051,s,1,焦躁,l,1,0.655300399987027,0.47646180001902394,xyh,m,20,2024_Apr_15_1439,mian,2021.2.3,59.83899718729389,
,,,,,,1,0,pic/flanker5.png,pic/flanker3.png,a,l,pic/AffRest1.png,,,,,,,,,,,,,,,,,,,,,,,,,0,0,0,0,0,29,29,39,,,,772.410753300006,None,771.2256101999956,772.4273141000012,a,1,闷热,l,1,1.1823755000077654,0.45043679999071173,xyh,m,20,2024_Apr_15_1439,mian,2021.2.3,59.83899718729389,
,,,,,,0,1,pic/flanker5.png,pic/flanker1.png,s,k,pic/AffRest1.png,,,,,,,,,,,,,,,,,,,,,,,,,0,0,0,0,0,30,30,64,,,,775.9454788000148,None,774.763397600007,775.9778875000193,s,1,廉洁,k,1,0.5721193999925163,0.3769571000011638,xyh,m,20,2024_Apr_15_1439,mian,2021.2.3,59.83899718729389,
,,,,,,0,0,pic/flanker6.png,pic/flanker2.png,a,l,pic/AffRest1.png,,,,,,,,,,,,,,,,,,,,,,,,,0,0,0,0,0,31,31,1,,,,778.9307098000136,None,777.746401100012,778.9473302999977,a,1,慌忙,l,1,0.6475118999951519,0.39208530000178143,xyh,m,20,2024_Apr_15_1439,mian,2021.2.3,59.83899718729389,
,,,,,,1,0,pic/flanker5.png,pic/flanker3.png,a,l,pic/AffRest1.png,,,,,,,,,,,,,,,,,,,,,,,,,0,0,0,0,0,32,32,79,,,,781.8986085000215,None,780.7142874000128,781.915673600015,a,1,沮丧,l,1,0.907769500016002,0.7277613000187557,xyh,m,20,2024_Apr_15_1439,mian,2021.2.3,59.83899718729389,
,,,,,,0,0,pic/flanker6.png,pic/flanker2.png,a,l,pic/AffRest1.png,,,,,,,,,,,,,,,,,,,,,,,,,0,0,0,0,0,33,33,49,,,,785.3502924000204,None,784.1656129000185,785.3670869000198,a,1,缺乏,k,0,0.8461823999823537,0.3675472000031732,xyh,m,20,2024_Apr_15_1439,mian,2021.2.3,59.83899718729389,
,,,,,,0,0,pic/flanker5.png,pic/flanker1.png,s,l,pic/AffRest1.png,,,,,,,,,,,,,,,,,,,,,,,,,0,0,0,0,0,34,34,35,,,,788.4352246000199,None,787.2506380999985,788.4522023000172,s,1,逃避,k,0,0.6085182999959216,0.4107509999885224,xyh,m,20,2024_Apr_15_1439,mian,2021.2.3,59.83899718729389,
,,,,,,0,1,pic/flanker6.png,pic/flanker2.png,a,k,pic/AffRest1.png,,,,,,,,,,,,,,,,,,,,,,,,,0,0,0,0,0,35,35,50,,,,791.2694994000194,None,790.085602600011,791.2860713000118,a,1,清秀,k,1,0.5729669999855105,0.3807169000210706,xyh,m,20,2024_Apr_15_1439,mian,2021.2.3,59.83899718729389,
,,,,,,0,0,pic/flanker5.png,pic/flanker1.png,s,l,pic/AffRest1.png,,,,,,,,,,,,,,,,,,,,,,,,,0,0,0,0,0,36,36,67,,,,794.2553467999969,None,793.0707142000028,794.2715178000217,s,1,撒谎,k,0,0.5412833000009414,0.4244472999998834,xyh,m,20,2024_Apr_15_1439,mian,2021.2.3,59.83899718729389,
,,,,,,0,1,pic/flanker6.png,pic/flanker2.png,a,k,pic/AffRest1.png,,,,,,,,,,,,,,,,,,,,,,,,,0,0,0,0,0,37,37,74,,,,797.039837999997,None,795.8621439000126,797.0730470000126,a,1,雄厚,k,1,0.588512799993623,0.3307520999806002,xyh,m,20,2024_Apr_15_1439,mian,2021.2.3,59.83899718729389,
,,,,,,1,1,pic/flanker6.png,pic/flanker4.png,s,k,pic/AffRest1.png,,,,,,,,,,,,,,,,,,,,,,,,,0,0,0,0,0,38,38,46,,,,799.8902334000159,None,798.7062380000134,799.9075682999974,s,1,公平,k,1,0.5187347000173759,0.6475312999973539,xyh,m,20,2024_Apr_15_1439,mian,2021.2.3,59.83899718729389,
,,,,,,0,1,pic/flanker5.png,pic/flanker1.png,s,k,pic/AffRest1.png,,,,,,,,,,,,,,,,,,,,,,,,,0,0,0,0,0,39,39,0,,,,803.092873000016,None,801.9079989000165,803.1095297000138,s,1,爽朗,k,1,0.5910078999877442,0.42709449998801574,xyh,m,20,2024_Apr_15_1439,mian,2021.2.3,59.83899718729389,
,,,,,,1,1,pic/flanker6.png,pic/flanker4.png,s,k,pic/AffRest1.png,,,,,,,,,,,,,,,,,,,,,,,,,0,0,0,0,0,40,40,62,,,,806.0774131999933,None,804.8925806000188,806.0938137000194,s,1,吉祥,k,1,0.6673471000103746,0.6143722999840975,xyh,m,20,2024_Apr_15_1439,mian,2021.2.3,59.83899718729389,
,,,,,,1,0,pic/flanker6.png,pic/flanker4.png,s,l,pic/AffRest1.png,,,,,,,,,,,,,,,,,,,,,,,,,0,0,0,0,0,41,41,21,,,,809.3458178000001,None,808.1608994000126,809.3624727000133,s,1,假冒,l,1,0.7486828999826685,0.6781854000000749,xyh,m,20,2024_Apr_15_1439,mian,2021.2.3,59.83899718729389,
,,,,,,1,0,pic/flanker5.png,pic/flanker3.png,a,l,pic/AffRest1.png,,,,,,,,,,,,,,,,,,,,,,,,,0,0,0,0,0,42,42,71,,,,812.748369900015,None,811.562821200001,812.7635712000192,a,1,失意,l,1,0.5638775999832433,0.44851079999352805,xyh,m,20,2024_Apr_15_1439,mian,2021.2.3,59.83899718729389,
,,,,,,1,1,pic/flanker6.png,pic/flanker4.png,s,k,pic/AffRest1.png,,,,,,,,,,,,,,,,,,,,,,,,,0,0,0,0,0,43,43,14,,,,815.5994538000086,None,814.4141965000017,815.6156542999961,s,1,正直,k,1,0.5196355000080075,0.4629883000161499,xyh,m,20,2024_Apr_15_1439,mian,2021.2.3,59.83899718729389,
,,,,,,1,0,pic/flanker5.png,pic/flanker3.png,a,l,pic/AffRest1.png,,,,,,,,,,,,,,,,,,,,,,,,,0,0,0,0,0,44,44,55,,,,818.4174358000164,None,817.2331742999959,818.4337220000161,a,1,轻率,l,1,0.806182300002547,0.5973177999840118,xyh,m,20,2024_Apr_15_1439,mian,2021.2.3,59.83899718729389,
,,,,,,1,1,pic/flanker6.png,pic/flanker4.png,s,k,pic/AffRest1.png,,,,,,,,,,,,,,,,,,,,,,,,,0,0,0,0,0,45,45,22,,,,821.7187571999966,None,820.5345948000031,821.7356224000105,s,1,珍藏,k,1,0.5210459000081755,0.5679608999926131,xyh,m,20,2024_Apr_15_1439,mian,2021.2.3,59.83899718729389,
,,,,,,0,1,pic/flanker5.png,pic/flanker1.png,s,k,pic/AffRest1.png,,,,,,,,,,,,,,,,,,,,,,,,,0,0,0,0,0,46,46,32,,,,824.6870000000054,None,823.5023346999951,824.7038775999972,s,1,热切,k,1,0.5886204999987967,0.32920620002551004,xyh,m,20,2024_Apr_15_1439,mian,2021.2.3,59.83899718729389,
,,,,,,0,1,pic/flanker6.png,pic/flanker2.png,a,k,pic/AffRest1.png,,,,,,,,,,,,,,,,,,,,,,,,,0,0,0,0,0,47,47,26,,,,827.6385526999948,None,826.4547348000051,827.6551025999943,a,1,享受,k,1,0.6581214999896474,0.35597380000399426,xyh,m,20,2024_Apr_15_1439,mian,2021.2.3,59.83899718729389,
,,,,,,1,0,pic/flanker6.png,pic/flanker4.png,s,l,pic/AffRest1.png,,,,,,,,,,,,,,,,,,,,,,,,,0,0,0,0,0,48,48,61,,,,830.5063731000118,None,829.3223216000188,830.5235013000201,s,1,落后,l,1,0.6645979000022635,0.42691280000144616,xyh,m,20,2024_Apr_15_1439,mian,2021.2.3,59.83899718729389,
,,,,,,1,0,pic/flanker6.png,pic/flanker4.png,s,l,pic/AffRest1.png,,,,,,,,,,,,,,,,,,,,,,,,,0,0,0,0,0,49,49,37,,,,833.5749387000105,None,832.3907684000151,833.5917936000042,s,1,心慌,l,1,0.6233568000025116,0.42846579998149537,xyh,m,20,2024_Apr_15_1439,mian,2021.2.3,59.83899718729389,
,,,,,,1,1,pic/flanker5.png,pic/flanker3.png,a,k,pic/AffRest1.png,,,,,,,,,,,,,,,,,,,,,,,,,0,0,0,0,0,50,50,68,,,,836.4926490000216,None,835.3079089999956,836.5096175000072,a,1,鲜艳,k,1,0.6104372999980114,0.4640409000276122,xyh,m,20,2024_Apr_15_1439,mian,2021.2.3,59.83899718729389,
,,,,,,0,0,pic/flanker6.png,pic/flanker2.png,a,l,pic/AffRest1.png,,,,,,,,,,,,,,,,,,,,,,,,,0,0,0,0,0,51,51,41,,,,839.6278043000202,None,838.4438654000114,839.6446212000155,a,1,悲观,l,1,0.5577510000148322,0.40419719999772497,xyh,m,20,2024_Apr_15_1439,mian,2021.2.3,59.83899718729389,
,,,,,,1,1,pic/flanker6.png,pic/flanker4.png,s,k,pic/AffRest1.png,,,,,,,,,,,,,,,,,,,,,,,,,0,0,0,0,0,52,52,38,,,,842.5626076000044,None,841.3780046000029,842.5794723000145,s,1,旺盛,k,1,0.5229118000133894,0.45381790000828914,xyh,m,20,2024_Apr_15_1439,mian,2021.2.3,59.83899718729389,
,,,,,,0,0,pic/flanker5.png,pic/flanker1.png,s,l,pic/AffRest1.png,,,,,,,,,,,,,,,,,,,,,,,,,0,0,0,0,0,53,53,59,,,,845.5143208999943,None,844.3301590000046,845.530968600011,s,1,浪费,l,1,0.8734399000240956,0.4145416999817826,xyh,m,20,2024_Apr_15_1439,mian,2021.2.3,59.83899718729389,
,,,,,,0,0,pic/flanker6.png,pic/flanker2.png,a,l,pic/AffRest1.png,,,,,,,,,,,,,,,,,,,,,,,,,0,0,0,0,0,54,54,65,,,,848.6828358000203,None,847.4982793999952,848.698973200022,a,1,消沉,l,1,0.7110008000163361,0.3169249999918975,xyh,m,20,2024_Apr_15_1439,mian,2021.2.3,59.83899718729389,
,,,,,,1,0,pic/flanker5.png,pic/flanker3.png,a,l,pic/AffRest1.png,,,,,,,,,,,,,,,,,,,,,,,,,0,0,0,0,0,55,55,47,,,,851.7009178000153,None,850.5163884000212,851.7175531999965,a,1,损害,l,1,0.5936248000070918,0.46237230001133867,xyh,m,20,2024_Apr_15_1439,mian,2021.2.3,59.83899718729389,
,,,,,,1,0,pic/flanker6.png,pic/flanker4.png,s,l,pic/AffRest1.png,,,,,,,,,,,,,,,,,,,,,,,,,0,0,0,0,0,56,56,69,,,,854.7692174999975,None,853.5843129999994,854.78554360001,s,1,争吵,l,1,0.603550500003621,0.44834180001635104,xyh,m,20,2024_Apr_15_1439,mian,2021.2.3,59.83899718729389,
,,,,,,0,1,pic/flanker5.png,pic/flanker1.png,s,k,pic/AffRest1.png,,,,,,,,,,,,,,,,,,,,,,,,,0,0,0,0,0,57,57,8,,,,857.6531770000001,None,856.4696933999949,857.6702644000179,s,1,羡慕,k,1,0.4721127999946475,0.3277972999785561,xyh,m,20,2024_Apr_15_1439,mian,2021.2.3,59.83899718729389,
,,,,,,0,0,pic/flanker5.png,pic/flanker1.png,s,l,pic/AffRest1.png,,,,,,,,,,,,,,,,,,,,,,,,,0,0,0,0,0,58,58,43,,,,860.4718921000022,None,859.2879380999948,860.4884704000142,s,1,罚款,l,1,0.5241064000001643,0.3585402000171598,xyh,m,20,2024_Apr_15_1439,mian,2021.2.3,59.83899718729389,
,,,,,,0,0,pic/flanker5.png,pic/flanker1.png,s,l,pic/AffRest1.png,,,,,,,,,,,,,,,,,,,,,,,,,0,0,0,0,0,59,59,27,,,,863.3231845000118,None,862.1395419000182,863.3397690000129,s,1,自卑,l,1,0.5618309999990743,0.2891373000165913,xyh,m,20,2024_Apr_15_1439,mian,2021.2.3,59.83899718729389,
,,,,,,1,1,pic/flanker5.png,pic/flanker3.png,a,k,pic/AffRest1.png,,,,,,,,,,,,,,,,,,,,,,,,,0,0,0,0,0,60,60,12,,,,866.0904037000146,None,864.9072429999942,866.10709580002,a,1,优雅,k,1,0.5573660999943968,0.4570233999984339,xyh,m,20,2024_Apr_15_1439,mian,2021.2.3,59.83899718729389,
,,,,,,1,1,pic/flanker5.png,pic/flanker3.png,a,k,pic/AffRest1.png,,,,,,,,,,,,,,,,,,,,,,,,,0,0,0,0,0,61,61,20,,,,868.9259192000027,None,867.7425427999988,868.9422485000105,a,1,永恒,k,1,0.8432616000063717,0.6493986000132281,xyh,m,20,2024_Apr_15_1439,mian,2021.2.3,59.83899718729389,
,,,,,,0,1,pic/flanker5.png,pic/flanker1.png,s,k,pic/AffRest1.png,,,,,,,,,,,,,,,,,,,,,,,,,0,0,0,0,0,62,62,48,,,,872.3944642000133,None,871.2102983000223,872.4112175000191,s,1,瑰丽,k,1,0.5084360000037123,0.31553510000230744,xyh,m,20,2024_Apr_15_1439,mian,2021.2.3,59.83899718729389,
,,,,,,1,1,pic/flanker5.png,pic/flanker3.png,a,k,pic/AffRest1.png,,,,,,,,,,,,,,,,,,,,,,,,,0,0,0,0,0,63,63,4,,,,875.0953942000051,None,873.9115593000024,875.1128698000102,a,1,生动,k,1,0.4503969000070356,0.6191728999838233,xyh,m,20,2024_Apr_15_1439,mian,2021.2.3,59.83899718729389,
,,,,,,0,1,pic/flanker6.png,pic/flanker2.png,a,k,pic/AffRest1.png,,,,,,,,,,,,,,,,,,,,,,,,,0,0,0,0,0,64,64,18,,,,878.1144663000014,None,876.9303501000104,878.1313804000092,a,1,典雅,k,1,0.5976186000043526,0.4082084000110626,xyh,m,20,2024_Apr_15_1439,mian,2021.2.3,59.83899718729389,
,,,,,,1,0,pic/flanker5.png,pic/flanker3.png,a,l,pic/AffRest1.png,,,,,,,,,,,,,,,,,,,,,,,,,0,0,0,0,0,65,65,23,,,,880.9490818000049,None,879.7646834000188,880.965256800002,a,1,烦恼,l,1,0.5526413999905344,0.5471475999802351,xyh,m,20,2024_Apr_15_1439,mian,2021.2.3,59.83899718729389,
,,,,,,0,1,pic/flanker6.png,pic/flanker2.png,a,k,pic/AffRest1.png,,,,,,,,,,,,,,,,,,,,,,,,,0,0,0,0,0,66,66,10,,,,884.050468100002,None,882.8663489000173,884.0675026999961,a,1,富足,k,1,0.49282709998078644,0.33405500001390465,xyh,m,20,2024_Apr_15_1439,mian,2021.2.3,59.83899718729389,
,,,,,,0,0,pic/flanker6.png,pic/flanker2.png,a,l,pic/AffRest1.png,,,,,,,,,,,,,,,,,,,,,,,,,0,0,0,0,0,67,67,9,,,,886.7858125000203,None,885.6010059000109,886.8021383000014,a,1,杂乱,l,1,0.5353731000213884,0.30206360001466237,xyh,m,20,2024_Apr_15_1439,mian,2021.2.3,59.83899718729389,
,,,,,,0,0,pic/flanker6.png,pic/flanker2.png,a,l,pic/AffRest1.png,,,,,,,,,,,,,,,,,,,,,,,,,0,0,0,0,0,68,68,57,,,,889.5366122999985,None,888.3525568000041,889.5535737000173,a,1,禁止,l,1,0.6743629000266083,0.25734640000155196,xyh,m,20,2024_Apr_15_1439,mian,2021.2.3,59.83899718729389,
,,,,,,1,1,pic/flanker6.png,pic/flanker4.png,s,k,pic/AffRest1.png,,,,,,,,,,,,,,,,,,,,,,,,,0,0,0,0,0,69,69,6,,,,892.387842199998,None,891.2039246000058,892.4047140000039,s,1,前进,k,1,0.49983409998822026,0.5373078999982681,xyh,m,20,2024_Apr_15_1439,mian,2021.2.3,59.83899718729389,
,,,,,,0,1,pic/flanker5.png,pic/flanker1.png,s,k,pic/AffRest1.png,,,,,,,,,,,,,,,,,,,,,,,,,0,0,0,0,0,70,70,40,,,,895.4557975000062,None,894.2716577000101,895.4730333000189,s,1,精致,k,1,0.7026575999916531,0.4064051999885123,xyh,m,20,2024_Apr_15_1439,mian,2021.2.3,59.83899718729389,
,,,,,,1,0,pic/flanker6.png,pic/flanker4.png,s,l,pic/AffRest1.png,,,,,,,,,,,,,,,,,,,,,,,,,0,0,0,0,0,71,71,77,,,,898.3905596999975,None,897.2070747000107,898.4073531000176,s,1,嘲笑,l,1,0.5485008000105154,0.45938119999482296,xyh,m,20,2024_Apr_15_1439,mian,2021.2.3,59.83899718729389,
,,,,,,1,0,pic/flanker6.png,pic/flanker4.png,s,l,pic/AffRest1.png,,,,,,,,,,,,,,,,,,,,,,,,,0,0,0,0,0,72,72,45,,,,901.3753144000075,None,900.1917507000035,901.3926788000099,s,1,厌恶,l,1,0.5654802999924868,0.48459370000637136,xyh,m,20,2024_Apr_15_1439,mian,2021.2.3,59.83899718729389,
,,,,,,1,0,pic/flanker5.png,pic/flanker3.png,a,l,pic/AffRest1.png,,,,,,,,,,,,,,,,,,,,,,,,,0,0,0,0,0,73,73,15,,,,904.460476600012,None,903.2768704000046,904.4775589000201,a,1,黑暗,l,1,0.5287486999877729,0.5835190000070725,xyh,m,20,2024_Apr_15_1439,mian,2021.2.3,59.83899718729389,
,,,,,,0,0,pic/flanker5.png,pic/flanker1.png,s,l,pic/AffRest1.png,,,,,,,,,,,,,,,,,,,,,,,,,0,0,0,0,0,74,74,75,,,,907.4956800000218,None,906.313263500022,907.5123115000024,s,1,处罚,l,1,0.7750170000072103,0.3686020000022836,xyh,m,20,2024_Apr_15_1439,mian,2021.2.3,59.83899718729389,
,,,,,,0,0,pic/flanker6.png,pic/flanker2.png,a,l,pic/AffRest1.png,,,,,,,,,,,,,,,,,,,,,,,,,0,0,0,0,0,75,75,33,,,,910.4641150000098,None,909.2792210000043,910.4807954000134,a,1,堵塞,l,1,0.9940385000081733,0.3771357000223361,xyh,m,20,2024_Apr_15_1439,mian,2021.2.3,59.83899718729389,
,,,,,,1,0,pic/flanker6.png,pic/flanker4.png,s,l,pic/AffRest1.png,,,,,,,,,,,,,,,,,,,,,,,,,0,0,0,0,0,76,76,53,,,,913.7656951000099,None,912.5816379000025,913.7822233000188,s,1,懒惰,l,1,0.527481200027978,0.4756573000049684,xyh,m,20,2024_Apr_15_1439,mian,2021.2.3,59.83899718729389,
,,,,,,1,0,pic/flanker6.png,pic/flanker4.png,s,l,pic/AffRest1.png,,,,,,,,,,,,,,,,,,,,,,,,,0,0,0,0,0,77,77,5,,,,916.7505701000046,None,915.5664994000108,916.7664869000146,s,1,穷苦,l,1,0.5475798000115901,0.5295440999907441,xyh,m,20,2024_Apr_15_1439,mian,2021.2.3,59.83899718729389,
,,,,,,0,1,pic/flanker6.png,pic/flanker2.png,a,k,pic/AffRest1.png,,,,,,,,,,,,,,,,,,,,,,,,,0,0,0,0,0,78,78,58,,,,919.8520022000012,None,918.6679638000205,919.868733100011,a,1,顽强,l,0,0.578045000002021,0.29197399999247864,xyh,m,20,2024_Apr_15_1439,mian,2021.2.3,59.83899718729389,
,,,,,,1,1,pic/flanker6.png,pic/flanker4.png,s,k,pic/AffRest1.png,,,,,,,,,,,,,,,,,,,,,,,,,0,0,0,0,0,79,79,70,,,,922.7031819999975,None,921.5193022000021,922.7204945000121,s,1,如愿,k,1,0.5223772999888752,0.4696074999810662,xyh,m,20,2024_Apr_15_1439,mian,2021.2.3,59.83899718729389,
,,,,,,,,,,,,pic/AffRest1.png,,,,,,,,,,,,,,,,,,,,,,,,,0,0,0,0,,,,,,,,,,,,,,,,,,,xyh,m,20,2024_Apr_15_1439,mian,2021.2.3,59.83899718729389,
,,,,,,0,0,pic/flanker5.png,pic/flanker1.png,s,l,pic/AffRest2.png,,,,,,,,,,,,,,,,,,,,,,,,,0,1,1,1,0,0,0,11,,,,1018.4692676000122,None,1017.2783627000172,1018.4887607000128,s,1,落后,l,1,0.7778860999969766,0.46489820000715554,xyh,m,20,2024_Apr_15_1439,mian,2021.2.3,59.83899718729389,
,,,,,,1,0,pic/flanker6.png,pic/flanker4.png,s,l,pic/AffRest2.png,,,,,,,,,,,,,,,,,,,,,,,,,0,1,1,1,0,1,1,13,,,,1021.7041970000137,None,1020.519492899999,1021.7207486999978,s,1,自卑,l,1,0.5666286000050604,0.6790255999949295,xyh,m,20,2024_Apr_15_1439,mian,2021.2.3,59.83899718729389,
,,,,,,0,0,pic/flanker5.png,pic/flanker1.png,s,l,pic/AffRest2.png,,,,,,,,,,,,,,,,,,,,,,,,,0,1,1,1,0,2,2,3,,,,1024.7716802000068,None,1023.5875990000204,1024.7881987,s,1,排斥,l,1,0.6606987999984995,1.076966699998593,xyh,m,20,2024_Apr_15_1439,mian,2021.2.3,59.83899718729389,
,,,,,,0,0,pic/flanker6.png,pic/flanker2.png,a,l,pic/AffRest2.png,,,,,,,,,,,,,,,,,,,,,,,,,0,1,1,1,0,3,3,17,,,,1028.3238388000173,None,1027.1395985000127,1028.340500899998,a,1,别扭,l,1,0.6644987000036053,0.3748425999947358,xyh,m,20,2024_Apr_15_1439,mian,2021.2.3,59.83899718729389,
,,,,,,0,1,pic/flanker5.png,pic/flanker1.png,s,k,pic/AffRest2.png,,,,,,,,,,,,,,,,,,,,,,,,,0,1,1,1,0,4,4,16,,,,1031.2922645999934,None,1030.1076443000056,1031.3088281000091,s,1,奉献,k,1,0.5652695999888238,0.38011199998436496,xyh,m,20,2024_Apr_15_1439,mian,2021.2.3,59.83899718729389,
,,,,,,1,0,pic/flanker5.png,pic/flanker3.png,a,l,pic/AffRest2.png,,,,,,,,,,,,,,,,,,,,,,,,,0,1,1,1,0,5,5,39,,,,1034.0607938000176,None,1032.8757916000031,1034.0765924000007,a,1,缺乏,l,1,0.5675427000096533,0.5047521000087727,xyh,m,20,2024_Apr_15_1439,mian,2021.2.3,59.83899718729389,
,,,,,,0,0,pic/flanker5.png,pic/flanker1.png,s,l,pic/AffRest2.png,,,,,,,,,,,,,,,,,,,,,,,,,0,1,1,1,0,6,6,75,,,,1036.9786333999946,None,1035.7943729000108,1036.9949472000008,s,1,轻率,k,0,1.0076521000009961,0.4361309999949299,xyh,m,20,2024_Apr_15_1439,mian,2021.2.3,59.83899718729389,
,,,,,,1,0,pic/flanker5.png,pic/flanker3.png,a,l,pic/AffRest2.png,,,,,,,,,,,,,,,,,,,,,,,,,0,1,1,1,0,7,7,71,,,,1040.279379100015,None,1039.0956523000204,1040.2966604999965,a,1,伤心,l,1,0.6578742999990936,0.485662199993385,xyh,m,20,2024_Apr_15_1439,mian,2021.2.3,59.83899718729389,
,,,,,,0,0,pic/flanker6.png,pic/flanker2.png,a,l,pic/AffRest2.png,,,,,,,,,,,,,,,,,,,,,,,,,0,1,1,1,0,8,8,73,,,,1043.2977619000012,None,1042.113767200004,1043.3142456000205,a,1,胡涂,l,1,0.4809737999748904,0.3455420999962371,xyh,m,20,2024_Apr_15_1439,mian,2021.2.3,59.83899718729389,
,,,,,,1,1,pic/flanker5.png,pic/flanker3.png,a,k,pic/AffRest2.png,,,,,,,,,,,,,,,,,,,,,,,,,0,1,1,1,0,9,9,4,,,,1046.0830530000094,None,1044.89873060002,1046.0996967999963,a,1,有利,k,1,0.6905830999894533,0.5043376999965403,xyh,m,20,2024_Apr_15_1439,mian,2021.2.3,59.83899718729389,
,,,,,,0,1,pic/flanker5.png,pic/flanker1.png,s,k,pic/AffRest2.png,,,,,,,,,,,,,,,,,,,,,,,,,0,1,1,1,0,10,10,48,,,,1049.0850300000166,None,1047.8996090000146,1049.101276500005,s,1,羡慕,k,1,0.5997361000045203,0.3560283000115305,xyh,m,20,2024_Apr_15_1439,mian,2021.2.3,59.83899718729389,
,,,,,,1,1,pic/flanker6.png,pic/flanker4.png,s,k,pic/AffRest2.png,,,,,,,,,,,,,,,,,,,,,,,,,0,1,1,1,0,11,11,6,,,,1051.9705966000038,None,1050.7847385000205,1051.9859847000043,s,1,诚恳,k,1,0.513820799998939,0.43237299998872913,xyh,m,20,2024_Apr_15_1439,mian,2021.2.3,59.83899718729389,
,,,,,,0,1,pic/flanker5.png,pic/flanker1.png,s,k,pic/AffRest2.png,,,,,,,,,,,,,,,,,,,,,,,,,0,1,1,1,0,12,12,32,,,,1054.9040860999958,None,1053.720493300003,1054.9212385000137,s,1,旺盛,k,1,0.5858141999924555,0.3528589000052307,xyh,m,20,2024_Apr_15_1439,mian,2021.2.3,59.83899718729389,
,,,,,,1,0,pic/flanker5.png,pic/flanker3.png,a,l,pic/AffRest2.png,,,,,,,,,,,,,,,,,,,,,,,,,0,1,1,1,0,13,13,15,,,,1057.6729608000023,None,1056.4883554000116,1057.689165400021,a,1,厌恶,l,1,0.6281373999954667,0.38577880000229925,xyh,m,20,2024_Apr_15_1439,mian,2021.2.3,59.83899718729389,
,,,,,,0,1,pic/flanker6.png,pic/flanker2.png,a,k,pic/AffRest2.png,,,,,,,,,,,,,,,,,,,,,,,,,0,1,1,1,0,14,14,74,,,,1060.5741457999975,None,1059.3897408000194,1060.5906789000146,a,1,雄厚,k,1,0.6014354000217281,0.3379735999915283,xyh,m,20,2024_Apr_15_1439,mian,2021.2.3,59.83899718729389,
,,,,,,1,1,pic/flanker6.png,pic/flanker4.png,s,k,pic/AffRest2.png,,,,,,,,,,,,,,,,,,,,,,,,,0,1,1,1,0,15,15,14,,,,1063.4753905000107,None,1062.2905251000193,1063.4916404999967,s,1,典雅,k,1,0.5339760000060778,0.4229914000025019,xyh,m,20,2024_Apr_15_1439,mian,2021.2.3,59.83899718729389,
,,,,,,0,1,pic/flanker6.png,pic/flanker2.png,a,k,pic/AffRest2.png,,,,,,,,,,,,,,,,,,,,,,,,,0,1,1,1,0,16,16,58,,,,1066.4603634999949,None,1065.2631001000118,1066.476902800001,a,1,吉祥,k,1,0.7399159999913536,0.3835480000125244,xyh,m,20,2024_Apr_15_1439,mian,2021.2.3,59.83899718729389,
,,,,,,0,0,pic/flanker5.png,pic/flanker1.png,s,l,pic/AffRest2.png,,,,,,,,,,,,,,,,,,,,,,,,,0,1,1,1,0,17,17,27,,,,1069.611836199998,None,1068.426728200022,1069.6280494999955,s,1,穷苦,l,1,0.5424682000011671,0.355845500016585,xyh,m,20,2024_Apr_15_1439,mian,2021.2.3,59.83899718729389,
,,,,,,0,1,pic/flanker6.png,pic/flanker2.png,a,k,pic/AffRest2.png,,,,,,,,,,,,,,,,,,,,,,,,,0,1,1,1,0,18,18,18,,,,1072.379027500021,None,1071.2007060000033,1072.4132703000214,a,1,留恋,k,1,0.8585959000047296,0.31443890000809915,xyh,m,20,2024_Apr_15_1439,mian,2021.2.3,59.83899718729389,
,,,,,,1,1,pic/flanker5.png,pic/flanker3.png,a,k,pic/AffRest2.png,,,,,,,,,,,,,,,,,,,,,,,,,0,1,1,1,0,19,19,36,,,,1075.431420900015,None,1074.2468994999945,1075.4479555000144,a,1,热切,k,1,0.8043901000055484,0.7294411000038963,xyh,m,20,2024_Apr_15_1439,mian,2021.2.3,59.83899718729389,
,,,,,,1,1,pic/flanker5.png,pic/flanker3.png,a,k,pic/AffRest2.png,,,,,,,,,,,,,,,,,,,,,,,,,0,1,1,1,0,20,20,76,,,,1078.9329844000167,None,1077.748605700006,1078.9499909000006,a,1,圣洁,k,1,1.5733970000001136,0.5123923000064678,xyh,m,20,2024_Apr_15_1439,mian,2021.2.3,59.83899718729389,
,,,,,,1,0,pic/flanker6.png,pic/flanker4.png,s,l,pic/AffRest2.png,,,,,,,,,,,,,,,,,,,,,,,,,0,1,1,1,0,21,21,69,,,,1082.9353579000162,None,1081.7503835000098,1082.9520687000186,s,1,杂乱,l,1,0.6558914000052027,0.4751603000040632,xyh,m,20,2024_Apr_15_1439,mian,2021.2.3,59.83899718729389,
,,,,,,0,1,pic/flanker5.png,pic/flanker1.png,s,k,pic/AffRest2.png,,,,,,,,,,,,,,,,,,,,,,,,,0,1,1,1,0,22,22,24,,,,1085.903669100022,None,1084.7192976000078,1085.9205822000222,s,1,永恒,k,1,0.6867057999770623,0.4508981999824755,xyh,m,20,2024_Apr_15_1439,mian,2021.2.3,59.83899718729389,
,,,,,,1,0,pic/flanker6.png,pic/flanker4.png,s,l,pic/AffRest2.png,,,,,,,,,,,,,,,,,,,,,,,,,0,1,1,1,0,23,23,37,,,,1089.054920900002,None,1087.8704603000078,1089.0717542000057,s,1,消沉,l,1,0.6548098000057507,0.48911289998795837,xyh,m,20,2024_Apr_15_1439,mian,2021.2.3,59.83899718729389,
,,,,,,1,0,pic/flanker6.png,pic/flanker4.png,s,l,pic/AffRest2.png,,,,,,,,,,,,,,,,,,,,,,,,,0,1,1,1,0,24,24,61,,,,1092.1232888000086,None,1090.9392134000082,1092.1399631999957,s,1,烦恼,l,1,0.7290003000234719,0.5479880000057165,xyh,m,20,2024_Apr_15_1439,mian,2021.2.3,59.83899718729389,
,,,,,,0,1,pic/flanker5.png,pic/flanker1.png,s,k,pic/AffRest2.png,,,,,,,,,,,,,,,,,,,,,,,,,0,1,1,1,0,25,25,72,,,,1095.2749922999938,None,1094.0902125000139,1095.291496699996,s,1,精致,k,1,0.5647849999950267,0.514102000015555,xyh,m,20,2024_Apr_15_1439,mian,2021.2.3,59.83899718729389,
,,,,,,0,0,pic/flanker6.png,pic/flanker2.png,a,l,pic/AffRest2.png,,,,,,,,,,,,,,,,,,,,,,,,,0,1,1,1,0,26,26,25,,,,1098.3261854000157,None,1097.1306805000058,1098.3430381999933,a,1,处罚,l,1,0.555194799992023,0.3695080000034068,xyh,m,20,2024_Apr_15_1439,mian,2021.2.3,59.83899718729389,
,,,,,,1,1,pic/flanker5.png,pic/flanker3.png,a,k,pic/AffRest2.png,,,,,,,,,,,,,,,,,,,,,,,,,0,1,1,1,0,27,27,60,,,,1101.0777403000102,None,1099.8935442999937,1101.0942896000051,a,1,优雅,k,1,0.47077230000286363,0.6892971000052057,xyh,m,20,2024_Apr_15_1439,mian,2021.2.3,59.83899718729389,
,,,,,,0,1,pic/flanker6.png,pic/flanker2.png,a,k,pic/AffRest2.png,,,,,,,,,,,,,,,,,,,,,,,,,0,1,1,1,0,28,28,66,,,,1104.162064700009,None,1102.9784689999942,1104.1791451000026,a,1,如愿,k,1,0.4953623999899719,0.3605120000138413,xyh,m,20,2024_Apr_15_1439,mian,2021.2.3,59.83899718729389,
,,,,,,1,0,pic/flanker5.png,pic/flanker3.png,a,l,pic/AffRest2.png,,,,,,,,,,,,,,,,,,,,,,,,,0,1,1,1,0,29,29,47,,,,1107.029829600011,None,1105.8467822000093,1107.0466314000078,a,1,失意,l,1,0.7893615999782924,0.47802879998926073,xyh,m,20,2024_Apr_15_1439,mian,2021.2.3,59.83899718729389,
,,,,,,1,1,pic/flanker5.png,pic/flanker3.png,a,k,pic/AffRest2.png,,,,,,,,,,,,,,,,,,,,,,,,,0,1,1,1,0,30,30,52,,,,1110.3155992999964,None,1109.1319282000186,1110.332623299997,a,1,豪放,k,1,0.5538759000191931,0.45650170001317747,xyh,m,20,2024_Apr_15_1439,mian,2021.2.3,59.83899718729389,
,,,,,,1,0,pic/flanker5.png,pic/flanker3.png,a,l,pic/AffRest2.png,,,,,,,,,,,,,,,,,,,,,,,,,0,1,1,1,0,31,31,63,,,,1113.3007384999946,None,1112.1163473000051,1113.3177793000068,a,1,慌忙,l,1,0.5027195999864489,0.5387422000057995,xyh,m,20,2024_Apr_15_1439,mian,2021.2.3,59.83899718729389,
,,,,,,1,0,pic/flanker5.png,pic/flanker3.png,a,l,pic/AffRest2.png,,,,,,,,,,,,,,,,,,,,,,,,,0,1,1,1,0,32,32,7,,,,1116.368818500021,None,1115.1848772999947,1116.3854983000201,a,1,争吵,l,1,0.8204529999929946,0.47740439997869544,xyh,m,20,2024_Apr_15_1439,mian,2021.2.3,59.83899718729389,
,,,,,,1,1,pic/flanker6.png,pic/flanker4.png,s,k,pic/AffRest2.png,,,,,,,,,,,,,,,,,,,,,,,,,0,1,1,1,0,33,33,38,,,,1119.6366586000076,None,1118.452924400015,1119.6533685000031,s,1,公平,k,1,0.5952971999940928,0.4952593999914825,xyh,m,20,2024_Apr_15_1439,mian,2021.2.3,59.83899718729389,
,,,,,,0,1,pic/flanker5.png,pic/flanker1.png,s,k,pic/AffRest2.png,,,,,,,,,,,,,,,,,,,,,,,,,0,1,1,1,0,34,34,64,,,,1122.655494400009,None,1121.471125800017,1122.6717556999938,s,1,生动,k,1,0.6561682000174187,0.3837591999908909,xyh,m,20,2024_Apr_15_1439,mian,2021.2.3,59.83899718729389,
,,,,,,0,0,pic/flanker5.png,pic/flanker1.png,s,l,pic/AffRest2.png,,,,,,,,,,,,,,,,,,,,,,,,,0,1,1,1,0,35,35,59,,,,1125.6238708000164,None,1124.4395068000013,1125.6404712999938,s,1,罚款,l,1,0.49463609998929314,0.35560319997603074,xyh,m,20,2024_Apr_15_1439,mian,2021.2.3,59.83899718729389,
,,,,,,0,1,pic/flanker5.png,pic/flanker1.png,s,k,pic/AffRest2.png,,,,,,,,,,,,,,,,,,,,,,,,,0,1,1,1,0,36,36,8,,,,1128.2920726000157,None,1127.1076128999994,1128.3079406000033,s,1,丰满,k,1,0.7209165000240318,0.31362300002365373,xyh,m,20,2024_Apr_15_1439,mian,2021.2.3,59.83899718729389,
,,,,,,1,1,pic/flanker6.png,pic/flanker4.png,s,k,pic/AffRest2.png,,,,,,,,,,,,,,,,,,,,,,,,,0,1,1,1,0,37,37,46,,,,1131.2098033000075,None,1130.0256770999986,1131.2264542000194,s,1,清秀,k,1,0.5205233999877237,0.46123980000265874,xyh,m,20,2024_Apr_15_1439,mian,2021.2.3,59.83899718729389,
,,,,,,1,0,pic/flanker5.png,pic/flanker3.png,a,l,pic/AffRest2.png,,,,,,,,,,,,,,,,,,,,,,,,,0,1,1,1,0,38,38,31,,,,1134.060997099994,None,1132.8767370000132,1134.0778389000043,a,1,怀疑,l,1,0.5514282999793068,0.42730110001866706,xyh,m,20,2024_Apr_15_1439,mian,2021.2.3,59.83899718729389,
,,,,,,1,1,pic/flanker6.png,pic/flanker4.png,s,k,pic/AffRest2.png,,,,,,,,,,,,,,,,,,,,,,,,,0,1,1,1,0,39,39,70,,,,1136.9626785000146,None,1135.7791634000023,1136.9791809000017,s,1,爽朗,k,1,0.46849130000919104,0.4924081999924965,xyh,m,20,2024_Apr_15_1439,mian,2021.2.3,59.83899718729389,
,,,,,,0,0,pic/flanker6.png,pic/flanker2.png,a,l,pic/AffRest2.png,,,,,,,,,,,,,,,,,,,,,,,,,0,1,1,1,0,40,40,1,,,,1139.9487111000053,None,1138.7639792000118,1139.9641429000185,a,1,焦躁,l,1,0.7478016999957617,0.41897529998095706,xyh,m,20,2024_Apr_15_1439,mian,2021.2.3,59.83899718729389,
,,,,,,0,1,pic/flanker6.png,pic/flanker2.png,a,k,pic/AffRest2.png,,,,,,,,,,,,,,,,,,,,,,,,,0,1,1,1,0,41,41,10,,,,1143.1328152000206,None,1141.948112300015,1143.149077900016,a,1,顽强,k,1,0.6729198999819346,0.3593327999988105,xyh,m,20,2024_Apr_15_1439,mian,2021.2.3,59.83899718729389,
,,,,,,1,1,pic/flanker6.png,pic/flanker4.png,s,k,pic/AffRest2.png,,,,,,,,,,,,,,,,,,,,,,,,,0,1,1,1,0,42,42,22,,,,1146.1330581000075,None,1144.950026400009,1146.1497459000093,s,1,秀丽,k,1,0.47858500000438653,0.426507500000298,xyh,m,20,2024_Apr_15_1439,mian,2021.2.3,59.83899718729389,
,,,,,,1,1,pic/flanker6.png,pic/flanker4.png,s,k,pic/AffRest2.png,,,,,,,,,,,,,,,,,,,,,,,,,0,1,1,1,0,43,43,62,,,,1149.0022298000113,None,1147.817578600021,1149.0193583000218,s,1,珍藏,k,1,0.47977330000139773,0.42925720001221634,xyh,m,20,2024_Apr_15_1439,mian,2021.2.3,59.83899718729389,
,,,,,,1,1,pic/flanker5.png,pic/flanker3.png,a,k,pic/AffRest2.png,,,,,,,,,,,,,,,,,,,,,,,,,0,1,1,1,0,44,44,28,,,,1151.7197314000223,None,1150.536998800002,1151.7368842000142,a,1,敬佩,k,1,0.425660799985053,0.42257759999483824,xyh,m,20,2024_Apr_15_1439,mian,2021.2.3,59.83899718729389,
,,,,,,0,1,pic/flanker5.png,pic/flanker1.png,s,k,pic/AffRest2.png,,,,,,,,,,,,,,,,,,,,,,,,,0,1,1,1,0,45,45,40,,,,1154.4387865000172,None,1153.253798699996,1154.454359299998,s,1,廉洁,k,1,0.4957579000038095,0.32878290000371635,xyh,m,20,2024_Apr_15_1439,mian,2021.2.3,59.83899718729389,
,,,,,,0,1,pic/flanker5.png,pic/flanker1.png,s,k,pic/AffRest2.png,,,,,,,,,,,,,,,,,,,,,,,,,0,1,1,1,0,46,46,0,,,,1157.2241828000115,None,1156.038552700018,1157.2390179000213,s,1,俊秀,k,1,0.4874130999960471,0.382064299978083,xyh,m,20,2024_Apr_15_1439,mian,2021.2.3,59.83899718729389,
,,,,,,0,1,pic/flanker6.png,pic/flanker2.png,a,k,pic/AffRest2.png,,,,,,,,,,,,,,,,,,,,,,,,,0,1,1,1,0,47,47,50,,,,1159.9746146000107,None,1158.7905641999969,1159.9912785000051,a,1,振作,k,1,0.6928910000133328,0.2666301999997813,xyh,m,20,2024_Apr_15_1439,mian,2021.2.3,59.83899718729389,
,,,,,,0,1,pic/flanker6.png,pic/flanker2.png,a,k,pic/AffRest2.png,,,,,,,,,,,,,,,,,,,,,,,,,0,1,1,1,0,48,48,2,,,,1162.9093254000181,None,1161.7250753999979,1162.925899199996,a,1,充裕,k,1,0.47379310001269914,0.3568430000159424,xyh,m,20,2024_Apr_15_1439,mian,2021.2.3,59.83899718729389,
,,,,,,1,0,pic/flanker5.png,pic/flanker3.png,a,l,pic/AffRest2.png,,,,,,,,,,,,,,,,,,,,,,,,,0,1,1,1,0,49,49,55,,,,1165.7109319000156,None,1164.527040999994,1165.726860499999,a,1,黑暗,l,1,0.5097225000208709,0.6627057000005152,xyh,m,20,2024_Apr_15_1439,mian,2021.2.3,59.83899718729389,
,,,,,,1,1,pic/flanker6.png,pic/flanker4.png,s,k,pic/AffRest2.png,,,,,,,,,,,,,,,,,,,,,,,,,0,1,1,1,0,50,50,30,,,,1168.8123457000183,None,1167.6278477000014,1168.8283105000155,s,1,享受,k,1,0.4487379000056535,0.6155751000042073,xyh,m,20,2024_Apr_15_1439,mian,2021.2.3,59.83899718729389,
,,,,,,0,0,pic/flanker5.png,pic/flanker1.png,s,l,pic/AffRest2.png,,,,,,,,,,,,,,,,,,,,,,,,,0,1,1,1,0,51,51,43,,,,1171.8970369000162,None,1170.7132212000142,1171.9141527000174,s,1,悲观,l,1,0.7962133999972139,0.40005729999393225,xyh,m,20,2024_Apr_15_1439,mian,2021.2.3,59.83899718729389,
,,,,,,1,1,pic/flanker5.png,pic/flanker3.png,a,k,pic/AffRest2.png,,,,,,,,,,,,,,,,,,,,,,,,,0,1,1,1,0,52,52,12,,,,1174.931989500008,None,1173.7477996000089,1174.9487867999997,a,1,前进,k,1,0.522188200004166,0.503463200002443,xyh,m,20,2024_Apr_15_1439,mian,2021.2.3,59.83899718729389,
,,,,,,0,0,pic/flanker6.png,pic/flanker2.png,a,l,pic/AffRest2.png,,,,,,,,,,,,,,,,,,,,,,,,,0,1,1,1,0,53,53,41,,,,1177.8338233999966,None,1176.649543300009,1177.8503479000065,a,1,嘲笑,l,1,0.5467854999878909,0.3360157000133768,xyh,m,20,2024_Apr_15_1439,mian,2021.2.3,59.83899718729389,
,,,,,,0,0,pic/flanker6.png,pic/flanker2.png,a,l,pic/AffRest2.png,,,,,,,,,,,,,,,,,,,,,,,,,0,1,1,1,0,54,54,57,,,,1180.5517478999973,None,1179.3667624999944,1180.5690390999953,a,1,孤单,l,1,0.8337027999805287,0.3790035000129137,xyh,m,20,2024_Apr_15_1439,mian,2021.2.3,59.83899718729389,
,,,,,,1,0,pic/flanker6.png,pic/flanker4.png,s,l,pic/AffRest2.png,,,,,,,,,,,,,,,,,,,,,,,,,0,1,1,1,0,55,55,45,,,,1183.7359078000009,None,1182.5525170000037,1183.753079600021,s,1,损害,l,1,0.5368702000123449,0.49855690001277253,xyh,m,20,2024_Apr_15_1439,mian,2021.2.3,59.83899718729389,
,,,,,,1,0,pic/flanker6.png,pic/flanker4.png,s,l,pic/AffRest2.png,,,,,,,,,,,,,,,,,,,,,,,,,0,1,1,1,0,56,56,5,,,,1186.8041097999958,None,1185.6211670000048,1186.8213610000093,s,1,浪费,l,1,1.0710207000083756,0.4874550999957137,xyh,m,20,2024_Apr_15_1439,mian,2021.2.3,59.83899718729389,
,,,,,,0,0,pic/flanker5.png,pic/flanker1.png,s,l,pic/AffRest2.png,,,,,,,,,,,,,,,,,,,,,,,,,0,1,1,1,0,57,57,19,,,,1190.3566689,None,1189.1725035000127,1190.373369500012,s,1,鲁莽,k,0,0.467042100004619,0.4656746000109706,xyh,m,20,2024_Apr_15_1439,mian,2021.2.3,59.83899718729389,
,,,,,,0,0,pic/flanker5.png,pic/flanker1.png,s,l,pic/AffRest2.png,,,,,,,,,,,,,,,,,,,,,,,,,0,1,1,1,0,58,58,67,,,,1193.2748853999947,None,1192.0902206000173,1193.2942724000022,s,1,忧虑,l,1,0.7461221000121441,0.3951715000148397,xyh,m,20,2024_Apr_15_1439,mian,2021.2.3,59.83899718729389,
,,,,,,0,0,pic/flanker6.png,pic/flanker2.png,a,l,pic/AffRest2.png,,,,,,,,,,,,,,,,,,,,,,,,,0,1,1,1,0,59,59,9,,,,1196.2760775000206,None,1195.0919270000013,1196.2929319000104,a,1,假冒,l,1,0.5274304999911692,0.4033482999948319,xyh,m,20,2024_Apr_15_1439,mian,2021.2.3,59.83899718729389,
,,,,,,1,0,pic/flanker6.png,pic/flanker4.png,s,l,pic/AffRest2.png,,,,,,,,,,,,,,,,,,,,,,,,,0,1,1,1,0,60,60,53,,,,1199.0780543000146,None,1197.893489900016,1199.0947022000037,s,1,禁止,l,1,0.485907700000098,0.47900059999665245,xyh,m,20,2024_Apr_15_1439,mian,2021.2.3,59.83899718729389,
,,,,,,0,1,pic/flanker6.png,pic/flanker2.png,a,k,pic/AffRest2.png,,,,,,,,,,,,,,,,,,,,,,,,,0,1,1,1,0,61,61,42,,,,1201.8624958000146,None,1200.67884030001,1201.8792485000158,a,1,正直,k,1,0.558929699996952,0.35927780001657084,xyh,m,20,2024_Apr_15_1439,mian,2021.2.3,59.83899718729389,
,,,,,,0,1,pic/flanker6.png,pic/flanker2.png,a,k,pic/AffRest2.png,,,,,,,,,,,,,,,,,,,,,,,,,0,1,1,1,0,62,62,34,,,,1204.7467097000044,None,1203.5633213999972,1204.7635410999937,a,1,畅销,k,1,0.5348495000216644,0.4181046999874525,xyh,m,20,2024_Apr_15_1439,mian,2021.2.3,59.83899718729389,
,,,,,,1,0,pic/flanker6.png,pic/flanker4.png,s,l,pic/AffRest2.png,,,,,,,,,,,,,,,,,,,,,,,,,0,1,1,1,0,63,63,77,,,,1207.7321079999965,None,1206.54785610002,1207.7488760999986,s,1,郁闷,l,1,0.6794227999926079,0.41225629998371005,xyh,m,20,2024_Apr_15_1439,mian,2021.2.3,59.83899718729389,
,,,,,,1,0,pic/flanker6.png,pic/flanker4.png,s,l,pic/AffRest2.png,,,,,,,,,,,,,,,,,,,,,,,,,0,1,1,1,0,64,64,21,,,,1210.6839974000177,None,1209.4992855000019,1210.700456599996,s,1,冷笑,l,1,0.6250081000034697,0.5791668000165373,xyh,m,20,2024_Apr_15_1439,mian,2021.2.3,59.83899718729389,
,,,,,,0,0,pic/flanker6.png,pic/flanker2.png,a,l,pic/AffRest2.png,,,,,,,,,,,,,,,,,,,,,,,,,0,1,1,1,0,65,65,33,,,,1213.7522371000086,None,1212.5673187000211,1213.7680626999936,a,1,堵塞,l,1,0.6415486000187229,0.37279129997477867,xyh,m,20,2024_Apr_15_1439,mian,2021.2.3,59.83899718729389,
,,,,,,1,0,pic/flanker5.png,pic/flanker3.png,a,l,pic/AffRest2.png,,,,,,,,,,,,,,,,,,,,,,,,,0,1,1,1,0,66,66,79,,,,1216.6871668999956,None,1215.5025460000033,1216.7038198999944,a,1,懒惰,l,1,0.6550453999952879,0.7587859999912325,xyh,m,20,2024_Apr_15_1439,mian,2021.2.3,59.83899718729389,
,,,,,,1,1,pic/flanker6.png,pic/flanker4.png,s,k,pic/AffRest2.png,,,,,,,,,,,,,,,,,,,,,,,,,0,1,1,1,0,67,67,78,,,,1220.0215353000094,None,1218.8378181000007,1220.0388643000042,s,1,瑰丽,k,1,0.6128041000047233,0.5453192999993917,xyh,m,20,2024_Apr_15_1439,mian,2021.2.3,59.83899718729389,
,,,,,,1,1,pic/flanker5.png,pic/flanker3.png,a,k,pic/AffRest2.png,,,,,,,,,,,,,,,,,,,,,,,,,0,1,1,1,0,68,68,68,,,,1223.0898990000132,None,1221.9063693000062,1223.1067997000064,a,1,鲜艳,k,1,1.192354399972828,0.5524368000042159,xyh,m,20,2024_Apr_15_1439,mian,2021.2.3,59.83899718729389,
,,,,,,1,1,pic/flanker5.png,pic/flanker3.png,a,k,pic/AffRest2.png,,,,,,,,,,,,,,,,,,,,,,,,,0,1,1,1,0,69,69,20,,,,1226.8585450999963,None,1225.6758076999977,1226.8753807000176,a,1,富丽,k,1,0.4175175999989733,0.5233362000144552,xyh,m,20,2024_Apr_15_1439,mian,2021.2.3,59.83899718729389,
,,,,,,0,1,pic/flanker6.png,pic/flanker2.png,a,k,pic/AffRest2.png,,,,,,,,,,,,,,,,,,,,,,,,,0,1,1,1,0,70,70,26,,,,1229.7764975000173,None,1228.592881699995,1229.7934288000106,a,1,赞成,k,1,0.5578629999945406,0.3852991000167094,xyh,m,20,2024_Apr_15_1439,mian,2021.2.3,59.83899718729389,
,,,,,,0,0,pic/flanker6.png,pic/flanker2.png,a,l,pic/AffRest2.png,,,,,,,,,,,,,,,,,,,,,,,,,0,1,1,1,0,71,71,65,,,,1232.7778495000093,None,1231.5941750000056,1232.7939147000143,a,1,逃避,l,1,0.5224064000067301,0.5315915000101086,xyh,m,20,2024_Apr_15_1439,mian,2021.2.3,59.83899718729389,
,,,,,,1,1,pic/flanker6.png,pic/flanker4.png,s,k,pic/AffRest2.png,,,,,,,,,,,,,,,,,,,,,,,,,0,1,1,1,0,72,72,54,,,,1235.819366700016,None,1234.628143800015,1235.8300593000022,s,1,舒畅,k,1,0.47631349999574013,0.44470690001617186,xyh,m,20,2024_Apr_15_1439,mian,2021.2.3,59.83899718729389,
,,,,,,1,0,pic/flanker6.png,pic/flanker4.png,s,l,pic/AffRest2.png,,,,,,,,,,,,,,,,,,,,,,,,,0,1,1,1,0,73,73,29,,,,1238.6646640000108,None,1237.48025350002,1238.6811197000206,s,1,沮丧,l,1,0.5045309000124689,0.4332767000014428,xyh,m,20,2024_Apr_15_1439,mian,2021.2.3,59.83899718729389,
,,,,,,0,0,pic/flanker5.png,pic/flanker1.png,s,l,pic/AffRest2.png,,,,,,,,,,,,,,,,,,,,,,,,,0,1,1,1,0,74,74,35,,,,1241.4993755000178,None,1240.3149447000178,1241.5160497000034,s,1,闷热,l,1,0.6056876000075135,0.3663868999865372,xyh,m,20,2024_Apr_15_1439,mian,2021.2.3,59.83899718729389,
,,,,,,1,0,pic/flanker5.png,pic/flanker3.png,a,l,pic/AffRest2.png,,,,,,,,,,,,,,,,,,,,,,,,,0,1,1,1,0,75,75,23,,,,1244.3008502000012,None,1243.1167876000109,1244.3168799999985,a,1,撒谎,l,1,0.4909208999888506,0.44187170002260245,xyh,m,20,2024_Apr_15_1439,mian,2021.2.3,59.83899718729389,
,,,,,,0,0,pic/flanker5.png,pic/flanker1.png,s,l,pic/AffRest2.png,,,,,,,,,,,,,,,,,,,,,,,,,0,1,1,1,0,76,76,51,,,,1247.2525491999986,None,1246.067321200011,1247.2693100000033,s,1,丢失,l,1,0.5550482999824453,0.36101049999706447,xyh,m,20,2024_Apr_15_1439,mian,2021.2.3,59.83899718729389,
,,,,,,1,1,pic/flanker5.png,pic/flanker3.png,a,k,pic/AffRest2.png,,,,,,,,,,,,,,,,,,,,,,,,,0,1,1,1,0,77,77,44,,,,1250.088851700013,None,1248.9028843000124,1250.1038370000024,a,1,卓越,k,1,0.594311499997275,0.42722979999962263,xyh,m,20,2024_Apr_15_1439,mian,2021.2.3,59.83899718729389,
,,,,,,0,1,pic/flanker5.png,pic/flanker1.png,s,k,pic/AffRest2.png,,,,,,,,,,,,,,,,,,,,,,,,,0,1,1,1,0,78,78,56,,,,1252.955147200002,None,1251.7706312999944,1252.9719908999978,s,1,富足,k,1,0.5708076999871992,0.35632089999853633,xyh,m,20,2024_Apr_15_1439,mian,2021.2.3,59.83899718729389,
,,,,,,0,0,pic/flanker6.png,pic/flanker2.png,a,l,pic/AffRest2.png,,,,,,,,,,,,,,,,,,,,,,,,,0,1,1,1,0,79,79,49,,,,1255.8064844000037,None,1254.6233513000188,1255.8232902000018,a,1,心慌,l,1,0.5328945000073873,0.3235837999964133,xyh,m,20,2024_Apr_15_1439,mian,2021.2.3,59.83899718729389,
,,,,,,,,,,,,pic/AffRest2.png,,,,,,,,,,,,,,,,,,,,,,,,,0,1,1,1,,,,,,,,,,,,,,,,,,,xyh,m,20,2024_Apr_15_1439,mian,2021.2.3,59.83899718729389,
,,,,,,1,0,pic/flanker5.png,pic/flanker3.png,a,l,pic/AffRest3.png,,,,,,,,,,,,,,,,,,,,,,,,,0,2,2,2,0,0,0,63,,,,1458.876890500018,None,1457.688604199997,1458.8939384999976,a,1,争吵,l,1,0.6224554000073113,0.45269969999208115,xyh,m,20,2024_Apr_15_1439,mian,2021.2.3,59.83899718729389,
,,,,,,0,0,pic/flanker5.png,pic/flanker1.png,s,l,pic/AffRest3.png,,,,,,,,,,,,,,,,,,,,,,,,,0,2,2,2,0,1,1,59,,,,1461.9119637999975,None,1460.7276106000063,1461.9285387000127,s,1,胡涂,l,1,0.48890129997744225,0.3504802999959793,xyh,m,20,2024_Apr_15_1439,mian,2021.2.3,59.83899718729389,
,,,,,,0,0,pic/flanker5.png,pic/flanker1.png,s,l,pic/AffRest3.png,,,,,,,,,,,,,,,,,,,,,,,,,0,2,2,2,0,2,2,11,,,,1464.6300511000154,None,1463.4456513000187,1464.646493200009,s,1,罚款,l,1,0.5548219000047538,0.4159303999913391,xyh,m,20,2024_Apr_15_1439,mian,2021.2.3,59.83899718729389,
,,,,,,1,1,pic/flanker5.png,pic/flanker3.png,a,k,pic/AffRest3.png,,,,,,,,,,,,,,,,,,,,,,,,,0,2,2,2,0,3,3,52,,,,1467.58081460002,None,1466.3972829999984,1467.598207300005,a,1,丰满,k,1,0.526399099995615,0.5600452999933623,xyh,m,20,2024_Apr_15_1439,mian,2021.2.3,59.83899718729389,
,,,,,,0,0,pic/flanker6.png,pic/flanker2.png,a,l,pic/AffRest3.png,,,,,,,,,,,,,,,,,,,,,,,,,0,2,2,2,0,4,4,17,,,,1470.6829371000058,None,1469.4988052000117,1470.6994274000172,a,1,嘲笑,l,1,0.41705950000323355,0.38962659999378957,xyh,m,20,2024_Apr_15_1439,mian,2021.2.3,59.83899718729389,
,,,,,,1,0,pic/flanker6.png,pic/flanker4.png,s,l,pic/AffRest3.png,,,,,,,,,,,,,,,,,,,,,,,,,0,2,2,2,0,5,5,69,,,,1473.5171346999996,None,1472.3335770000122,1473.5340306000144,s,1,自卑,l,1,0.5290114000090398,0.44953039998654276,xyh,m,20,2024_Apr_15_1439,mian,2021.2.3,59.83899718729389,
,,,,,,0,1,pic/flanker5.png,pic/flanker1.png,s,k,pic/AffRest3.png,,,,,,,,,,,,,,,,,,,,,,,,,0,2,2,2,0,6,6,8,,,,1476.5187252000032,None,1475.3351932000078,1476.534877500002,s,1,充裕,k,1,0.5245522999903187,0.3676032999937888,xyh,m,20,2024_Apr_15_1439,mian,2021.2.3,59.83899718729389,
,,,,,,0,0,pic/flanker5.png,pic/flanker1.png,s,l,pic/AffRest3.png,,,,,,,,,,,,,,,,,,,,,,,,,0,2,2,2,0,7,7,75,,,,1479.2874961000052,None,1478.1031345000083,1479.303894600016,s,1,闷热,l,1,0.6572643999825232,0.3447823000024073,xyh,m,20,2024_Apr_15_1439,mian,2021.2.3,59.83899718729389,
,,,,,,1,1,pic/flanker6.png,pic/flanker4.png,s,k,pic/AffRest3.png,,,,,,,,,,,,,,,,,,,,,,,,,0,2,2,2,0,8,8,30,,,,1482.1054849000066,None,1480.9219613000168,1482.1223637000076,s,1,豪放,k,1,0.7458326000196394,0.44169370000599883,xyh,m,20,2024_Apr_15_1439,mian,2021.2.3,59.83899718729389,
,,,,,,0,1,pic/flanker5.png,pic/flanker1.png,s,k,pic/AffRest3.png,,,,,,,,,,,,,,,,,,,,,,,,,0,2,2,2,0,9,9,64,,,,1485.2580335999955,None,1484.0734234999982,1485.2736563000071,s,1,畅销,k,1,0.4796397000027355,0.3187644999998156,xyh,m,20,2024_Apr_15_1439,mian,2021.2.3,59.83899718729389,
,,,,,,1,0,pic/flanker6.png,pic/flanker4.png,s,l,pic/AffRest3.png,,,,,,,,,,,,,,,,,,,,,,,,,0,2,2,2,0,10,10,53,,,,1487.87496310001,None,1486.69029150001,1487.8918192000128,s,1,轻率,l,1,1.115856700023869,0.4586589999962598,xyh,m,20,2024_Apr_15_1439,mian,2021.2.3,59.83899718729389,
,,,,,,0,1,pic/flanker6.png,pic/flanker2.png,a,k,pic/AffRest3.png,,,,,,,,,,,,,,,,,,,,,,,,,0,2,2,2,0,11,11,34,,,,1491.3266287000151,None,1490.1424295000033,1491.3432149,a,1,卓越,l,0,0.5556340000184719,0.4318716999841854,xyh,m,20,2024_Apr_15_1439,mian,2021.2.3,59.83899718729389,
,,,,,,1,1,pic/flanker6.png,pic/flanker4.png,s,k,pic/AffRest3.png,,,,,,,,,,,,,,,,,,,,,,,,,0,2,2,2,0,12,12,38,,,,1494.3441819,None,1493.1601821999939,1494.360676500015,s,1,正直,k,1,0.5790044000023045,0.508620400010841,xyh,m,20,2024_Apr_15_1439,mian,2021.2.3,59.83899718729389,
,,,,,,1,0,pic/flanker5.png,pic/flanker3.png,a,l,pic/AffRest3.png,,,,,,,,,,,,,,,,,,,,,,,,,0,2,2,2,0,13,13,55,,,,1497.3964939000143,None,1496.2118348999938,1497.4130254000193,a,1,郁闷,l,1,0.5523830000020098,0.4543392000196036,xyh,m,20,2024_Apr_15_1439,mian,2021.2.3,59.83899718729389,
,,,,,,0,0,pic/flanker5.png,pic/flanker1.png,s,l,pic/AffRest3.png,,,,,,,,,,,,,,,,,,,,,,,,,0,2,2,2,0,14,14,51,,,,1500.2807457000017,None,1499.0967609999934,1500.2980196000135,s,1,排斥,l,1,0.6060929000086617,0.32911930000409484,xyh,m,20,2024_Apr_15_1439,mian,2021.2.3,59.83899718729389,
,,,,,,0,0,pic/flanker6.png,pic/flanker2.png,a,l,pic/AffRest3.png,,,,,,,,,,,,,,,,,,,,,,,,,0,2,2,2,0,15,15,25,,,,1503.2495129000163,None,1502.0643640000199,1503.2688378000166,a,1,禁止,l,1,0.8083393000124488,0.4973933000001125,xyh,m,20,2024_Apr_15_1439,mian,2021.2.3,59.83899718729389,
,,,,,,0,0,pic/flanker6.png,pic/flanker2.png,a,l,pic/AffRest3.png,,,,,,,,,,,,,,,,,,,,,,,,,0,2,2,2,0,16,16,73,,,,1506.5343158000032,None,1505.3505670000159,1506.550752500014,a,1,心慌,l,1,0.5239351999771316,0.32737210000050254,xyh,m,20,2024_Apr_15_1439,mian,2021.2.3,59.83899718729389,
,,,,,,1,0,pic/flanker6.png,pic/flanker4.png,s,l,pic/AffRest3.png,,,,,,,,,,,,,,,,,,,,,,,,,0,2,2,2,0,17,17,45,,,,1509.2026155000203,None,1508.0180681000056,1509.2187715000182,s,1,烦恼,l,1,0.4674875999917276,0.4323048999940511,xyh,m,20,2024_Apr_15_1439,mian,2021.2.3,59.83899718729389,
,,,,,,1,1,pic/flanker5.png,pic/flanker3.png,a,k,pic/AffRest3.png,,,,,,,,,,,,,,,,,,,,,,,,,0,2,2,2,0,18,18,76,,,,1511.9872081000067,None,1510.8033780000114,1512.0038242000155,a,1,前进,k,1,0.4735205000033602,0.4715275000198744,xyh,m,20,2024_Apr_15_1439,mian,2021.2.3,59.83899718729389,
,,,,,,1,1,pic/flanker6.png,pic/flanker4.png,s,k,pic/AffRest3.png,,,,,,,,,,,,,,,,,,,,,,,,,0,2,2,2,0,19,19,14,,,,1514.805271899997,None,1513.6209934999933,1514.8216866000148,s,1,雄厚,k,1,0.6093664999934845,0.4501399000000674,xyh,m,20,2024_Apr_15_1439,mian,2021.2.3,59.83899718729389,
,,,,,,1,0,pic/flanker6.png,pic/flanker4.png,s,l,pic/AffRest3.png,,,,,,,,,,,,,,,,,,,,,,,,,0,2,2,2,0,20,20,61,,,,1517.7570899999992,None,1516.5651174999948,1517.7734965000127,s,1,焦躁,l,1,0.6296833000087645,0.4663650000002235,xyh,m,20,2024_Apr_15_1439,mian,2021.2.3,59.83899718729389,
,,,,,,0,1,pic/flanker5.png,pic/flanker1.png,s,k,pic/AffRest3.png,,,,,,,,,,,,,,,,,,,,,,,,,0,2,2,2,0,21,21,0,,,,1520.7252603000088,None,1519.5412217999983,1520.741230500018,s,1,赞成,k,1,0.5337871999945492,0.5991466000268701,xyh,m,20,2024_Apr_15_1439,mian,2021.2.3,59.83899718729389,
,,,,,,0,1,pic/flanker6.png,pic/flanker2.png,a,k,pic/AffRest3.png,,,,,,,,,,,,,,,,,,,,,,,,,0,2,2,2,0,22,22,58,,,,1523.6932510000188,None,1522.5085757000197,1523.709228599997,a,1,瑰丽,k,1,0.47857809998095036,0.26746979999006726,xyh,m,20,2024_Apr_15_1439,mian,2021.2.3,59.83899718729389,
,,,,,,0,1,pic/flanker6.png,pic/flanker2.png,a,k,pic/AffRest3.png,,,,,,,,,,,,,,,,,,,,,,,,,0,2,2,2,0,23,23,50,,,,1526.3109356000205,None,1525.1268159000028,1526.327490399999,a,1,精致,k,1,0.506855000014184,0.4249560000025667,xyh,m,20,2024_Apr_15_1439,mian,2021.2.3,59.83899718729389,
,,,,,,1,1,pic/flanker6.png,pic/flanker4.png,s,k,pic/AffRest3.png,,,,,,,,,,,,,,,,,,,,,,,,,0,2,2,2,0,24,24,22,,,,1529.1126323000062,None,1527.9280621999933,1529.129370700015,s,1,公平,k,1,0.5521088000095915,0.43009759997949004,xyh,m,20,2024_Apr_15_1439,mian,2021.2.3,59.83899718729389,
,,,,,,0,0,pic/flanker5.png,pic/flanker1.png,s,l,pic/AffRest3.png,,,,,,,,,,,,,,,,,,,,,,,,,0,2,2,2,0,25,25,19,,,,1531.9178750000137,None,1530.7298505000072,1531.9302849000087,s,1,丢失,l,1,0.8230997000064235,0.42257819999940693,xyh,m,20,2024_Apr_15_1439,mian,2021.2.3,59.83899718729389,
,,,,,,1,0,pic/flanker5.png,pic/flanker3.png,a,l,pic/AffRest3.png,,,,,,,,,,,,,,,,,,,,,,,,,0,2,2,2,0,26,26,47,,,,1535.048522099998,None,1533.8639835000213,1535.0657336000004,a,1,撒谎,l,1,0.542612100020051,0.447906299988972,xyh,m,20,2024_Apr_15_1439,mian,2021.2.3,59.83899718729389,
,,,,,,1,1,pic/flanker5.png,pic/flanker3.png,a,k,pic/AffRest3.png,,,,,,,,,,,,,,,,,,,,,,,,,0,2,2,2,0,27,27,44,,,,1537.9506266000099,None,1536.7654892000137,1537.969240300008,a,1,旺盛,k,1,0.505730200005928,0.5643035999964923,xyh,m,20,2024_Apr_15_1439,mian,2021.2.3,59.83899718729389,
,,,,,,0,1,pic/flanker6.png,pic/flanker2.png,a,k,pic/AffRest3.png,,,,,,,,,,,,,,,,,,,,,,,,,0,2,2,2,0,28,28,66,,,,1541.051704500016,None,1539.8679412000056,1541.0687931000139,a,1,富足,k,1,0.6078634999867063,0.3750354000076186,xyh,m,20,2024_Apr_15_1439,mian,2021.2.3,59.83899718729389,
,,,,,,0,0,pic/flanker5.png,pic/flanker1.png,s,l,pic/AffRest3.png,,,,,,,,,,,,,,,,,,,,,,,,,0,2,2,2,0,29,29,43,,,,1543.8534880999941,None,1542.6695242999995,1543.8700140000146,s,1,孤单,l,1,0.5650847000069916,0.4293166999996174,xyh,m,20,2024_Apr_15_1439,mian,2021.2.3,59.83899718729389,
,,,,,,1,0,pic/flanker6.png,pic/flanker4.png,s,l,pic/AffRest3.png,,,,,,,,,,,,,,,,,,,,,,,,,0,2,2,2,0,30,30,21,,,,1546.721855700016,None,1545.5370657000167,1546.738036900002,s,1,懒惰,l,1,0.9534693000023253,0.46121119998861104,xyh,m,20,2024_Apr_15_1439,mian,2021.2.3,59.83899718729389,
,,,,,,1,0,pic/flanker6.png,pic/flanker4.png,s,l,pic/AffRest3.png,,,,,,,,,,,,,,,,,,,,,,,,,0,2,2,2,0,31,31,77,,,,1550.006850100006,None,1548.8224738000135,1550.0229661000194,s,1,缺乏,l,1,0.6863421000016388,0.48229869999340735,xyh,m,20,2024_Apr_15_1439,mian,2021.2.3,59.83899718729389,
,,,,,,0,1,pic/flanker6.png,pic/flanker2.png,a,k,pic/AffRest3.png,,,,,,,,,,,,,,,,,,,,,,,,,0,2,2,2,0,32,32,2,,,,1553.1083583,None,1551.9241785000195,1553.1245557999937,a,1,如愿,k,1,0.5412703999900259,0.3322510000143666,xyh,m,20,2024_Apr_15_1439,mian,2021.2.3,59.83899718729389,
,,,,,,0,1,pic/flanker6.png,pic/flanker2.png,a,k,pic/AffRest3.png,,,,,,,,,,,,,,,,,,,,,,,,,0,2,2,2,0,33,33,26,,,,1555.960217600019,None,1554.7756588000047,1555.9763544000161,a,1,清秀,k,1,0.5693407999933697,0.364116600016132,xyh,m,20,2024_Apr_15_1439,mian,2021.2.3,59.83899718729389,
,,,,,,1,1,pic/flanker5.png,pic/flanker3.png,a,k,pic/AffRest3.png,,,,,,,,,,,,,,,,,,,,,,,,,0,2,2,2,0,34,34,36,,,,1558.7779661999957,None,1557.5935852999974,1558.7942238000105,a,1,享受,k,1,0.5313932999852113,0.6632809000147972,xyh,m,20,2024_Apr_15_1439,mian,2021.2.3,59.83899718729389,
,,,,,,0,1,pic/flanker5.png,pic/flanker1.png,s,k,pic/AffRest3.png,,,,,,,,,,,,,,,,,,,,,,,,,0,2,2,2,0,35,35,48,,,,1561.895947800018,None,1560.7119878999947,1561.912593999994,s,1,生动,k,1,0.4509490999917034,0.4392262000183109,xyh,m,20,2024_Apr_15_1439,mian,2021.2.3,59.83899718729389,
,,,,,,0,1,pic/flanker6.png,pic/flanker2.png,a,k,pic/AffRest3.png,,,,,,,,,,,,,,,,,,,,,,,,,0,2,2,2,0,36,36,42,,,,1564.746833400015,None,1563.5624794000178,1564.7639494000177,a,1,珍藏,k,1,0.6078379999962635,0.38169860001653433,xyh,m,20,2024_Apr_15_1439,mian,2021.2.3,59.83899718729389,
,,,,,,0,0,pic/flanker6.png,pic/flanker2.png,a,l,pic/AffRest3.png,,,,,,,,,,,,,,,,,,,,,,,,,0,2,2,2,0,37,37,57,,,,1567.7659213000152,None,1566.581113399996,1567.7818511000078,a,1,厌恶,l,1,0.5178749000187963,0.3256317999912426,xyh,m,20,2024_Apr_15_1439,mian,2021.2.3,59.83899718729389,
,,,,,,0,0,pic/flanker6.png,pic/flanker2.png,a,l,pic/AffRest3.png,,,,,,,,,,,,,,,,,,,,,,,,,0,2,2,2,0,38,38,1,,,,1570.433665699995,None,1569.2519215000211,1570.4663931000105,a,1,别扭,l,1,0.8445981999975629,0.3160708999785129,xyh,m,20,2024_Apr_15_1439,mian,2021.2.3,59.83899718729389,
,,,,,,0,0,pic/flanker5.png,pic/flanker1.png,s,l,pic/AffRest3.png,,,,,,,,,,,,,,,,,,,,,,,,,0,2,2,2,0,39,39,27,,,,1573.6191898999969,None,1572.4343962999992,1573.6359344999946,s,1,消沉,l,1,0.6544602000212763,0.4386072999914177,xyh,m,20,2024_Apr_15_1439,mian,2021.2.3,59.83899718729389,
,,,,,,1,1,pic/flanker6.png,pic/flanker4.png,s,k,pic/AffRest3.png,,,,,,,,,,,,,,,,,,,,,,,,,0,2,2,2,0,40,40,46,,,,1576.5371329000045,None,1575.3526777999941,1576.5536138000025,s,1,热切,k,1,0.539529700006824,0.571887300000526,xyh,m,20,2024_Apr_15_1439,mian,2021.2.3,59.83899718729389,
,,,,,,0,0,pic/flanker6.png,pic/flanker2.png,a,l,pic/AffRest3.png,,,,,,,,,,,,,,,,,,,,,,,,,0,2,2,2,0,41,41,65,,,,1579.471600799996,None,1578.291764900001,1579.5053283000016,a,1,黑暗,l,1,0.5686578000022564,0.32938010001089424,xyh,m,20,2024_Apr_15_1439,mian,2021.2.3,59.83899718729389,
,,,,,,0,1,pic/flanker5.png,pic/flanker1.png,s,k,pic/AffRest3.png,,,,,,,,,,,,,,,,,,,,,,,,,0,2,2,2,0,42,42,16,,,,1582.3893788999994,None,1581.2056634000037,1582.4064356000163,s,1,诚恳,k,1,0.5043585999810603,0.4455181000230368,xyh,m,20,2024_Apr_15_1439,mian,2021.2.3,59.83899718729389,
,,,,,,1,0,pic/flanker5.png,pic/flanker3.png,a,l,pic/AffRest3.png,,,,,,,,,,,,,,,,,,,,,,,,,0,2,2,2,0,43,43,71,,,,1585.3741257000074,None,1584.193147700018,1585.4087242000096,a,1,杂乱,l,1,0.5265619000128936,0.4257825000095181,xyh,m,20,2024_Apr_15_1439,mian,2021.2.3,59.83899718729389,
,,,,,,0,1,pic/flanker5.png,pic/flanker1.png,s,k,pic/AffRest3.png,,,,,,,,,,,,,,,,,,,,,,,,,0,2,2,2,0,44,44,40,,,,1588.2421101000218,None,1587.0589509000129,1588.2593480000214,s,1,奉献,k,1,0.5319643999973778,0.4700991999998223,xyh,m,20,2024_Apr_15_1439,mian,2021.2.3,59.83899718729389,
,,,,,,1,1,pic/flanker6.png,pic/flanker4.png,s,k,pic/AffRest3.png,,,,,,,,,,,,,,,,,,,,,,,,,0,2,2,2,0,45,45,78,,,,1591.1279829000123,None,1589.9434923999943,1591.1447691000067,s,1,优雅,k,1,0.5336027999874204,0.5084162999992259,xyh,m,20,2024_Apr_15_1439,mian,2021.2.3,59.83899718729389,
,,,,,,1,1,pic/flanker5.png,pic/flanker3.png,a,k,pic/AffRest3.png,,,,,,,,,,,,,,,,,,,,,,,,,0,2,2,2,0,46,46,12,,,,1594.045694200002,None,1592.8614004999981,1594.0631237000052,a,1,廉洁,k,1,0.4975031000212766,0.4534047999768518,xyh,m,20,2024_Apr_15_1439,mian,2021.2.3,59.83899718729389,
,,,,,,0,0,pic/flanker5.png,pic/flanker1.png,s,l,pic/AffRest3.png,,,,,,,,,,,,,,,,,,,,,,,,,0,2,2,2,0,47,47,3,,,,1596.813512099994,None,1595.6292293000151,1596.8309576000029,s,1,鲁莽,l,1,0.4937340000178665,0.3012084999936633,xyh,m,20,2024_Apr_15_1439,mian,2021.2.3,59.83899718729389,
,,,,,,1,0,pic/flanker5.png,pic/flanker3.png,a,l,pic/AffRest3.png,,,,,,,,,,,,,,,,,,,,,,,,,0,2,2,2,0,48,48,7,,,,1599.4151358999952,None,1598.2309828000143,1599.4320523000206,a,1,落后,l,1,0.7418062000069767,0.4544152000162285,xyh,m,20,2024_Apr_15_1439,mian,2021.2.3,59.83899718729389,
,,,,,,0,0,pic/flanker6.png,pic/flanker2.png,a,l,pic/AffRest3.png,,,,,,,,,,,,,,,,,,,,,,,,,0,2,2,2,0,49,49,41,,,,1602.5326789999963,None,1601.3487115000025,1602.549666100007,a,1,处罚,l,1,0.7813738000113517,0.3476820000214502,xyh,m,20,2024_Apr_15_1439,mian,2021.2.3,59.83899718729389,
,,,,,,1,0,pic/flanker5.png,pic/flanker3.png,a,l,pic/AffRest3.png,,,,,,,,,,,,,,,,,,,,,,,,,0,2,2,2,0,50,50,39,,,,1605.5517246999952,None,1604.3673670999997,1605.5687883000064,a,1,沮丧,l,1,0.6478457000048365,0.6534943000006024,xyh,m,20,2024_Apr_15_1439,mian,2021.2.3,59.83899718729389,
,,,,,,1,1,pic/flanker5.png,pic/flanker3.png,a,k,pic/AffRest3.png,,,,,,,,,,,,,,,,,,,,,,,,,0,2,2,2,0,51,51,20,,,,1608.8866178000171,None,1607.7025663999957,1608.9031075999956,a,1,留恋,l,0,0.9992146999866236,0.4052724999783095,xyh,m,20,2024_Apr_15_1439,mian,2021.2.3,59.83899718729389,
,,,,,,1,1,pic/flanker5.png,pic/flanker3.png,a,k,pic/AffRest3.png,,,,,,,,,,,,,,,,,,,,,,,,,0,2,2,2,0,52,52,68,,,,1612.1725383000157,None,1610.9870022000105,1612.188456200005,a,1,鲜艳,k,1,0.48212669999338686,0.48681370000122115,xyh,m,20,2024_Apr_15_1439,mian,2021.2.3,59.83899718729389,
,,,,,,0,1,pic/flanker5.png,pic/flanker1.png,s,k,pic/AffRest3.png,,,,,,,,,,,,,,,,,,,,,,,,,0,2,2,2,0,53,53,56,,,,1615.073319600022,None,1613.888165900018,1615.0895560000208,s,1,典雅,k,1,0.5006972000119276,0.3884435999789275,xyh,m,20,2024_Apr_15_1439,mian,2021.2.3,59.83899718729389,
,,,,,,0,1,pic/flanker6.png,pic/flanker2.png,a,k,pic/AffRest3.png,,,,,,,,,,,,,,,,,,,,,,,,,0,2,2,2,0,54,54,74,,,,1617.941092699999,None,1616.757014200004,1617.958132300002,a,1,羡慕,k,1,0.4752638000063598,0.30809510001563467,xyh,m,20,2024_Apr_15_1439,mian,2021.2.3,59.83899718729389,
,,,,,,1,0,pic/flanker5.png,pic/flanker3.png,a,l,pic/AffRest3.png,,,,,,,,,,,,,,,,,,,,,,,,,0,2,2,2,0,55,55,79,,,,1620.7427966000105,None,1619.5580046999967,1620.7597800999938,a,1,冷笑,l,1,0.5630830000154674,0.40591160001349635,xyh,m,20,2024_Apr_15_1439,mian,2021.2.3,59.83899718729389,
,,,,,,1,1,pic/flanker6.png,pic/flanker4.png,s,k,pic/AffRest3.png,,,,,,,,,,,,,,,,,,,,,,,,,0,2,2,2,0,56,56,6,,,,1623.6272293000075,None,1622.4432092000206,1623.643978100008,s,1,永恒,k,1,0.4949913999880664,0.4840558999858331,xyh,m,20,2024_Apr_15_1439,mian,2021.2.3,59.83899718729389,
,,,,,,0,1,pic/flanker6.png,pic/flanker2.png,a,k,pic/AffRest3.png,,,,,,,,,,,,,,,,,,,,,,,,,0,2,2,2,0,57,57,18,,,,1626.4626103000192,None,1625.2780416000169,1626.4788141000026,a,1,舒畅,k,1,0.43862810000428,0.37686970000504516,xyh,m,20,2024_Apr_15_1439,mian,2021.2.3,59.83899718729389,
,,,,,,1,0,pic/flanker5.png,pic/flanker3.png,a,l,pic/AffRest3.png,,,,,,,,,,,,,,,,,,,,,,,,,0,2,2,2,0,58,58,23,,,,1629.1302750000032,None,1627.9454480000131,1629.1467286999978,a,1,浪费,l,1,0.8502508000237867,0.5086817000119481,xyh,m,20,2024_Apr_15_1439,mian,2021.2.3,59.83899718729389,
,,,,,,1,1,pic/flanker5.png,pic/flanker3.png,a,k,pic/AffRest3.png,,,,,,,,,,,,,,,,,,,,,,,,,0,2,2,2,0,59,59,28,,,,1632.3650798000162,None,1631.180766000005,1632.381880800007,a,1,有利,k,1,0.524967099976493,0.45096979997470044,xyh,m,20,2024_Apr_15_1439,mian,2021.2.3,59.83899718729389,
,,,,,,1,1,pic/flanker5.png,pic/flanker3.png,a,k,pic/AffRest3.png,,,,,,,,,,,,,,,,,,,,,,,,,0,2,2,2,0,60,60,4,,,,1635.3501520999998,None,1634.165477100003,1635.3669966000016,a,1,富丽,k,1,0.4590310000057798,0.46643390000099316,xyh,m,20,2024_Apr_15_1439,mian,2021.2.3,59.83899718729389,
,,,,,,1,1,pic/flanker6.png,pic/flanker4.png,s,k,pic/AffRest3.png,,,,,,,,,,,,,,,,,,,,,,,,,0,2,2,2,0,61,61,70,,,,1638.2513962000085,None,1637.0684301000147,1638.268054300017,s,1,吉祥,k,1,0.5039455999794882,0.44155369998770766,xyh,m,20,2024_Apr_15_1439,mian,2021.2.3,59.83899718729389,
,,,,,,1,0,pic/flanker5.png,pic/flanker3.png,a,l,pic/AffRest3.png,,,,,,,,,,,,,,,,,,,,,,,,,0,2,2,2,0,62,62,31,,,,1641.0198324999947,None,1639.837999100011,1641.0520364000113,a,1,伤心,l,1,0.5274002999940421,0.4185820999846328,xyh,m,20,2024_Apr_15_1439,mian,2021.2.3,59.83899718729389,
,,,,,,0,0,pic/flanker6.png,pic/flanker2.png,a,l,pic/AffRest3.png,,,,,,,,,,,,,,,,,,,,,,,,,0,2,2,2,0,63,63,9,,,,1643.8876483000058,None,1642.7035187000001,1643.904440800019,a,1,悲观,l,1,0.5390506000258029,0.3651663000055123,xyh,m,20,2024_Apr_15_1439,mian,2021.2.3,59.83899718729389,
,,,,,,1,0,pic/flanker6.png,pic/flanker4.png,s,l,pic/AffRest3.png,,,,,,,,,,,,,,,,,,,,,,,,,0,2,2,2,0,64,64,29,,,,1646.7726759000216,None,1645.58855830002,1646.7886230000004,s,1,怀疑,k,0,0.4196349999983795,0.46176020000712015,xyh,m,20,2024_Apr_15_1439,mian,2021.2.3,59.83899718729389,
,,,,,,1,1,pic/flanker6.png,pic/flanker4.png,s,k,pic/AffRest3.png,,,,,,,,,,,,,,,,,,,,,,,,,0,2,2,2,0,65,65,62,,,,1649.6736305000086,None,1648.4900653000223,1649.6906323000148,s,1,顽强,k,1,0.41174039998441003,0.656414400000358,xyh,m,20,2024_Apr_15_1439,mian,2021.2.3,59.83899718729389,
