target,反应类型,条件,truetarget,CorAns,Position,congruency,AffValue,flankerPic,targetPic,corAnsF,corAnsA,RestPic,returnPractice.thisRepN,returnPractice.thisTrialN,returnPractice.thisN,returnPractice.thisIndex,pracNum.thisRepN,pracNum.thisTrialN,pracNum.thisN,pracNum.thisIndex,NumBlock1.thisRepN,NumBlock1.thisTrialN,NumBlock1.thisN,NumBlock1.thisIndex,NumBlock2.thisRepN,NumBlock2.thisTrialN,NumBlock2.thisN,NumBlock2.thisIndex,returnPrac.thisRepN,returnPrac.thisTrialN,returnPrac.thisN,returnPrac.thisIndex,PracAff.thisRepN,PracAff.thisTrialN,PracAff.thisN,PracAff.thisIndex,AffBlocks.thisRepN,AffBlocks.thisTrialN,AffBlocks.thisN,AffBlocks.thisIndex,AffBlock1.thisRepN,AffBlock1.thisTrialN,AffBlock1.thisN,AffBlock1.thisIndex,respNum2word.keys,respNum2word.corr,respNum2word.rt,blank.started,text.started,blank.stopped,text.stopped,respFlanker.keys,respFlanker.corr,respFlanker.rt,thisWord,respAffWord.keys,respAffWord.corr,respAffWord.rt,姓名,性别,年龄（周岁）,date,expName,psychopyVersion,frameRate,
2A,1,1,A,a,"[0.2, 0.2]",,,,,,,,0,0,0,0,0,0,0,0,,,,,,,,,,,,,,,,,,,,,,,,,None,0,,,,,,,,,,,,,yyf,m,23,2024-04-11_16h05.50.365,mian,2022.2.4,60.074564557812444,
A9,1,2,A,a,"[-0.2, 0.2]",,,,,,,,0,0,0,0,0,1,1,1,,,,,,,,,,,,,,,,,,,,,,,,,a,1,2.9877310999436304,,,,,,,,,,,,yyf,m,23,2024-04-11_16h05.50.365,mian,2022.2.4,60.074564557812444,
7e,2,1,7.0,a,"[-0.2, -0.2]",,,,,,,,0,0,0,0,0,2,2,2,,,,,,,,,,,,,,,,,,,,,,,,,a,1,3.3087126999162138,,,,,,,,,,,,yyf,m,23,2024-04-11_16h05.50.365,mian,2022.2.4,60.074564557812444,
9H,2,2,9.0,a,"[0.2, -0.2]",,,,,,,,0,0,0,0,0,3,3,3,,,,,,,,,,,,,,,,,,,,,,,,,a,1,1.0176149999024346,,,,,,,,,,,,yyf,m,23,2024-04-11_16h05.50.365,mian,2022.2.4,60.074564557812444,
h4,1,1,h,l,"[0.2, 0.2]",,,,,,,,0,0,0,0,0,4,4,4,,,,,,,,,,,,,,,,,,,,,,,,,l,1,2.3606117999879643,,,,,,,,,,,,yyf,m,23,2024-04-11_16h05.50.365,mian,2022.2.4,60.074564557812444,
4H,1,2,H,a,"[-0.2, 0.2]",,,,,,,,0,0,0,0,0,5,5,5,,,,,,,,,,,,,,,,,,,,,,,,,a,1,1.7873337999917567,,,,,,,,,,,,yyf,m,23,2024-04-11_16h05.50.365,mian,2022.2.4,60.074564557812444,
F8,2,1,8.0,l,"[-0.2, -0.2]",,,,,,,,0,0,0,0,0,6,6,6,,,,,,,,,,,,,,,,,,,,,,,,,l,1,1.4283331000478938,,,,,,,,,,,,yyf,m,23,2024-04-11_16h05.50.365,mian,2022.2.4,60.074564557812444,
h7,2,2,7.0,a,"[0.2, -0.2]",,,,,,,,0,0,0,0,0,7,7,7,,,,,,,,,,,,,,,,,,,,,,,,,a,1,2.1158781000413,,,,,,,,,,,,yyf,m,23,2024-04-11_16h05.50.365,mian,2022.2.4,60.074564557812444,
5e,1,1,e,l,"[0.2, 0.2]",,,,,,,,0,0,0,0,0,8,8,8,,,,,,,,,,,,,,,,,,,,,,,,,a,0,3.391207000007853,,,,,,,,,,,,yyf,m,23,2024-04-11_16h05.50.365,mian,2022.2.4,60.074564557812444,
e8,1,2,e,l,"[-0.2, 0.2]",,,,,,,,0,0,0,0,0,9,9,9,,,,,,,,,,,,,,,,,,,,,,,,,l,1,2.232796599972062,,,,,,,,,,,,yyf,m,23,2024-04-11_16h05.50.365,mian,2022.2.4,60.074564557812444,
4E,2,1,4.0,l,"[-0.2, -0.2]",,,,,,,,0,0,0,0,0,10,10,10,,,,,,,,,,,,,,,,,,,,,,,,,l,1,1.5360350999981165,,,,,,,,,,,,yyf,m,23,2024-04-11_16h05.50.365,mian,2022.2.4,60.074564557812444,
5H,2,2,5.0,a,"[0.2, -0.2]",,,,,,,,0,0,0,0,0,11,11,11,,,,,,,,,,,,,,,,,,,,,,,,,a,1,1.554156900034286,,,,,,,,,,,,yyf,m,23,2024-04-11_16h05.50.365,mian,2022.2.4,60.074564557812444,
9E,1,1,E,a,"[0.2, 0.2]",,,,,,,,0,0,0,0,0,12,12,12,,,,,,,,,,,,,,,,,,,,,,,,,None,0,,,,,,,,,,,,,yyf,m,23,2024-04-11_16h05.50.365,mian,2022.2.4,60.074564557812444,
h9,1,2,h,l,"[-0.2, 0.2]",,,,,,,,0,0,0,0,0,13,13,13,,,,,,,,,,,,,,,,,,,,,,,,,l,1,2.5075857000192627,,,,,,,,,,,,yyf,m,23,2024-04-11_16h05.50.365,mian,2022.2.4,60.074564557812444,
2a,2,1,2.0,l,"[-0.2, -0.2]",,,,,,,,0,0,0,0,0,14,14,14,,,,,,,,,,,,,,,,,,,,,,,,,a,0,3.25553470000159,,,,,,,,,,,,yyf,m,23,2024-04-11_16h05.50.365,mian,2022.2.4,60.074564557812444,
e5,2,2,5.0,a,"[0.2, -0.2]",,,,,,,,0,0,0,0,0,15,15,15,,,,,,,,,,,,,,,,,,,,,,,,,a,1,0.7342490999726579,,,,,,,,,,,,yyf,m,23,2024-04-11_16h05.50.365,mian,2022.2.4,60.074564557812444,
A5,1,1,A,a,"[0.2, 0.2]",,,,,,,,0,0,0,0,0,16,16,16,,,,,,,,,,,,,,,,,,,,,,,,,a,1,2.9682232999475673,,,,,,,,,,,,yyf,m,23,2024-04-11_16h05.50.365,mian,2022.2.4,60.074564557812444,
a6,1,2,a,l,"[-0.2, 0.2]",,,,,,,,0,0,0,0,0,17,17,17,,,,,,,,,,,,,,,,,,,,,,,,,l,1,0.7069947000127286,,,,,,,,,,,,yyf,m,23,2024-04-11_16h05.50.365,mian,2022.2.4,60.074564557812444,
2F,2,1,2.0,l,"[-0.2, -0.2]",,,,,,,,0,0,0,0,0,18,18,18,,,,,,,,,,,,,,,,,,,,,,,,,l,1,2.0064209999982268,,,,,,,,,,,,yyf,m,23,2024-04-11_16h05.50.365,mian,2022.2.4,60.074564557812444,
e4,2,2,4.0,l,"[0.2, -0.2]",,,,,,,,0,0,0,0,0,19,19,19,,,,,,,,,,,,,,,,,,,,,,,,,l,1,0.8782842999789864,,,,,,,,,,,,yyf,m,23,2024-04-11_16h05.50.365,mian,2022.2.4,60.074564557812444,
,,,,,,,,,,,,,0,0,0,0,,,,,,,,,,,,,,,,,,,,,,,,,,,,,,,,,,,,,,,,,,,yyf,m,23,2024-04-11_16h05.50.365,mian,2022.2.4,60.074564557812444,
7h,1,1,h,l,"[0.2, 0.2]",,,,,,,,,,,,,,,,0,0,0,0,,,,,,,,,,,,,,,,,,,,,l,1,2.3894646998960525,,,,,,,,,,,,yyf,m,23,2024-04-11_16h05.50.365,mian,2022.2.4,60.074564557812444,
8F,1,2,F,a,"[-0.2, 0.2]",,,,,,,,,,,,,,,,0,1,1,1,,,,,,,,,,,,,,,,,,,,,a,1,1.6342367999022827,,,,,,,,,,,,yyf,m,23,2024-04-11_16h05.50.365,mian,2022.2.4,60.074564557812444,
8h,2,1,8.0,l,"[-0.2, -0.2]",,,,,,,,,,,,,,,,0,2,2,2,,,,,,,,,,,,,,,,,,,,,l,1,1.1963652999838814,,,,,,,,,,,,yyf,m,23,2024-04-11_16h05.50.365,mian,2022.2.4,60.074564557812444,
a2,2,2,2.0,l,"[0.2, -0.2]",,,,,,,,,,,,,,,,0,3,3,3,,,,,,,,,,,,,,,,,,,,,l,1,1.024628399987705,,,,,,,,,,,,yyf,m,23,2024-04-11_16h05.50.365,mian,2022.2.4,60.074564557812444,
8f,1,1,f,l,"[0.2, 0.2]",,,,,,,,,,,,,,,,0,4,4,4,,,,,,,,,,,,,,,,,,,,,l,1,1.3395666999276727,,,,,,,,,,,,yyf,m,23,2024-04-11_16h05.50.365,mian,2022.2.4,60.074564557812444,
6a,1,2,a,l,"[-0.2, 0.2]",,,,,,,,,,,,,,,,0,5,5,5,,,,,,,,,,,,,,,,,,,,,l,1,1.0018098000437021,,,,,,,,,,,,yyf,m,23,2024-04-11_16h05.50.365,mian,2022.2.4,60.074564557812444,
h6,2,1,6.0,l,"[-0.2, -0.2]",,,,,,,,,,,,,,,,0,6,6,6,,,,,,,,,,,,,,,,,,,,,l,1,2.4855706999078393,,,,,,,,,,,,yyf,m,23,2024-04-11_16h05.50.365,mian,2022.2.4,60.074564557812444,
f9,2,2,9.0,a,"[0.2, -0.2]",,,,,,,,,,,,,,,,0,7,7,7,,,,,,,,,,,,,,,,,,,,,a,1,1.006261800066568,,,,,,,,,,,,yyf,m,23,2024-04-11_16h05.50.365,mian,2022.2.4,60.074564557812444,
E4,1,1,E,a,"[0.2, 0.2]",,,,,,,,,,,,,,,,0,8,8,8,,,,,,,,,,,,,,,,,,,,,a,1,1.3615182000212371,,,,,,,,,,,,yyf,m,23,2024-04-11_16h05.50.365,mian,2022.2.4,60.074564557812444,
6e,1,2,e,l,"[-0.2, 0.2]",,,,,,,,,,,,,,,,0,9,9,9,,,,,,,,,,,,,,,,,,,,,l,1,0.8715071000624448,,,,,,,,,,,,yyf,m,23,2024-04-11_16h05.50.365,mian,2022.2.4,60.074564557812444,
5G,2,1,5.0,a,"[-0.2, -0.2]",,,,,,,,,,,,,,,,0,10,10,10,,,,,,,,,,,,,,,,,,,,,a,1,3.5760257999645546,,,,,,,,,,,,yyf,m,23,2024-04-11_16h05.50.365,mian,2022.2.4,60.074564557812444,
h3,2,2,3.0,a,"[0.2, -0.2]",,,,,,,,,,,,,,,,0,11,11,11,,,,,,,,,,,,,,,,,,,,,a,1,0.6373879999155179,,,,,,,,,,,,yyf,m,23,2024-04-11_16h05.50.365,mian,2022.2.4,60.074564557812444,
9e,1,1,e,l,"[0.2, 0.2]",,,,,,,,,,,,,,,,0,12,12,12,,,,,,,,,,,,,,,,,,,,,l,1,1.5999491000548005,,,,,,,,,,,,yyf,m,23,2024-04-11_16h05.50.365,mian,2022.2.4,60.074564557812444,
a8,1,2,a,l,"[-0.2, 0.2]",,,,,,,,,,,,,,,,0,13,13,13,,,,,,,,,,,,,,,,,,,,,l,1,0.8111339000752196,,,,,,,,,,,,yyf,m,23,2024-04-11_16h05.50.365,mian,2022.2.4,60.074564557812444,
e8,2,1,8.0,l,"[-0.2, -0.2]",,,,,,,,,,,,,,,,0,14,14,14,,,,,,,,,,,,,,,,,,,,,l,1,1.5515534000005573,,,,,,,,,,,,yyf,m,23,2024-04-11_16h05.50.365,mian,2022.2.4,60.074564557812444,
3f,2,2,3.0,a,"[0.2, -0.2]",,,,,,,,,,,,,,,,0,15,15,15,,,,,,,,,,,,,,,,,,,,,a,1,0.7963928000535816,,,,,,,,,,,,yyf,m,23,2024-04-11_16h05.50.365,mian,2022.2.4,60.074564557812444,
7f,1,1,f,l,"[0.2, 0.2]",,,,,,,,,,,,,,,,0,16,16,16,,,,,,,,,,,,,,,,,,,,,l,1,1.6810770999873057,,,,,,,,,,,,yyf,m,23,2024-04-11_16h05.50.365,mian,2022.2.4,60.074564557812444,
a7,1,2,a,l,"[-0.2, 0.2]",,,,,,,,,,,,,,,,0,17,17,17,,,,,,,,,,,,,,,,,,,,,l,1,1.1059107000473887,,,,,,,,,,,,yyf,m,23,2024-04-11_16h05.50.365,mian,2022.2.4,60.074564557812444,
5A,2,1,5.0,a,"[-0.2, -0.2]",,,,,,,,,,,,,,,,0,18,18,18,,,,,,,,,,,,,,,,,,,,,a,1,3.9613935999805108,,,,,,,,,,,,yyf,m,23,2024-04-11_16h05.50.365,mian,2022.2.4,60.074564557812444,
8g,2,2,8.0,l,"[0.2, -0.2]",,,,,,,,,,,,,,,,0,19,19,19,,,,,,,,,,,,,,,,,,,,,l,1,2.0645135999657214,,,,,,,,,,,,yyf,m,23,2024-04-11_16h05.50.365,mian,2022.2.4,60.074564557812444,
9a,1,1,a,l,"[0.2, 0.2]",,,,,,,,,,,,,,,,0,20,20,20,,,,,,,,,,,,,,,,,,,,,None,0,,,,,,,,,,,,,yyf,m,23,2024-04-11_16h05.50.365,mian,2022.2.4,60.074564557812444,
f7,1,2,f,l,"[-0.2, 0.2]",,,,,,,,,,,,,,,,0,21,21,21,,,,,,,,,,,,,,,,,,,,,l,1,1.4847317999228835,,,,,,,,,,,,yyf,m,23,2024-04-11_16h05.50.365,mian,2022.2.4,60.074564557812444,
g9,2,1,9.0,a,"[-0.2, -0.2]",,,,,,,,,,,,,,,,0,22,22,22,,,,,,,,,,,,,,,,,,,,,a,1,1.5726726000430062,,,,,,,,,,,,yyf,m,23,2024-04-11_16h05.50.365,mian,2022.2.4,60.074564557812444,
3h,2,2,3.0,a,"[0.2, -0.2]",,,,,,,,,,,,,,,,0,23,23,23,,,,,,,,,,,,,,,,,,,,,a,1,1.690052100108005,,,,,,,,,,,,yyf,m,23,2024-04-11_16h05.50.365,mian,2022.2.4,60.074564557812444,
E6,1,1,E,a,"[0.2, 0.2]",,,,,,,,,,,,,,,,0,24,24,24,,,,,,,,,,,,,,,,,,,,,l,0,2.9063513000728562,,,,,,,,,,,,yyf,m,23,2024-04-11_16h05.50.365,mian,2022.2.4,60.074564557812444,
F6,1,2,F,a,"[-0.2, 0.2]",,,,,,,,,,,,,,,,0,25,25,25,,,,,,,,,,,,,,,,,,,,,a,1,0.7231715000234544,,,,,,,,,,,,yyf,m,23,2024-04-11_16h05.50.365,mian,2022.2.4,60.074564557812444,
3A,2,1,3.0,a,"[-0.2, -0.2]",,,,,,,,,,,,,,,,0,26,26,26,,,,,,,,,,,,,,,,,,,,,a,1,4.129335000063293,,,,,,,,,,,,yyf,m,23,2024-04-11_16h05.50.365,mian,2022.2.4,60.074564557812444,
8H,2,2,8.0,l,"[0.2, -0.2]",,,,,,,,,,,,,,,,0,27,27,27,,,,,,,,,,,,,,,,,,,,,l,1,1.641960799926892,,,,,,,,,,,,yyf,m,23,2024-04-11_16h05.50.365,mian,2022.2.4,60.074564557812444,
5a,1,1,a,l,"[0.2, 0.2]",,,,,,,,,,,,,,,,0,28,28,28,,,,,,,,,,,,,,,,,,,,,None,0,,,,,,,,,,,,,yyf,m,23,2024-04-11_16h05.50.365,mian,2022.2.4,60.074564557812444,
2h,1,2,h,l,"[-0.2, 0.2]",,,,,,,,,,,,,,,,0,29,29,29,,,,,,,,,,,,,,,,,,,,,l,1,2.8066928000189364,,,,,,,,,,,,yyf,m,23,2024-04-11_16h05.50.365,mian,2022.2.4,60.074564557812444,
e5,2,1,5.0,a,"[-0.2, -0.2]",,,,,,,,,,,,,,,,0,30,30,30,,,,,,,,,,,,,,,,,,,,,a,1,2.2825695000356063,,,,,,,,,,,,yyf,m,23,2024-04-11_16h05.50.365,mian,2022.2.4,60.074564557812444,
a3,2,2,3.0,a,"[0.2, -0.2]",,,,,,,,,,,,,,,,0,31,31,31,,,,,,,,,,,,,,,,,,,,,a,1,0.6918164000380784,,,,,,,,,,,,yyf,m,23,2024-04-11_16h05.50.365,mian,2022.2.4,60.074564557812444,
f3,1,1,f,l,"[0.2, 0.2]",,,,,,,,,,,,,,,,0,32,32,32,,,,,,,,,,,,,,,,,,,,,l,1,2.2595246999990195,,,,,,,,,,,,yyf,m,23,2024-04-11_16h05.50.365,mian,2022.2.4,60.074564557812444,
2E,1,2,E,a,"[-0.2, 0.2]",,,,,,,,,,,,,,,,0,33,33,33,,,,,,,,,,,,,,,,,,,,,a,1,1.0055464999750257,,,,,,,,,,,,yyf,m,23,2024-04-11_16h05.50.365,mian,2022.2.4,60.074564557812444,
2H,2,1,2.0,l,"[-0.2, -0.2]",,,,,,,,,,,,,,,,0,34,34,34,,,,,,,,,,,,,,,,,,,,,l,1,0.872942499932833,,,,,,,,,,,,yyf,m,23,2024-04-11_16h05.50.365,mian,2022.2.4,60.074564557812444,
H8,2,2,8.0,l,"[0.2, -0.2]",,,,,,,,,,,,,,,,0,35,35,35,,,,,,,,,,,,,,,,,,,,,l,1,0.6258254999993369,,,,,,,,,,,,yyf,m,23,2024-04-11_16h05.50.365,mian,2022.2.4,60.074564557812444,
9g,1,1,g,l,"[0.2, 0.2]",,,,,,,,,,,,,,,,0,36,36,36,,,,,,,,,,,,,,,,,,,,,l,1,2.7564484999747947,,,,,,,,,,,,yyf,m,23,2024-04-11_16h05.50.365,mian,2022.2.4,60.074564557812444,
5h,1,2,h,l,"[-0.2, 0.2]",,,,,,,,,,,,,,,,0,37,37,37,,,,,,,,,,,,,,,,,,,,,l,1,0.6026936999987811,,,,,,,,,,,,yyf,m,23,2024-04-11_16h05.50.365,mian,2022.2.4,60.074564557812444,
e4,2,1,4.0,l,"[-0.2, -0.2]",,,,,,,,,,,,,,,,0,38,38,38,,,,,,,,,,,,,,,,,,,,,l,1,1.397958799963817,,,,,,,,,,,,yyf,m,23,2024-04-11_16h05.50.365,mian,2022.2.4,60.074564557812444,
9h,2,2,9.0,a,"[0.2, -0.2]",,,,,,,,,,,,,,,,0,39,39,39,,,,,,,,,,,,,,,,,,,,,a,1,0.6509173000231385,,,,,,,,,,,,yyf,m,23,2024-04-11_16h05.50.365,mian,2022.2.4,60.074564557812444,
G3,1,1,G,a,"[0.2, 0.2]",,,,,,,,,,,,,,,,0,40,40,40,,,,,,,,,,,,,,,,,,,,,a,1,1.1958030000096187,,,,,,,,,,,,yyf,m,23,2024-04-11_16h05.50.365,mian,2022.2.4,60.074564557812444,
9A,1,2,A,a,"[-0.2, 0.2]",,,,,,,,,,,,,,,,0,41,41,41,,,,,,,,,,,,,,,,,,,,,a,1,0.56730710004922,,,,,,,,,,,,yyf,m,23,2024-04-11_16h05.50.365,mian,2022.2.4,60.074564557812444,
H5,2,1,5.0,a,"[-0.2, -0.2]",,,,,,,,,,,,,,,,0,42,42,42,,,,,,,,,,,,,,,,,,,,,l,0,3.516280599986203,,,,,,,,,,,,yyf,m,23,2024-04-11_16h05.50.365,mian,2022.2.4,60.074564557812444,
4e,2,2,4.0,l,"[0.2, -0.2]",,,,,,,,,,,,,,,,0,43,43,43,,,,,,,,,,,,,,,,,,,,,l,1,1.4680421999655664,,,,,,,,,,,,yyf,m,23,2024-04-11_16h05.50.365,mian,2022.2.4,60.074564557812444,
E2,1,1,E,a,"[0.2, 0.2]",,,,,,,,,,,,,,,,0,44,44,44,,,,,,,,,,,,,,,,,,,,,a,1,3.284998600021936,,,,,,,,,,,,yyf,m,23,2024-04-11_16h05.50.365,mian,2022.2.4,60.074564557812444,
A5,1,2,A,a,"[-0.2, 0.2]",,,,,,,,,,,,,,,,0,45,45,45,,,,,,,,,,,,,,,,,,,,,a,1,0.6462783999741077,,,,,,,,,,,,yyf,m,23,2024-04-11_16h05.50.365,mian,2022.2.4,60.074564557812444,
2A,2,1,2.0,l,"[-0.2, -0.2]",,,,,,,,,,,,,,,,0,46,46,46,,,,,,,,,,,,,,,,,,,,,l,1,1.0246711999643594,,,,,,,,,,,,yyf,m,23,2024-04-11_16h05.50.365,mian,2022.2.4,60.074564557812444,
6G,2,2,6.0,l,"[0.2, -0.2]",,,,,,,,,,,,,,,,0,47,47,47,,,,,,,,,,,,,,,,,,,,,l,1,0.539860500022769,,,,,,,,,,,,yyf,m,23,2024-04-11_16h05.50.365,mian,2022.2.4,60.074564557812444,
H3,1,1,H,a,"[0.2, 0.2]",,,,,,,,,,,,,,,,0,48,48,48,,,,,,,,,,,,,,,,,,,,,a,1,3.47314080002252,,,,,,,,,,,,yyf,m,23,2024-04-11_16h05.50.365,mian,2022.2.4,60.074564557812444,
H2,1,2,H,a,"[-0.2, 0.2]",,,,,,,,,,,,,,,,0,49,49,49,,,,,,,,,,,,,,,,,,,,,a,1,0.6111831000307575,,,,,,,,,,,,yyf,m,23,2024-04-11_16h05.50.365,mian,2022.2.4,60.074564557812444,
e9,2,1,9.0,a,"[-0.2, -0.2]",,,,,,,,,,,,,,,,0,50,50,50,,,,,,,,,,,,,,,,,,,,,a,1,1.5349377000238746,,,,,,,,,,,,yyf,m,23,2024-04-11_16h05.50.365,mian,2022.2.4,60.074564557812444,
2G,2,2,2.0,l,"[0.2, -0.2]",,,,,,,,,,,,,,,,0,51,51,51,,,,,,,,,,,,,,,,,,,,,l,1,1.5814033999340609,,,,,,,,,,,,yyf,m,23,2024-04-11_16h05.50.365,mian,2022.2.4,60.074564557812444,
4f,1,1,f,l,"[0.2, 0.2]",,,,,,,,,,,,,,,,0,52,52,52,,,,,,,,,,,,,,,,,,,,,l,1,1.154106399975717,,,,,,,,,,,,yyf,m,23,2024-04-11_16h05.50.365,mian,2022.2.4,60.074564557812444,
H6,1,2,H,a,"[-0.2, 0.2]",,,,,,,,,,,,,,,,0,53,53,53,,,,,,,,,,,,,,,,,,,,,a,1,1.223099899943918,,,,,,,,,,,,yyf,m,23,2024-04-11_16h05.50.365,mian,2022.2.4,60.074564557812444,
A4,2,1,4.0,l,"[-0.2, -0.2]",,,,,,,,,,,,,,,,0,54,54,54,,,,,,,,,,,,,,,,,,,,,l,1,2.2103061999659985,,,,,,,,,,,,yyf,m,23,2024-04-11_16h05.50.365,mian,2022.2.4,60.074564557812444,
3F,2,2,3.0,a,"[0.2, -0.2]",,,,,,,,,,,,,,,,0,55,55,55,,,,,,,,,,,,,,,,,,,,,a,1,1.0861401000292972,,,,,,,,,,,,yyf,m,23,2024-04-11_16h05.50.365,mian,2022.2.4,60.074564557812444,
7e,1,1,e,l,"[0.2, 0.2]",,,,,,,,,,,,,,,,0,56,56,56,,,,,,,,,,,,,,,,,,,,,a,0,4.078456900082529,,,,,,,,,,,,yyf,m,23,2024-04-11_16h05.50.365,mian,2022.2.4,60.074564557812444,
F9,1,2,F,a,"[-0.2, 0.2]",,,,,,,,,,,,,,,,0,57,57,57,,,,,,,,,,,,,,,,,,,,,a,1,1.2973127000732347,,,,,,,,,,,,yyf,m,23,2024-04-11_16h05.50.365,mian,2022.2.4,60.074564557812444,
e2,2,1,2.0,l,"[-0.2, -0.2]",,,,,,,,,,,,,,,,0,58,58,58,,,,,,,,,,,,,,,,,,,,,l,1,2.145390299963765,,,,,,,,,,,,yyf,m,23,2024-04-11_16h05.50.365,mian,2022.2.4,60.074564557812444,
5F,2,2,5.0,a,"[0.2, -0.2]",,,,,,,,,,,,,,,,0,59,59,59,,,,,,,,,,,,,,,,,,,,,a,1,0.751489199930802,,,,,,,,,,,,yyf,m,23,2024-04-11_16h05.50.365,mian,2022.2.4,60.074564557812444,
f6,1,1,f,l,"[0.2, 0.2]",,,,,,,,,,,,,,,,0,60,60,60,,,,,,,,,,,,,,,,,,,,,l,1,2.204647400067188,,,,,,,,,,,,yyf,m,23,2024-04-11_16h05.50.365,mian,2022.2.4,60.074564557812444,
7G,1,2,G,a,"[-0.2, 0.2]",,,,,,,,,,,,,,,,0,61,61,61,,,,,,,,,,,,,,,,,,,,,a,1,1.32875620003324,,,,,,,,,,,,yyf,m,23,2024-04-11_16h05.50.365,mian,2022.2.4,60.074564557812444,
e6,2,1,6.0,l,"[-0.2, -0.2]",,,,,,,,,,,,,,,,0,62,62,62,,,,,,,,,,,,,,,,,,,,,l,1,1.0714156000176445,,,,,,,,,,,,yyf,m,23,2024-04-11_16h05.50.365,mian,2022.2.4,60.074564557812444,
3G,2,2,3.0,a,"[0.2, -0.2]",,,,,,,,,,,,,,,,0,63,63,63,,,,,,,,,,,,,,,,,,,,,a,1,0.9127236999338493,,,,,,,,,,,,yyf,m,23,2024-04-11_16h05.50.365,mian,2022.2.4,60.074564557812444,
5E,1,1,E,a,"[0.2, 0.2]",,,,,,,,,,,,,,,,0,64,64,64,,,,,,,,,,,,,,,,,,,,,a,1,1.264352000085637,,,,,,,,,,,,yyf,m,23,2024-04-11_16h05.50.365,mian,2022.2.4,60.074564557812444,
A6,1,2,A,a,"[-0.2, 0.2]",,,,,,,,,,,,,,,,0,65,65,65,,,,,,,,,,,,,,,,,,,,,a,1,0.48233649996109307,,,,,,,,,,,,yyf,m,23,2024-04-11_16h05.50.365,mian,2022.2.4,60.074564557812444,
E3,2,1,3.0,a,"[-0.2, -0.2]",,,,,,,,,,,,,,,,0,66,66,66,,,,,,,,,,,,,,,,,,,,,a,1,1.8349741999991238,,,,,,,,,,,,yyf,m,23,2024-04-11_16h05.50.365,mian,2022.2.4,60.074564557812444,
2f,2,2,2.0,l,"[0.2, -0.2]",,,,,,,,,,,,,,,,0,67,67,67,,,,,,,,,,,,,,,,,,,,,l,1,1.5888010999187827,,,,,,,,,,,,yyf,m,23,2024-04-11_16h05.50.365,mian,2022.2.4,60.074564557812444,
g3,1,1,g,l,"[0.2, 0.2]",,,,,,,,,,,,,,,,0,68,68,68,,,,,,,,,,,,,,,,,,,,,l,1,0.8489142999751493,,,,,,,,,,,,yyf,m,23,2024-04-11_16h05.50.365,mian,2022.2.4,60.074564557812444,
E8,1,2,E,a,"[-0.2, 0.2]",,,,,,,,,,,,,,,,0,69,69,69,,,,,,,,,,,,,,,,,,,,,a,1,0.9314149999991059,,,,,,,,,,,,yyf,m,23,2024-04-11_16h05.50.365,mian,2022.2.4,60.074564557812444,
6g,2,1,6.0,l,"[-0.2, -0.2]",,,,,,,,,,,,,,,,0,70,70,70,,,,,,,,,,,,,,,,,,,,,l,1,2.714285900001414,,,,,,,,,,,,yyf,m,23,2024-04-11_16h05.50.365,mian,2022.2.4,60.074564557812444,
5H,2,2,5.0,a,"[0.2, -0.2]",,,,,,,,,,,,,,,,0,71,71,71,,,,,,,,,,,,,,,,,,,,,a,1,0.8426019999897107,,,,,,,,,,,,yyf,m,23,2024-04-11_16h05.50.365,mian,2022.2.4,60.074564557812444,
4A,1,1,A,a,"[0.2, 0.2]",,,,,,,,,,,,,,,,0,72,72,72,,,,,,,,,,,,,,,,,,,,,a,1,1.9318688999628648,,,,,,,,,,,,yyf,m,23,2024-04-11_16h05.50.365,mian,2022.2.4,60.074564557812444,
7F,1,2,F,a,"[-0.2, 0.2]",,,,,,,,,,,,,,,,0,73,73,73,,,,,,,,,,,,,,,,,,,,,a,1,1.2995897000655532,,,,,,,,,,,,yyf,m,23,2024-04-11_16h05.50.365,mian,2022.2.4,60.074564557812444,
6H,2,1,6.0,l,"[-0.2, -0.2]",,,,,,,,,,,,,,,,0,74,74,74,,,,,,,,,,,,,,,,,,,,,l,1,2.2995155999669805,,,,,,,,,,,,yyf,m,23,2024-04-11_16h05.50.365,mian,2022.2.4,60.074564557812444,
3a,2,2,3.0,a,"[0.2, -0.2]",,,,,,,,,,,,,,,,0,75,75,75,,,,,,,,,,,,,,,,,,,,,a,1,0.9322197999572381,,,,,,,,,,,,yyf,m,23,2024-04-11_16h05.50.365,mian,2022.2.4,60.074564557812444,
9F,1,1,F,a,"[0.2, 0.2]",,,,,,,,,,,,,,,,0,76,76,76,,,,,,,,,,,,,,,,,,,,,a,1,1.6344477999955416,,,,,,,,,,,,yyf,m,23,2024-04-11_16h05.50.365,mian,2022.2.4,60.074564557812444,
G7,1,2,G,a,"[-0.2, 0.2]",,,,,,,,,,,,,,,,0,77,77,77,,,,,,,,,,,,,,,,,,,,,a,1,1.0051047001034021,,,,,,,,,,,,yyf,m,23,2024-04-11_16h05.50.365,mian,2022.2.4,60.074564557812444,
a6,2,1,6.0,l,"[-0.2, -0.2]",,,,,,,,,,,,,,,,0,78,78,78,,,,,,,,,,,,,,,,,,,,,l,1,2.432036599959247,,,,,,,,,,,,yyf,m,23,2024-04-11_16h05.50.365,mian,2022.2.4,60.074564557812444,
4h,2,2,4.0,l,"[0.2, -0.2]",,,,,,,,,,,,,,,,0,79,79,79,,,,,,,,,,,,,,,,,,,,,l,1,0.5319243000121787,,,,,,,,,,,,yyf,m,23,2024-04-11_16h05.50.365,mian,2022.2.4,60.074564557812444,
6A,1,1,A,a,"[0.2, 0.2]",,,,,,,,,,,,,,,,,,,,0,0,0,0,,,,,,,,,,,,,,,,,a,1,1.4777721000136808,,,,,,,,,,,,yyf,m,23,2024-04-11_16h05.50.365,mian,2022.2.4,60.074564557812444,
4H,1,2,H,a,"[-0.2, 0.2]",,,,,,,,,,,,,,,,,,,,0,1,1,1,,,,,,,,,,,,,,,,,a,1,0.4477315000258386,,,,,,,,,,,,yyf,m,23,2024-04-11_16h05.50.365,mian,2022.2.4,60.074564557812444,
3H,2,1,3.0,a,"[-0.2, -0.2]",,,,,,,,,,,,,,,,,,,,0,2,2,2,,,,,,,,,,,,,,,,,a,1,0.641361599904485,,,,,,,,,,,,yyf,m,23,2024-04-11_16h05.50.365,mian,2022.2.4,60.074564557812444,
a9,2,2,9.0,a,"[0.2, -0.2]",,,,,,,,,,,,,,,,,,,,0,3,3,3,,,,,,,,,,,,,,,,,a,1,1.4431400999892503,,,,,,,,,,,,yyf,m,23,2024-04-11_16h05.50.365,mian,2022.2.4,60.074564557812444,
E7,1,1,E,a,"[0.2, 0.2]",,,,,,,,,,,,,,,,,,,,0,4,4,4,,,,,,,,,,,,,,,,,a,1,1.8448600999545306,,,,,,,,,,,,yyf,m,23,2024-04-11_16h05.50.365,mian,2022.2.4,60.074564557812444,
6h,1,2,h,l,"[-0.2, 0.2]",,,,,,,,,,,,,,,,,,,,0,5,5,5,,,,,,,,,,,,,,,,,l,1,0.7277362999739125,,,,,,,,,,,,yyf,m,23,2024-04-11_16h05.50.365,mian,2022.2.4,60.074564557812444,
8A,2,1,8.0,l,"[-0.2, -0.2]",,,,,,,,,,,,,,,,,,,,0,6,6,6,,,,,,,,,,,,,,,,,l,1,1.0304738999111578,,,,,,,,,,,,yyf,m,23,2024-04-11_16h05.50.365,mian,2022.2.4,60.074564557812444,
f5,2,2,5.0,a,"[0.2, -0.2]",,,,,,,,,,,,,,,,,,,,0,7,7,7,,,,,,,,,,,,,,,,,a,1,1.4174892000155523,,,,,,,,,,,,yyf,m,23,2024-04-11_16h05.50.365,mian,2022.2.4,60.074564557812444,
2a,1,1,a,l,"[0.2, 0.2]",,,,,,,,,,,,,,,,,,,,0,8,8,8,,,,,,,,,,,,,,,,,a,0,3.4516739000100642,,,,,,,,,,,,yyf,m,23,2024-04-11_16h05.50.365,mian,2022.2.4,60.074564557812444,
F7,1,2,F,a,"[-0.2, 0.2]",,,,,,,,,,,,,,,,,,,,0,9,9,9,,,,,,,,,,,,,,,,,a,1,2.0949988999636844,,,,,,,,,,,,yyf,m,23,2024-04-11_16h05.50.365,mian,2022.2.4,60.074564557812444,
h2,2,1,2.0,l,"[-0.2, -0.2]",,,,,,,,,,,,,,,,,,,,0,10,10,10,,,,,,,,,,,,,,,,,l,1,1.1035044000018388,,,,,,,,,,,,yyf,m,23,2024-04-11_16h05.50.365,mian,2022.2.4,60.074564557812444,
F5,2,2,5.0,a,"[0.2, -0.2]",,,,,,,,,,,,,,,,,,,,0,11,11,11,,,,,,,,,,,,,,,,,a,1,0.7192637999542058,,,,,,,,,,,,yyf,m,23,2024-04-11_16h05.50.365,mian,2022.2.4,60.074564557812444,
A9,1,1,A,a,"[0.2, 0.2]",,,,,,,,,,,,,,,,,,,,0,12,12,12,,,,,,,,,,,,,,,,,a,1,1.2934319000924006,,,,,,,,,,,,yyf,m,23,2024-04-11_16h05.50.365,mian,2022.2.4,60.074564557812444,
3e,1,2,e,l,"[-0.2, 0.2]",,,,,,,,,,,,,,,,,,,,0,13,13,13,,,,,,,,,,,,,,,,,l,1,0.8939725999953225,,,,,,,,,,,,yyf,m,23,2024-04-11_16h05.50.365,mian,2022.2.4,60.074564557812444,
f8,2,1,8.0,l,"[-0.2, -0.2]",,,,,,,,,,,,,,,,,,,,0,14,14,14,,,,,,,,,,,,,,,,,l,1,1.3818572999443859,,,,,,,,,,,,yyf,m,23,2024-04-11_16h05.50.365,mian,2022.2.4,60.074564557812444,
G2,2,2,2.0,l,"[0.2, -0.2]",,,,,,,,,,,,,,,,,,,,0,15,15,15,,,,,,,,,,,,,,,,,l,1,0.7946846999693662,,,,,,,,,,,,yyf,m,23,2024-04-11_16h05.50.365,mian,2022.2.4,60.074564557812444,
F2,1,1,F,a,"[0.2, 0.2]",,,,,,,,,,,,,,,,,,,,0,16,16,16,,,,,,,,,,,,,,,,,a,1,1.2380577999865636,,,,,,,,,,,,yyf,m,23,2024-04-11_16h05.50.365,mian,2022.2.4,60.074564557812444,
5e,1,2,e,l,"[-0.2, 0.2]",,,,,,,,,,,,,,,,,,,,0,17,17,17,,,,,,,,,,,,,,,,,l,1,0.7532337999437004,,,,,,,,,,,,yyf,m,23,2024-04-11_16h05.50.365,mian,2022.2.4,60.074564557812444,
A3,2,1,3.0,a,"[-0.2, -0.2]",,,,,,,,,,,,,,,,,,,,0,18,18,18,,,,,,,,,,,,,,,,,a,1,2.1269805999472737,,,,,,,,,,,,yyf,m,23,2024-04-11_16h05.50.365,mian,2022.2.4,60.074564557812444,
4g,2,2,4.0,l,"[0.2, -0.2]",,,,,,,,,,,,,,,,,,,,0,19,19,19,,,,,,,,,,,,,,,,,l,1,1.6774364000884816,,,,,,,,,,,,yyf,m,23,2024-04-11_16h05.50.365,mian,2022.2.4,60.074564557812444,
h7,1,1,h,l,"[0.2, 0.2]",,,,,,,,,,,,,,,,,,,,0,20,20,20,,,,,,,,,,,,,,,,,l,1,3.6144026000984013,,,,,,,,,,,,yyf,m,23,2024-04-11_16h05.50.365,mian,2022.2.4,60.074564557812444,
3g,1,2,g,l,"[-0.2, 0.2]",,,,,,,,,,,,,,,,,,,,0,21,21,21,,,,,,,,,,,,,,,,,l,1,0.9235685999738052,,,,,,,,,,,,yyf,m,23,2024-04-11_16h05.50.365,mian,2022.2.4,60.074564557812444,
8a,2,1,8.0,l,"[-0.2, -0.2]",,,,,,,,,,,,,,,,,,,,0,22,22,22,,,,,,,,,,,,,,,,,l,1,0.9782193000428379,,,,,,,,,,,,yyf,m,23,2024-04-11_16h05.50.365,mian,2022.2.4,60.074564557812444,
4E,2,2,4.0,l,"[0.2, -0.2]",,,,,,,,,,,,,,,,,,,,0,23,23,23,,,,,,,,,,,,,,,,,l,1,0.6627219000365585,,,,,,,,,,,,yyf,m,23,2024-04-11_16h05.50.365,mian,2022.2.4,60.074564557812444,
E5,1,1,E,a,"[0.2, 0.2]",,,,,,,,,,,,,,,,,,,,0,24,24,24,,,,,,,,,,,,,,,,,a,1,0.592403499991633,,,,,,,,,,,,yyf,m,23,2024-04-11_16h05.50.365,mian,2022.2.4,60.074564557812444,
g6,1,2,g,l,"[-0.2, 0.2]",,,,,,,,,,,,,,,,,,,,0,25,25,25,,,,,,,,,,,,,,,,,l,1,3.580613400088623,,,,,,,,,,,,yyf,m,23,2024-04-11_16h05.50.365,mian,2022.2.4,60.074564557812444,
2e,2,1,2.0,l,"[-0.2, -0.2]",,,,,,,,,,,,,,,,,,,,0,26,26,26,,,,,,,,,,,,,,,,,l,1,3.7467161000240594,,,,,,,,,,,,yyf,m,23,2024-04-11_16h05.50.365,mian,2022.2.4,60.074564557812444,
h8,2,2,8.0,l,"[0.2, -0.2]",,,,,,,,,,,,,,,,,,,,0,27,27,27,,,,,,,,,,,,,,,,,l,1,0.7055720000062138,,,,,,,,,,,,yyf,m,23,2024-04-11_16h05.50.365,mian,2022.2.4,60.074564557812444,
G6,1,1,G,a,"[0.2, 0.2]",,,,,,,,,,,,,,,,,,,,0,28,28,28,,,,,,,,,,,,,,,,,a,1,2.5287234999705106,,,,,,,,,,,,yyf,m,23,2024-04-11_16h05.50.365,mian,2022.2.4,60.074564557812444,
a4,1,2,a,l,"[-0.2, 0.2]",,,,,,,,,,,,,,,,,,,,0,29,29,29,,,,,,,,,,,,,,,,,a,0,0.6240461999550462,,,,,,,,,,,,yyf,m,23,2024-04-11_16h05.50.365,mian,2022.2.4,60.074564557812444,
9H,2,1,9.0,a,"[-0.2, -0.2]",,,,,,,,,,,,,,,,,,,,0,30,30,30,,,,,,,,,,,,,,,,,l,0,2.355457700090483,,,,,,,,,,,,yyf,m,23,2024-04-11_16h05.50.365,mian,2022.2.4,60.074564557812444,
7H,2,2,7.0,a,"[0.2, -0.2]",,,,,,,,,,,,,,,,,,,,0,31,31,31,,,,,,,,,,,,,,,,,a,1,3.1531204999191687,,,,,,,,,,,,yyf,m,23,2024-04-11_16h05.50.365,mian,2022.2.4,60.074564557812444,
9f,1,1,f,l,"[0.2, 0.2]",,,,,,,,,,,,,,,,,,,,0,32,32,32,,,,,,,,,,,,,,,,,l,1,3.0395127999363467,,,,,,,,,,,,yyf,m,23,2024-04-11_16h05.50.365,mian,2022.2.4,60.074564557812444,
8E,1,2,E,a,"[-0.2, 0.2]",,,,,,,,,,,,,,,,,,,,0,33,33,33,,,,,,,,,,,,,,,,,a,1,0.6828739000484347,,,,,,,,,,,,yyf,m,23,2024-04-11_16h05.50.365,mian,2022.2.4,60.074564557812444,
A2,2,1,2.0,l,"[-0.2, -0.2]",,,,,,,,,,,,,,,,,,,,0,34,34,34,,,,,,,,,,,,,,,,,l,1,0.5067694000899792,,,,,,,,,,,,yyf,m,23,2024-04-11_16h05.50.365,mian,2022.2.4,60.074564557812444,
H7,2,2,7.0,a,"[0.2, -0.2]",,,,,,,,,,,,,,,,,,,,0,35,35,35,,,,,,,,,,,,,,,,,a,1,1.1782050000037998,,,,,,,,,,,,yyf,m,23,2024-04-11_16h05.50.365,mian,2022.2.4,60.074564557812444,
h9,1,1,h,l,"[0.2, 0.2]",,,,,,,,,,,,,,,,,,,,0,36,36,36,,,,,,,,,,,,,,,,,None,0,,,,,,,,,,,,,yyf,m,23,2024-04-11_16h05.50.365,mian,2022.2.4,60.074564557812444,
8G,1,2,G,a,"[-0.2, 0.2]",,,,,,,,,,,,,,,,,,,,0,37,37,37,,,,,,,,,,,,,,,,,a,1,1.409623899962753,,,,,,,,,,,,yyf,m,23,2024-04-11_16h05.50.365,mian,2022.2.4,60.074564557812444,
H4,2,1,4.0,l,"[-0.2, -0.2]",,,,,,,,,,,,,,,,,,,,0,38,38,38,,,,,,,,,,,,,,,,,l,1,0.6227478999644518,,,,,,,,,,,,yyf,m,23,2024-04-11_16h05.50.365,mian,2022.2.4,60.074564557812444,
A8,2,2,8.0,l,"[0.2, -0.2]",,,,,,,,,,,,,,,,,,,,0,39,39,39,,,,,,,,,,,,,,,,,l,1,0.664233100018464,,,,,,,,,,,,yyf,m,23,2024-04-11_16h05.50.365,mian,2022.2.4,60.074564557812444,
g7,1,1,g,l,"[0.2, 0.2]",,,,,,,,,,,,,,,,,,,,0,40,40,40,,,,,,,,,,,,,,,,,l,1,1.937478799954988,,,,,,,,,,,,yyf,m,23,2024-04-11_16h05.50.365,mian,2022.2.4,60.074564557812444,
H9,1,2,H,a,"[-0.2, 0.2]",,,,,,,,,,,,,,,,,,,,0,41,41,41,,,,,,,,,,,,,,,,,a,1,0.7117775999940932,,,,,,,,,,,,yyf,m,23,2024-04-11_16h05.50.365,mian,2022.2.4,60.074564557812444,
9E,2,1,9.0,a,"[-0.2, -0.2]",,,,,,,,,,,,,,,,,,,,0,42,42,42,,,,,,,,,,,,,,,,,a,1,1.8710853999946266,,,,,,,,,,,,yyf,m,23,2024-04-11_16h05.50.365,mian,2022.2.4,60.074564557812444,
a5,2,2,5.0,a,"[0.2, -0.2]",,,,,,,,,,,,,,,,,,,,0,43,43,43,,,,,,,,,,,,,,,,,a,1,2.97691109997686,,,,,,,,,,,,yyf,m,23,2024-04-11_16h05.50.365,mian,2022.2.4,60.074564557812444,
3E,1,1,E,a,"[0.2, 0.2]",,,,,,,,,,,,,,,,,,,,0,44,44,44,,,,,,,,,,,,,,,,,a,1,1.94217719999142,,,,,,,,,,,,yyf,m,23,2024-04-11_16h05.50.365,mian,2022.2.4,60.074564557812444,
6f,1,2,f,l,"[-0.2, 0.2]",,,,,,,,,,,,,,,,,,,,0,45,45,45,,,,,,,,,,,,,,,,,l,1,1.396870500058867,,,,,,,,,,,,yyf,m,23,2024-04-11_16h05.50.365,mian,2022.2.4,60.074564557812444,
g8,2,1,8.0,l,"[-0.2, -0.2]",,,,,,,,,,,,,,,,,,,,0,46,46,46,,,,,,,,,,,,,,,,,l,1,1.3296522999880835,,,,,,,,,,,,yyf,m,23,2024-04-11_16h05.50.365,mian,2022.2.4,60.074564557812444,
4F,2,2,4.0,l,"[0.2, -0.2]",,,,,,,,,,,,,,,,,,,,0,47,47,47,,,,,,,,,,,,,,,,,l,1,2.26457230001688,,,,,,,,,,,,yyf,m,23,2024-04-11_16h05.50.365,mian,2022.2.4,60.074564557812444,
4a,1,1,a,l,"[0.2, 0.2]",,,,,,,,,,,,,,,,,,,,0,48,48,48,,,,,,,,,,,,,,,,,l,1,1.201791499974206,,,,,,,,,,,,yyf,m,23,2024-04-11_16h05.50.365,mian,2022.2.4,60.074564557812444,
e3,1,2,e,l,"[-0.2, 0.2]",,,,,,,,,,,,,,,,,,,,0,49,49,49,,,,,,,,,,,,,,,,,l,1,0.5740878999931738,,,,,,,,,,,,yyf,m,23,2024-04-11_16h05.50.365,mian,2022.2.4,60.074564557812444,
5g,2,1,5.0,a,"[-0.2, -0.2]",,,,,,,,,,,,,,,,,,,,0,50,50,50,,,,,,,,,,,,,,,,,a,1,1.5781611000420526,,,,,,,,,,,,yyf,m,23,2024-04-11_16h05.50.365,mian,2022.2.4,60.074564557812444,
f4,2,2,4.0,l,"[0.2, -0.2]",,,,,,,,,,,,,,,,,,,,0,51,51,51,,,,,,,,,,,,,,,,,l,1,1.8402013999875635,,,,,,,,,,,,yyf,m,23,2024-04-11_16h05.50.365,mian,2022.2.4,60.074564557812444,
6E,1,1,E,a,"[0.2, 0.2]",,,,,,,,,,,,,,,,,,,,0,52,52,52,,,,,,,,,,,,,,,,,a,1,1.0098054999252781,,,,,,,,,,,,yyf,m,23,2024-04-11_16h05.50.365,mian,2022.2.4,60.074564557812444,
7A,1,2,A,a,"[-0.2, 0.2]",,,,,,,,,,,,,,,,,,,,0,53,53,53,,,,,,,,,,,,,,,,,a,1,0.45342770009301603,,,,,,,,,,,,yyf,m,23,2024-04-11_16h05.50.365,mian,2022.2.4,60.074564557812444,
F4,2,1,4.0,l,"[-0.2, -0.2]",,,,,,,,,,,,,,,,,,,,0,54,54,54,,,,,,,,,,,,,,,,,l,1,2.2547537999926135,,,,,,,,,,,,yyf,m,23,2024-04-11_16h05.50.365,mian,2022.2.4,60.074564557812444,
2g,2,2,2.0,l,"[0.2, -0.2]",,,,,,,,,,,,,,,,,,,,0,55,55,55,,,,,,,,,,,,,,,,,l,1,0.82446939998772,,,,,,,,,,,,yyf,m,23,2024-04-11_16h05.50.365,mian,2022.2.4,60.074564557812444,
7E,1,1,E,a,"[0.2, 0.2]",,,,,,,,,,,,,,,,,,,,0,56,56,56,,,,,,,,,,,,,,,,,a,1,0.9394046999514103,,,,,,,,,,,,yyf,m,23,2024-04-11_16h05.50.365,mian,2022.2.4,60.074564557812444,
G4,1,2,G,a,"[-0.2, 0.2]",,,,,,,,,,,,,,,,,,,,0,57,57,57,,,,,,,,,,,,,,,,,a,1,0.4812034999486059,,,,,,,,,,,,yyf,m,23,2024-04-11_16h05.50.365,mian,2022.2.4,60.074564557812444,
2F,2,1,2.0,l,"[-0.2, -0.2]",,,,,,,,,,,,,,,,,,,,0,58,58,58,,,,,,,,,,,,,,,,,l,1,1.1775831000413746,,,,,,,,,,,,yyf,m,23,2024-04-11_16h05.50.365,mian,2022.2.4,60.074564557812444,
E9,2,2,9.0,a,"[0.2, -0.2]",,,,,,,,,,,,,,,,,,,,0,59,59,59,,,,,,,,,,,,,,,,,a,1,1.0229315001051873,,,,,,,,,,,,yyf,m,23,2024-04-11_16h05.50.365,mian,2022.2.4,60.074564557812444,
5f,1,1,f,l,"[0.2, 0.2]",,,,,,,,,,,,,,,,,,,,0,60,60,60,,,,,,,,,,,,,,,,,l,1,1.0088961999863386,,,,,,,,,,,,yyf,m,23,2024-04-11_16h05.50.365,mian,2022.2.4,60.074564557812444,
e7,1,2,e,l,"[-0.2, 0.2]",,,,,,,,,,,,,,,,,,,,0,61,61,61,,,,,,,,,,,,,,,,,l,1,0.5245072999969125,,,,,,,,,,,,yyf,m,23,2024-04-11_16h05.50.365,mian,2022.2.4,60.074564557812444,
f2,2,1,2.0,l,"[-0.2, -0.2]",,,,,,,,,,,,,,,,,,,,0,62,62,62,,,,,,,,,,,,,,,,,l,1,2.2114905000198632,,,,,,,,,,,,yyf,m,23,2024-04-11_16h05.50.365,mian,2022.2.4,60.074564557812444,
G9,2,2,9.0,a,"[0.2, -0.2]",,,,,,,,,,,,,,,,,,,,0,63,63,63,,,,,,,,,,,,,,,,,a,1,0.6151572000235319,,,,,,,,,,,,yyf,m,23,2024-04-11_16h05.50.365,mian,2022.2.4,60.074564557812444,
7g,1,1,g,l,"[0.2, 0.2]",,,,,,,,,,,,,,,,,,,,0,64,64,64,,,,,,,,,,,,,,,,,l,1,1.9142598999897018,,,,,,,,,,,,yyf,m,23,2024-04-11_16h05.50.365,mian,2022.2.4,60.074564557812444,
F8,1,2,F,a,"[-0.2, 0.2]",,,,,,,,,,,,,,,,,,,,0,65,65,65,,,,,,,,,,,,,,,,,a,1,0.7225537000922486,,,,,,,,,,,,yyf,m,23,2024-04-11_16h05.50.365,mian,2022.2.4,60.074564557812444,
A7,2,1,7.0,a,"[-0.2, -0.2]",,,,,,,,,,,,,,,,,,,,0,66,66,66,,,,,,,,,,,,,,,,,a,1,2.824553700047545,,,,,,,,,,,,yyf,m,23,2024-04-11_16h05.50.365,mian,2022.2.4,60.074564557812444,
4G,2,2,4.0,l,"[0.2, -0.2]",,,,,,,,,,,,,,,,,,,,0,67,67,67,,,,,,,,,,,,,,,,,l,1,0.7725664000026882,,,,,,,,,,,,yyf,m,23,2024-04-11_16h05.50.365,mian,2022.2.4,60.074564557812444,
g2,1,1,g,l,"[0.2, 0.2]",,,,,,,,,,,,,,,,,,,,0,68,68,68,,,,,,,,,,,,,,,,,l,1,3.033935600076802,,,,,,,,,,,,yyf,m,23,2024-04-11_16h05.50.365,mian,2022.2.4,60.074564557812444,
g4,1,2,g,l,"[-0.2, 0.2]",,,,,,,,,,,,,,,,,,,,0,69,69,69,,,,,,,,,,,,,,,,,l,1,0.6522170999087393,,,,,,,,,,,,yyf,m,23,2024-04-11_16h05.50.365,mian,2022.2.4,60.074564557812444,
7a,2,1,7.0,a,"[-0.2, -0.2]",,,,,,,,,,,,,,,,,,,,0,70,70,70,,,,,,,,,,,,,,,,,a,1,1.7424425000790507,,,,,,,,,,,,yyf,m,23,2024-04-11_16h05.50.365,mian,2022.2.4,60.074564557812444,
8e,2,2,8.0,l,"[0.2, -0.2]",,,,,,,,,,,,,,,,,,,,0,71,71,71,,,,,,,,,,,,,,,,,l,1,1.6605231000576168,,,,,,,,,,,,yyf,m,23,2024-04-11_16h05.50.365,mian,2022.2.4,60.074564557812444,
h4,1,1,h,l,"[0.2, 0.2]",,,,,,,,,,,,,,,,,,,,0,72,72,72,,,,,,,,,,,,,,,,,l,1,2.773757299990393,,,,,,,,,,,,yyf,m,23,2024-04-11_16h05.50.365,mian,2022.2.4,60.074564557812444,
G8,1,2,G,a,"[-0.2, 0.2]",,,,,,,,,,,,,,,,,,,,0,73,73,73,,,,,,,,,,,,,,,,,a,1,0.9077170999953523,,,,,,,,,,,,yyf,m,23,2024-04-11_16h05.50.365,mian,2022.2.4,60.074564557812444,
6F,2,1,6.0,l,"[-0.2, -0.2]",,,,,,,,,,,,,,,,,,,,0,74,74,74,,,,,,,,,,,,,,,,,l,1,3.890572899952531,,,,,,,,,,,,yyf,m,23,2024-04-11_16h05.50.365,mian,2022.2.4,60.074564557812444,
g5,2,2,5.0,a,"[0.2, -0.2]",,,,,,,,,,,,,,,,,,,,0,75,75,75,,,,,,,,,,,,,,,,,a,1,0.9801866000052541,,,,,,,,,,,,yyf,m,23,2024-04-11_16h05.50.365,mian,2022.2.4,60.074564557812444,
G5,1,1,G,a,"[0.2, 0.2]",,,,,,,,,,,,,,,,,,,,0,76,76,76,,,,,,,,,,,,,,,,,a,1,3.889746400061995,,,,,,,,,,,,yyf,m,23,2024-04-11_16h05.50.365,mian,2022.2.4,60.074564557812444,
h5,1,2,h,l,"[-0.2, 0.2]",,,,,,,,,,,,,,,,,,,,0,77,77,77,,,,,,,,,,,,,,,,,l,1,0.5791495000012219,,,,,,,,,,,,yyf,m,23,2024-04-11_16h05.50.365,mian,2022.2.4,60.074564557812444,
9G,2,1,9.0,a,"[-0.2, -0.2]",,,,,,,,,,,,,,,,,,,,0,78,78,78,,,,,,,,,,,,,,,,,a,1,1.1758801999967545,,,,,,,,,,,,yyf,m,23,2024-04-11_16h05.50.365,mian,2022.2.4,60.074564557812444,
F3,2,2,3.0,a,"[0.2, -0.2]",,,,,,,,,,,,,,,,,,,,0,79,79,79,,,,,,,,,,,,,,,,,a,1,1.155909400084056,,,,,,,,,,,,yyf,m,23,2024-04-11_16h05.50.365,mian,2022.2.4,60.074564557812444,
,,,,,,1,0,pic/flanker5.png,pic/flanker3.png,a,l,,,,,,,,,,,,,,,,,,0,0,0,0,0,0,0,7,,,,,,,,,,,,548.0003481000895,549.1997113000834,549.1997113000834,549.7317749999929,a,1,0.8577014999464154,怀疑,l,1,1.5144280000822619,yyf,m,23,2024-04-11_16h05.50.365,mian,2022.2.4,60.074564557812444,
,,,,,,0,1,pic/flanker6.png,pic/flanker2.png,a,k,,,,,,,,,,,,,,,,,,0,0,0,0,0,1,1,2,,,,,,,,,,,,552.1982168999966,553.3976208000677,553.3976208000677,553.9656404000707,None,0,,雄厚,k,1,1.1855505999410525,yyf,m,23,2024-04-11_16h05.50.365,mian,2022.2.4,60.074564557812444,
,,,,,,0,1,pic/flanker5.png,pic/flanker1.png,s,k,,,,,,,,,,,,,,,,,,0,0,0,0,0,2,2,0,,,,,,,,,,,,556.7625786000863,557.9620042000897,557.9620042000897,558.5346469000215,s,1,0.6069581999909133,清秀,k,1,1.0244589999783784,yyf,m,23,2024-04-11_16h05.50.365,mian,2022.2.4,60.074564557812444,
,,,,,,0,0,pic/flanker5.png,pic/flanker1.png,s,l,,,,,,,,,,,,,,,,,,0,0,0,0,0,3,3,3,,,,,,,,,,,,560.2774862000952,561.4768508999841,561.4768508999841,562.0926655000076,s,1,0.4739170999964699,逃避,l,1,0.7050509999971837,yyf,m,23,2024-04-11_16h05.50.365,mian,2022.2.4,60.074564557812444,
,,,,,,1,0,pic/flanker6.png,pic/flanker4.png,s,l,,,,,,,,,,,,,,,,,,0,0,0,0,0,4,4,5,,,,,,,,,,,,563.3925870000385,564.5919584000949,564.5919584000949,565.2124696000246,s,1,0.5194966000271961,慌忙,l,1,0.8757017001044005,yyf,m,23,2024-04-11_16h05.50.365,mian,2022.2.4,60.074564557812444,
,,,,,,0,0,pic/flanker6.png,pic/flanker2.png,a,l,,,,,,,,,,,,,,,,,,0,0,0,0,0,5,5,1,,,,,,,,,,,,566.7242523999885,567.9236502000131,567.9236502000131,568.3378704000497,None,0,,假冒,l,1,1.0342083000577986,yyf,m,23,2024-04-11_16h05.50.365,mian,2022.2.4,60.074564557812444,
,,,,,,1,1,pic/flanker5.png,pic/flanker3.png,a,k,,,,,,,,,,,,,,,,,,0,0,0,0,0,6,6,4,,,,,,,,,,,,570.9887697000522,572.1881827000761,572.1881827000761,572.7722709000809,a,1,0.6604013000614941,优雅,k,1,0.8762974999845028,yyf,m,23,2024-04-11_16h05.50.365,mian,2022.2.4,60.074564557812444,
,,,,,,1,1,pic/flanker6.png,pic/flanker4.png,s,k,,,,,,,,,,,,,,,,,,0,0,0,0,0,7,7,6,,,,,,,,,,,,574.4036838000175,575.6031086000148,575.6031086000148,576.125468900078,s,1,0.6959151999326423,富足,k,1,0.6470269999699667,yyf,m,23,2024-04-11_16h05.50.365,mian,2022.2.4,60.074564557812444,
,,,,,,,,,,,,,,,,,,,,,,,,,,,,,0,0,0,0,,,,,,,,,,,,,,,,,,,,,,,,,,,yyf,m,23,2024-04-11_16h05.50.365,mian,2022.2.4,60.074564557812444,
,,,,,,0,0,pic/flanker6.png,pic/flanker2.png,a,l,pic/AffRest1.png,,,,,,,,,,,,,,,,,,,,,,,,,0,0,0,0,0,0,0,73,,,,589.8037464000518,590.8787690000609,591.0119813000783,591.5070035000099,a,1,0.5922181999776512,堵塞,l,1,0.7540524000069126,yyf,m,23,2024-04-11_16h05.50.365,mian,2022.2.4,60.074564557812444,
,,,,,,0,0,pic/flanker6.png,pic/flanker2.png,a,l,pic/AffRest1.png,,,,,,,,,,,,,,,,,,,,,,,,,0,0,0,0,0,1,1,41,,,,592.9610450000037,594.1604804000817,594.1604804000817,594.7730409000069,a,1,0.4947888000169769,郁闷,l,1,0.7244752999395132,yyf,m,23,2024-04-11_16h05.50.365,mian,2022.2.4,60.074564557812444,
,,,,,,0,0,pic/flanker6.png,pic/flanker2.png,a,l,pic/AffRest1.png,,,,,,,,,,,,,,,,,,,,,,,,,0,0,0,0,0,2,2,1,,,,596.1094121000497,597.3088211000431,597.3088211000431,597.7253403000068,a,1,0.4494896000251174,伤心,l,1,0.6652359999716282,yyf,m,23,2024-04-11_16h05.50.365,mian,2022.2.4,60.074564557812444,
,,,,,,1,1,pic/flanker6.png,pic/flanker4.png,s,k,pic/AffRest1.png,,,,,,,,,,,,,,,,,,,,,,,,,0,0,0,0,0,3,3,78,,,,598.9580391000491,600.1574125000043,600.1574125000043,600.6409513000399,s,1,0.5193734000204131,圣洁,k,1,0.8918900999706239,yyf,m,23,2024-04-11_16h05.50.365,mian,2022.2.4,60.074564557812444,
,,,,,,1,0,pic/flanker5.png,pic/flanker3.png,a,l,pic/AffRest1.png,,,,,,,,,,,,,,,,,,,,,,,,,0,0,0,0,0,4,4,63,,,,602.1564368000254,603.3557968999958,603.3557968999958,603.7907355000498,a,1,0.6512434999458492,烦恼,l,1,0.9704643000150099,yyf,m,23,2024-04-11_16h05.50.365,mian,2022.2.4,60.074564557812444,
,,,,,,0,1,pic/flanker5.png,pic/flanker1.png,s,k,pic/AffRest1.png,,,,,,,,,,,,,,,,,,,,,,,,,0,0,0,0,0,5,5,16,,,,605.5213554000948,606.7207903000526,606.7207903000526,607.1965460000793,s,1,0.6358114000177011,留恋,k,1,0.9566778000444174,yyf,m,23,2024-04-11_16h05.50.365,mian,2022.2.4,60.074564557812444,
,,,,,,1,1,pic/flanker5.png,pic/flanker3.png,a,k,pic/AffRest1.png,,,,,,,,,,,,,,,,,,,,,,,,,0,0,0,0,0,6,6,44,,,,608.9029754000949,610.102425100049,610.102425100049,610.718277500011,a,1,0.5769361000275239,瑰丽,k,1,0.6909438000293449,yyf,m,23,2024-04-11_16h05.50.365,mian,2022.2.4,60.074564557812444,
,,,,,,1,1,pic/flanker6.png,pic/flanker4.png,s,k,pic/AffRest1.png,,,,,,,,,,,,,,,,,,,,,,,,,0,0,0,0,0,7,7,30,,,,612.101417100057,613.300814300077,613.300814300077,613.8618418000406,s,1,0.48407449992373586,畅销,k,1,0.8423556999769062,yyf,m,23,2024-04-11_16h05.50.365,mian,2022.2.4,60.074564557812444,
,,,,,,1,1,pic/flanker6.png,pic/flanker4.png,s,k,pic/AffRest1.png,,,,,,,,,,,,,,,,,,,,,,,,,0,0,0,0,0,8,8,62,,,,615.3164044000441,616.5158221999882,616.5158221999882,617.0818692999892,s,1,0.48510429996531457,生动,k,1,0.6990687999641523,yyf,m,23,2024-04-11_16h05.50.365,mian,2022.2.4,60.074564557812444,
,,,,,,1,1,pic/flanker5.png,pic/flanker3.png,a,k,pic/AffRest1.png,,,,,,,,,,,,,,,,,,,,,,,,,0,0,0,0,0,9,9,28,,,,618.3816094000358,619.5809390000068,619.5809390000068,619.9929515999975,a,1,0.6335832999320701,丰满,k,1,0.658016600064002,yyf,m,23,2024-04-11_16h05.50.365,mian,2022.2.4,60.074564557812444,
,,,,,,1,0,pic/flanker6.png,pic/flanker4.png,s,l,pic/AffRest1.png,,,,,,,,,,,,,,,,,,,,,,,,,0,0,0,0,0,10,10,29,,,,621.4134535000194,622.6127566000214,622.6127566000214,623.2429223000072,s,1,0.4819590999977663,沮丧,l,1,0.6478315000422299,yyf,m,23,2024-04-11_16h05.50.365,mian,2022.2.4,60.074564557812444,
,,,,,,0,0,pic/flanker5.png,pic/flanker1.png,s,l,pic/AffRest1.png,,,,,,,,,,,,,,,,,,,,,,,,,0,0,0,0,0,11,11,11,,,,624.4784995000809,625.6779166000197,625.6779166000197,626.1402433000039,s,1,0.4790834999876097,忧虑,l,1,1.2774998999666423,yyf,m,23,2024-04-11_16h05.50.365,mian,2022.2.4,60.074564557812444,
,,,,,,0,1,pic/flanker6.png,pic/flanker2.png,a,k,pic/AffRest1.png,,,,,,,,,,,,,,,,,,,,,,,,,0,0,0,0,0,12,12,58,,,,628.0101069000084,629.2094211999793,629.2094211999793,629.6199198000832,a,1,0.4932309000287205,敬佩,k,1,0.7780374999856576,yyf,m,23,2024-04-11_16h05.50.365,mian,2022.2.4,60.074564557812444,
,,,,,,0,1,pic/flanker6.png,pic/flanker2.png,a,k,pic/AffRest1.png,,,,,,,,,,,,,,,,,,,,,,,,,0,0,0,0,0,13,13,18,,,,631.0252272000071,632.2245994000696,632.2245994000696,632.7917295000516,a,1,0.5123930000700057,精致,k,1,0.6135956000071019,yyf,m,23,2024-04-11_16h05.50.365,mian,2022.2.4,60.074564557812444,
,,,,,,0,0,pic/flanker5.png,pic/flanker1.png,s,l,pic/AffRest1.png,,,,,,,,,,,,,,,,,,,,,,,,,0,0,0,0,0,14,14,51,,,,634.0237036000472,635.2231115000322,635.2231115000322,635.7398564000614,s,1,0.45922680001240224,浪费,l,1,0.8515071000438184,yyf,m,23,2024-04-11_16h05.50.365,mian,2022.2.4,60.074564557812444,
,,,,,,1,0,pic/flanker6.png,pic/flanker4.png,s,l,pic/AffRest1.png,,,,,,,,,,,,,,,,,,,,,,,,,0,0,0,0,0,15,15,45,,,,637.1720902000088,638.3715414000908,638.3715414000908,638.838603900047,s,1,0.5211853999644518,假冒,l,1,0.6226942000212148,yyf,m,23,2024-04-11_16h05.50.365,mian,2022.2.4,60.074564557812444,
,,,,,,0,0,pic/flanker5.png,pic/flanker1.png,s,l,pic/AffRest1.png,,,,,,,,,,,,,,,,,,,,,,,,,0,0,0,0,0,16,16,35,,,,640.1039863000624,641.3033576000016,641.3033576000016,641.8156955000013,s,1,0.363421400077641,胡涂,l,1,0.6547038999851793,yyf,m,23,2024-04-11_16h05.50.365,mian,2022.2.4,60.074564557812444,
,,,,,,0,0,pic/flanker6.png,pic/flanker2.png,a,l,pic/AffRest1.png,,,,,,,,,,,,,,,,,,,,,,,,,0,0,0,0,0,17,17,33,,,,642.9525100000901,644.1519522999879,644.1519522999879,644.6632983000018,a,1,0.5389001000439748,撒谎,l,1,0.8948541999561712,yyf,m,23,2024-04-11_16h05.50.365,mian,2022.2.4,60.074564557812444,
,,,,,,0,0,pic/flanker5.png,pic/flanker1.png,s,l,pic/AffRest1.png,,,,,,,,,,,,,,,,,,,,,,,,,0,0,0,0,0,18,18,3,,,,646.2175722999964,647.4169425000437,647.4169425000437,647.9271136000752,s,1,0.42543850000947714,别扭,l,1,0.6420693999389187,yyf,m,23,2024-04-11_16h05.50.365,mian,2022.2.4,60.074564557812444,
,,,,,,0,1,pic/flanker5.png,pic/flanker1.png,s,k,pic/AffRest1.png,,,,,,,,,,,,,,,,,,,,,,,,,0,0,0,0,0,19,19,8,,,,649.1327307000756,650.3321425000904,650.3321425000904,650.9526426000521,s,1,0.3947022999636829,清秀,k,1,0.7325736000202596,yyf,m,23,2024-04-11_16h05.50.365,mian,2022.2.4,60.074564557812444,
,,,,,,1,1,pic/flanker6.png,pic/flanker4.png,s,k,pic/AffRest1.png,,,,,,,,,,,,,,,,,,,,,,,,,0,0,0,0,0,20,20,70,,,,652.1812239000574,653.3806462000357,653.3806462000357,653.7954975999892,s,1,0.4655388999963179,豪放,k,1,0.5208711000159383,yyf,m,23,2024-04-11_16h05.50.365,mian,2022.2.4,60.074564557812444,
,,,,,,1,1,pic/flanker5.png,pic/flanker3.png,a,k,pic/AffRest1.png,,,,,,,,,,,,,,,,,,,,,,,,,0,0,0,0,0,21,21,60,,,,654.9131898999913,656.1125919000478,656.1125919000478,656.7304527000524,a,1,0.44570779998321086,振作,k,1,0.6706318999640644,yyf,m,23,2024-04-11_16h05.50.365,mian,2022.2.4,60.074564557812444,
,,,,,,1,0,pic/flanker5.png,pic/flanker3.png,a,l,pic/AffRest1.png,,,,,,,,,,,,,,,,,,,,,,,,,0,0,0,0,0,22,22,39,,,,657.961664600065,659.1610259000445,659.1610259000445,659.692382600042,a,1,0.4892978999996558,孤单,l,1,0.6239197999238968,yyf,m,23,2024-04-11_16h05.50.365,mian,2022.2.4,60.074564557812444,
,,,,,,1,0,pic/flanker5.png,pic/flanker3.png,a,l,pic/AffRest1.png,,,,,,,,,,,,,,,,,,,,,,,,,0,0,0,0,0,23,23,71,,,,660.9101514000213,662.1095405999804,662.1095405999804,662.6703723000828,a,1,0.6184147000312805,自卑,l,1,0.9165378999896348,yyf,m,23,2024-04-11_16h05.50.365,mian,2022.2.4,60.074564557812444,
,,,,,,1,1,pic/flanker6.png,pic/flanker4.png,s,k,pic/AffRest1.png,,,,,,,,,,,,,,,,,,,,,,,,,0,0,0,0,0,24,24,6,,,,664.3417772999965,665.5411836000858,665.5411836000858,666.0000603999943,s,1,0.7038795000407845,秀丽,k,1,0.9488881999859586,yyf,m,23,2024-04-11_16h05.50.365,mian,2022.2.4,60.074564557812444,
,,,,,,1,0,pic/flanker5.png,pic/flanker3.png,a,l,pic/AffRest1.png,,,,,,,,,,,,,,,,,,,,,,,,,0,0,0,0,0,25,25,55,,,,667.7900071000913,668.9894126000581,668.9894126000581,669.5491298000561,a,1,0.5151442000642419,黑暗,l,1,1.0568124999990687,yyf,m,23,2024-04-11_16h05.50.365,mian,2022.2.4,60.074564557812444,
,,,,,,1,1,pic/flanker5.png,pic/flanker3.png,a,k,pic/AffRest1.png,,,,,,,,,,,,,,,,,,,,,,,,,0,0,0,0,0,26,26,52,,,,671.2549497000873,672.4544130000286,672.4544130000286,672.97102669999,a,1,0.532059199991636,诚恳,k,1,0.6245870999991894,yyf,m,23,2024-04-11_16h05.50.365,mian,2022.2.4,60.074564557812444,
,,,,,,0,0,pic/flanker6.png,pic/flanker2.png,a,l,pic/AffRest1.png,,,,,,,,,,,,,,,,,,,,,,,,,0,0,0,0,0,27,27,17,,,,674.2534528999822,675.4528652000008,675.4528652000008,675.8622639999958,a,1,0.4498905000509694,落后,l,1,0.7215837000403553,yyf,m,23,2024-04-11_16h05.50.365,mian,2022.2.4,60.074564557812444,
,,,,,,0,1,pic/flanker5.png,pic/flanker1.png,s,k,pic/AffRest1.png,,,,,,,,,,,,,,,,,,,,,,,,,0,0,0,0,0,28,28,40,,,,677.1686588000739,678.3680336000398,678.3680336000398,678.7826032000594,s,1,0.40789119992405176,有利,k,1,0.7280206999275833,yyf,m,23,2024-04-11_16h05.50.365,mian,2022.2.4,60.074564557812444,
,,,,,,1,1,pic/flanker6.png,pic/flanker4.png,s,k,pic/AffRest1.png,,,,,,,,,,,,,,,,,,,,,,,,,0,0,0,0,0,29,29,22,,,,680.0338834000286,681.2332780000288,681.2332780000288,681.6454417000059,s,1,0.46934589999727905,如愿,k,1,0.7485625999979675,yyf,m,23,2024-04-11_16h05.50.365,mian,2022.2.4,60.074564557812444,
,,,,,,1,1,pic/flanker6.png,pic/flanker4.png,s,k,pic/AffRest1.png,,,,,,,,,,,,,,,,,,,,,,,,,0,0,0,0,0,30,30,46,,,,682.9824031000026,684.1818322000327,684.1818322000327,684.7952344000805,s,1,0.47297439991962165,奉献,k,1,0.5906279999762774,yyf,m,23,2024-04-11_16h05.50.365,mian,2022.2.4,60.074564557812444,
,,,,,,1,0,pic/flanker5.png,pic/flanker3.png,a,l,pic/AffRest1.png,,,,,,,,,,,,,,,,,,,,,,,,,0,0,0,0,0,31,31,79,,,,685.9975356000941,687.1969593000831,687.1969593000831,687.6591520000948,a,1,0.7598057999275625,闷热,l,1,1.2351475999457762,yyf,m,23,2024-04-11_16h05.50.365,mian,2022.2.4,60.074564557812444,
,,,,,,0,1,pic/flanker5.png,pic/flanker1.png,s,k,pic/AffRest1.png,,,,,,,,,,,,,,,,,,,,,,,,,0,0,0,0,0,32,32,56,,,,689.77893400006,690.9783851000248,690.9783851000248,691.5937634999864,s,1,0.5087545999558643,热切,k,1,0.6259669000282884,yyf,m,23,2024-04-11_16h05.50.365,mian,2022.2.4,60.074564557812444,
,,,,,,1,0,pic/flanker6.png,pic/flanker4.png,s,l,pic/AffRest1.png,,,,,,,,,,,,,,,,,,,,,,,,,0,0,0,0,0,33,33,21,,,,692.8440978000872,694.0434702000348,694.0434702000348,694.5077771000797,s,1,0.48891039995942265,懒惰,l,1,0.6954660000046715,yyf,m,23,2024-04-11_16h05.50.365,mian,2022.2.4,60.074564557812444,
,,,,,,1,0,pic/flanker6.png,pic/flanker4.png,s,l,pic/AffRest1.png,,,,,,,,,,,,,,,,,,,,,,,,,0,0,0,0,0,34,34,61,,,,695.8092983000679,697.0086538000032,697.0086538000032,697.4793681000592,s,1,0.4836399999912828,处罚,l,1,1.426156900008209,yyf,m,23,2024-04-11_16h05.50.365,mian,2022.2.4,60.074564557812444,
,,,,,,0,1,pic/flanker6.png,pic/flanker2.png,a,k,pic/AffRest1.png,,,,,,,,,,,,,,,,,,,,,,,,,0,0,0,0,0,35,35,50,,,,699.5074226000579,700.7068332000636,700.7068332000636,701.1664504000219,a,1,0.5539545000065118,赞成,k,1,0.9602788999909535,yyf,m,23,2024-04-11_16h05.50.365,mian,2022.2.4,60.074564557812444,
,,,,,,0,0,pic/flanker6.png,pic/flanker2.png,a,l,pic/AffRest1.png,,,,,,,,,,,,,,,,,,,,,,,,,0,0,0,0,0,36,36,9,,,,702.8057674000738,704.0051566000329,704.0051566000329,704.5259922000114,a,1,0.5571254000533372,慌忙,l,1,0.6975161000154912,yyf,m,23,2024-04-11_16h05.50.365,mian,2022.2.4,60.074564557812444,
,,,,,,1,1,pic/flanker6.png,pic/flanker4.png,s,k,pic/AffRest1.png,,,,,,,,,,,,,,,,,,,,,,,,,0,0,0,0,0,37,37,38,,,,705.887592800078,707.0869696000591,707.0869696000591,707.6109068000223,s,1,0.5073595000430942,享受,k,1,0.600935299997218,yyf,m,23,2024-04-11_16h05.50.365,mian,2022.2.4,60.074564557812444,
,,,,,,0,1,pic/flanker5.png,pic/flanker1.png,s,k,pic/AffRest1.png,,,,,,,,,,,,,,,,,,,,,,,,,0,0,0,0,0,38,38,32,,,,708.8360136999981,710.0354355000891,710.0354355000891,710.5971876999829,s,1,0.34962619992438704,羡慕,k,1,0.5765508998883888,yyf,m,23,2024-04-11_16h05.50.365,mian,2022.2.4,60.074564557812444,
,,,,,,1,1,pic/flanker5.png,pic/flanker3.png,a,k,pic/AffRest1.png,,,,,,,,,,,,,,,,,,,,,,,,,0,0,0,0,0,39,39,68,,,,711.651262700092,712.8507767000701,712.8507767000701,713.3761531000491,a,1,0.5198602000018582,俊秀,k,1,0.5172758999979123,yyf,m,23,2024-04-11_16h05.50.365,mian,2022.2.4,60.074564557812444,
,,,,,,0,1,pic/flanker5.png,pic/flanker1.png,s,k,pic/AffRest1.png,,,,,,,,,,,,,,,,,,,,,,,,,0,0,0,0,0,40,40,0,,,,714.5331748999888,715.7325619000476,715.7325619000476,716.1415946000488,s,1,0.3697095999959856,吉祥,k,1,0.42888349993154407,yyf,m,23,2024-04-11_16h05.50.365,mian,2022.2.4,60.074564557812444,
,,,,,,1,1,pic/flanker5.png,pic/flanker3.png,a,k,pic/AffRest1.png,,,,,,,,,,,,,,,,,,,,,,,,,0,0,0,0,0,41,41,76,,,,717.0652122000465,718.2646095000673,718.2646095000673,718.8256558000576,a,1,0.7283471000846475,廉洁,k,1,0.9288534000515938,yyf,m,23,2024-04-11_16h05.50.365,mian,2022.2.4,60.074564557812444,
,,,,,,1,0,pic/flanker6.png,pic/flanker4.png,s,l,pic/AffRest1.png,,,,,,,,,,,,,,,,,,,,,,,,,0,0,0,0,0,42,42,13,,,,720.6134357000701,721.8128733000485,721.8128733000485,722.3240989000769,s,1,0.46193730004597455,厌恶,l,1,0.7731971000321209,yyf,m,23,2024-04-11_16h05.50.365,mian,2022.2.4,60.074564557812444,
,,,,,,1,0,pic/flanker6.png,pic/flanker4.png,s,l,pic/AffRest1.png,,,,,,,,,,,,,,,,,,,,,,,,,0,0,0,0,0,43,43,53,,,,723.6785704999929,724.8779491999885,724.8779491999885,725.4926529000513,s,1,0.5765864999266341,缺乏,l,1,0.6833320000441745,yyf,m,23,2024-04-11_16h05.50.365,mian,2022.2.4,60.074564557812444,
,,,,,,0,0,pic/flanker6.png,pic/flanker2.png,a,l,pic/AffRest1.png,,,,,,,,,,,,,,,,,,,,,,,,,0,0,0,0,0,44,44,25,,,,726.876934900065,728.0764020000352,728.0764020000352,728.5448871999979,a,1,0.5521388999186456,穷苦,l,1,0.6835852999938652,yyf,m,23,2024-04-11_16h05.50.365,mian,2022.2.4,60.074564557812444,
,,,,,,1,1,pic/flanker6.png,pic/flanker4.png,s,k,pic/AffRest1.png,,,,,,,,,,,,,,,,,,,,,,,,,0,0,0,0,0,45,45,54,,,,729.9087861999869,731.108173900051,731.108173900051,731.5713008000748,s,1,0.47201799997128546,爽朗,k,1,0.6073562999954447,yyf,m,23,2024-04-11_16h05.50.365,mian,2022.2.4,60.074564557812444,
,,,,,,0,1,pic/flanker6.png,pic/flanker2.png,a,k,pic/AffRest1.png,,,,,,,,,,,,,,,,,,,,,,,,,0,0,0,0,0,46,46,74,,,,732.7739831000799,733.9733936000848,733.9733936000848,734.4834676000755,a,1,0.4129920999985188,顽强,k,1,0.7830992999952286,yyf,m,23,2024-04-11_16h05.50.365,mian,2022.2.4,60.074564557812444,
,,,,,,1,1,pic/flanker6.png,pic/flanker4.png,s,k,pic/AffRest1.png,,,,,,,,,,,,,,,,,,,,,,,,,0,0,0,0,0,47,47,14,,,,735.7891135000391,736.988526500063,736.988526500063,737.4607474000659,s,1,0.5603661999339238,典雅,k,1,0.5280031999573112,yyf,m,23,2024-04-11_16h05.50.365,mian,2022.2.4,60.074564557812444,
,,,,,,1,1,pic/flanker5.png,pic/flanker3.png,a,k,pic/AffRest1.png,,,,,,,,,,,,,,,,,,,,,,,,,0,0,0,0,0,48,48,20,,,,738.6710467999801,739.8704017000273,739.8704017000273,740.3904080000939,a,1,0.5801870999857783,正直,k,1,0.83091100002639,yyf,m,23,2024-04-11_16h05.50.365,mian,2022.2.4,60.074564557812444,
,,,,,,0,0,pic/flanker5.png,pic/flanker1.png,s,l,pic/AffRest1.png,,,,,,,,,,,,,,,,,,,,,,,,,0,0,0,0,0,49,49,43,,,,741.9027360000182,743.1021326000337,743.1021326000337,743.5192361000227,s,1,0.4001921999733895,怀疑,l,1,0.6815883999224752,yyf,m,23,2024-04-11_16h05.50.365,mian,2022.2.4,60.074564557812444,
,,,,,,1,0,pic/flanker5.png,pic/flanker3.png,a,l,pic/AffRest1.png,,,,,,,,,,,,,,,,,,,,,,,,,0,0,0,0,0,50,50,7,,,,744.7179727000184,745.9173559000483,745.9173559000483,746.3345353000332,a,1,0.9049630999797955,逃避,l,1,0.6474432999966666,yyf,m,23,2024-04-11_16h05.50.365,mian,2022.2.4,60.074564557812444,
,,,,,,0,1,pic/flanker6.png,pic/flanker2.png,a,k,pic/AffRest1.png,,,,,,,,,,,,,,,,,,,,,,,,,0,0,0,0,0,51,51,34,,,,747.9996978000272,749.1990950000472,749.1990950000472,749.6669849000173,a,1,0.5018464000895619,富丽,k,1,0.6513090999796987,yyf,m,23,2024-04-11_16h05.50.365,mian,2022.2.4,60.074564557812444,
,,,,,,0,1,pic/flanker5.png,pic/flanker1.png,s,k,pic/AffRest1.png,,,,,,,,,,,,,,,,,,,,,,,,,0,0,0,0,0,52,52,64,,,,750.9482126000803,752.1475850000279,752.1475850000279,752.7665638000472,s,1,0.4273980000289157,前进,k,1,0.6281408000504598,yyf,m,23,2024-04-11_16h05.50.365,mian,2022.2.4,60.074564557812444,
,,,,,,1,0,pic/flanker5.png,pic/flanker3.png,a,l,pic/AffRest1.png,,,,,,,,,,,,,,,,,,,,,,,,,0,0,0,0,0,53,53,31,,,,753.9300365999807,755.1294380000327,755.1294380000327,755.5933858000208,a,1,0.7466392000205815,轻率,l,1,1.086555099929683,yyf,m,23,2024-04-11_16h05.50.365,mian,2022.2.4,60.074564557812444,
,,,,,,1,0,pic/flanker5.png,pic/flanker3.png,a,l,pic/AffRest1.png,,,,,,,,,,,,,,,,,,,,,,,,,0,0,0,0,0,54,54,15,,,,757.5448861999903,758.7442699000239,758.7442699000239,759.208063500002,a,1,0.644718199968338,鲁莽,l,1,0.5731132999062538,yyf,m,23,2024-04-11_16h05.50.365,mian,2022.2.4,60.074564557812444,
,,,,,,0,1,pic/flanker6.png,pic/flanker2.png,a,k,pic/AffRest1.png,,,,,,,,,,,,,,,,,,,,,,,,,0,0,0,0,0,55,55,66,,,,760.5433870999841,761.7427411000244,761.7427411000244,762.1579178000102,a,1,0.3841850000899285,旺盛,k,1,0.6421278000343591,yyf,m,23,2024-04-11_16h05.50.365,mian,2022.2.4,60.074564557812444,
,,,,,,1,1,pic/flanker5.png,pic/flanker3.png,a,k,pic/AffRest1.png,,,,,,,,,,,,,,,,,,,,,,,,,0,0,0,0,0,56,56,36,,,,763.3086075000465,764.508026800002,764.508026800002,764.9739511000225,a,1,0.46438190003391355,鲜艳,k,1,0.6078109999652952,yyf,m,23,2024-04-11_16h05.50.365,mian,2022.2.4,60.074564557812444,
,,,,,,1,0,pic/flanker6.png,pic/flanker4.png,s,l,pic/AffRest1.png,,,,,,,,,,,,,,,,,,,,,,,,,0,0,0,0,0,57,57,37,,,,766.1572048000526,767.3566042000894,767.3566042000894,767.9188125000801,s,1,0.5558624000987038,排斥,k,0,0.8072685000952333,yyf,m,23,2024-04-11_16h05.50.365,mian,2022.2.4,60.074564557812444,
,,,,,,0,1,pic/flanker6.png,pic/flanker2.png,a,k,pic/AffRest1.png,,,,,,,,,,,,,,,,,,,,,,,,,0,0,0,0,0,58,58,42,,,,769.4055171000073,770.6049717999995,770.6049717999995,771.022002200014,a,1,0.5303355999058113,公平,k,1,1.7325912000378594,yyf,m,23,2024-04-11_16h05.50.365,mian,2022.2.4,60.074564557812444,
,,,,,,0,0,pic/flanker5.png,pic/flanker1.png,s,l,pic/AffRest1.png,,,,,,,,,,,,,,,,,,,,,,,,,0,0,0,0,0,59,59,67,,,,773.4035466000205,774.6029132000403,774.6029132000403,775.0328972000862,s,1,0.4438763000071049,悲观,l,1,0.9400518001057208,yyf,m,23,2024-04-11_16h05.50.365,mian,2022.2.4,60.074564557812444,
,,,,,,0,0,pic/flanker5.png,pic/flanker1.png,s,l,pic/AffRest1.png,,,,,,,,,,,,,,,,,,,,,,,,,0,0,0,0,0,60,60,19,,,,776.5186492000939,777.7180116000818,777.7180116000818,778.1858548000455,s,1,0.4062021999852732,消沉,l,1,0.8244954000692815,yyf,m,23,2024-04-11_16h05.50.365,mian,2022.2.4,60.074564557812444,
,,,,,,0,1,pic/flanker6.png,pic/flanker2.png,a,k,pic/AffRest1.png,,,,,,,,,,,,,,,,,,,,,,,,,0,0,0,0,0,61,61,10,,,,779.5337826000759,780.7331955999834,780.7331955999834,781.3492643000791,a,1,0.6094763999572024,富足,k,1,0.6835661999648437,yyf,m,23,2024-04-11_16h05.50.365,mian,2022.2.4,60.074564557812444,
,,,,,,0,0,pic/flanker5.png,pic/flanker1.png,s,l,pic/AffRest1.png,,,,,,,,,,,,,,,,,,,,,,,,,0,0,0,0,0,62,62,59,,,,782.7654779000441,783.9649212000659,783.9649212000659,784.4318337000441,s,1,0.3833452999824658,争吵,l,1,0.5779252999927849,yyf,m,23,2024-04-11_16h05.50.365,mian,2022.2.4,60.074564557812444,
,,,,,,0,0,pic/flanker6.png,pic/flanker2.png,a,l,pic/AffRest1.png,,,,,,,,,,,,,,,,,,,,,,,,,0,0,0,0,0,63,63,49,,,,785.514103100053,786.7135308000725,786.7135308000725,787.2784362999955,a,1,0.4873884000116959,损害,l,1,0.863835999974981,yyf,m,23,2024-04-11_16h05.50.365,mian,2022.2.4,60.074564557812444,
,,,,,,1,1,pic/flanker5.png,pic/flanker3.png,a,k,pic/AffRest1.png,,,,,,,,,,,,,,,,,,,,,,,,,0,0,0,0,0,64,64,4,,,,788.7624972000485,789.961858500028,789.961858500028,790.524100300041,a,1,0.5431289999978617,优雅,k,1,0.6510384000139311,yyf,m,23,2024-04-11_16h05.50.365,mian,2022.2.4,60.074564557812444,
,,,,,,1,1,pic/flanker5.png,pic/flanker3.png,a,k,pic/AffRest1.png,,,,,,,,,,,,,,,,,,,,,,,,,0,0,0,0,0,65,65,12,,,,791.8443075000541,793.0436356000137,793.0436356000137,793.6599004000891,a,1,0.514905699994415,永恒,k,1,0.6641149000497535,yyf,m,23,2024-04-11_16h05.50.365,mian,2022.2.4,60.074564557812444,
,,,,,,1,0,pic/flanker6.png,pic/flanker4.png,s,l,pic/AffRest1.png,,,,,,,,,,,,,,,,,,,,,,,,,0,0,0,0,0,66,66,5,,,,794.9593821000308,796.1587696000934,796.1587696000934,796.5783234999981,s,1,0.5277581999544054,罚款,l,1,0.7892704999540001,yyf,m,23,2024-04-11_16h05.50.365,mian,2022.2.4,60.074564557812444,
,,,,,,0,1,pic/flanker5.png,pic/flanker1.png,s,k,pic/AffRest1.png,,,,,,,,,,,,,,,,,,,,,,,,,0,0,0,0,0,67,67,72,,,,798.0078345000511,799.2072273000376,799.2072273000376,799.7241252000676,s,1,0.5556293999543414,卓越,k,1,0.6229383999016136,yyf,m,23,2024-04-11_16h05.50.365,mian,2022.2.4,60.074564557812444,
,,,,,,1,0,pic/flanker5.png,pic/flanker3.png,a,l,pic/AffRest1.png,,,,,,,,,,,,,,,,,,,,,,,,,0,0,0,0,0,68,68,47,,,,801.022993599996,802.2223867999855,802.2223867999855,802.6901919000084,a,1,0.7026167999720201,失意,l,1,0.7744161000009626,yyf,m,23,2024-04-11_16h05.50.365,mian,2022.2.4,60.074564557812444,
,,,,,,0,1,pic/flanker6.png,pic/flanker2.png,a,k,pic/AffRest1.png,,,,,,,,,,,,,,,,,,,,,,,,,0,0,0,0,0,69,69,26,,,,804.288023000001,805.4873996999813,805.4873996999813,805.9036336999852,a,1,0.41478409990668297,珍藏,k,1,0.5444376000668854,yyf,m,23,2024-04-11_16h05.50.365,mian,2022.2.4,60.074564557812444,
,,,,,,0,0,pic/flanker6.png,pic/flanker2.png,a,l,pic/AffRest1.png,,,,,,,,,,,,,,,,,,,,,,,,,0,0,0,0,0,70,70,57,,,,806.969998500077,808.1694208000554,808.1694208000554,808.7840029000072,a,1,0.39745839999523014,杂乱,l,1,0.5433734999969602,yyf,m,23,2024-04-11_16h05.50.365,mian,2022.2.4,60.074564557812444,
,,,,,,1,0,pic/flanker5.png,pic/flanker3.png,a,l,pic/AffRest1.png,,,,,,,,,,,,,,,,,,,,,,,,,0,0,0,0,0,71,71,23,,,,809.8351849000901,811.0346611000132,811.0346611000132,811.6110916000325,a,1,0.4857352999970317,丢失,l,1,0.9962357999756932,yyf,m,23,2024-04-11_16h05.50.365,mian,2022.2.4,60.074564557812444,
,,,,,,0,1,pic/flanker5.png,pic/flanker1.png,s,k,pic/AffRest1.png,,,,,,,,,,,,,,,,,,,,,,,,,0,0,0,0,0,72,72,48,,,,813.2001887999941,814.3995548000094,814.3995548000094,815.0169036000734,s,1,0.5108088999986649,舒畅,k,1,0.6921897999709472,yyf,m,23,2024-04-11_16h05.50.365,mian,2022.2.4,60.074564557812444,
,,,,,,0,1,pic/flanker6.png,pic/flanker2.png,a,k,pic/AffRest1.png,,,,,,,,,,,,,,,,,,,,,,,,,0,0,0,0,0,73,73,2,,,,816.3319044000236,817.5313750000205,817.5313750000205,817.9431333000539,a,1,0.4514847999671474,充裕,k,1,0.6741625999566168,yyf,m,23,2024-04-11_16h05.50.365,mian,2022.2.4,60.074564557812444,
,,,,,,1,0,pic/flanker6.png,pic/flanker4.png,s,l,pic/AffRest1.png,,,,,,,,,,,,,,,,,,,,,,,,,0,0,0,0,0,74,74,77,,,,819.1971769999946,820.3965696999803,820.3965696999803,820.80955060001,s,1,0.6417392999865115,禁止,l,1,0.6660446999594569,yyf,m,23,2024-04-11_16h05.50.365,mian,2022.2.4,60.074564557812444,
,,,,,,0,1,pic/flanker5.png,pic/flanker1.png,s,k,pic/AffRest1.png,,,,,,,,,,,,,,,,,,,,,,,,,0,0,0,0,0,75,75,24,,,,822.2289784000022,823.4283285000129,823.4283285000129,823.9496020000661,s,1,0.462198399938643,雄厚,k,1,0.6617105000186712,yyf,m,23,2024-04-11_16h05.50.365,mian,2022.2.4,60.074564557812444,
,,,,,,0,0,pic/flanker5.png,pic/flanker1.png,s,l,pic/AffRest1.png,,,,,,,,,,,,,,,,,,,,,,,,,0,0,0,0,0,76,76,75,,,,825.1774744000286,826.3768988000229,826.3768988000229,826.9380672000116,s,1,0.39961070008575916,冷笑,l,1,0.7534480000613257,yyf,m,23,2024-04-11_16h05.50.365,mian,2022.2.4,60.074564557812444,
,,,,,,1,0,pic/flanker6.png,pic/flanker4.png,s,l,pic/AffRest1.png,,,,,,,,,,,,,,,,,,,,,,,,,0,0,0,0,0,77,77,69,,,,828.2259576000506,829.4253817000426,829.4253817000426,829.8902673000703,s,1,0.4751076999818906,心慌,l,1,0.6821989000309259,yyf,m,23,2024-04-11_16h05.50.365,mian,2022.2.4,60.074564557812444,
,,,,,,0,0,pic/flanker6.png,pic/flanker2.png,a,l,pic/AffRest1.png,,,,,,,,,,,,,,,,,,,,,,,,,0,0,0,0,0,78,78,65,,,,831.1577927999897,832.3572106000502,832.3572106000502,832.9737750000786,a,1,0.47383480006828904,焦躁,l,1,0.6240580999292433,yyf,m,23,2024-04-11_16h05.50.365,mian,2022.2.4,60.074564557812444,
,,,,,,0,0,pic/flanker5.png,pic/flanker1.png,s,l,pic/AffRest1.png,,,,,,,,,,,,,,,,,,,,,,,,,0,0,0,0,0,79,79,27,,,,834.1896237999899,835.3890553000383,835.3890553000383,835.9014570000581,s,1,0.48590960004366934,嘲笑,l,1,0.7516897999448702,yyf,m,23,2024-04-11_16h05.50.365,mian,2022.2.4,60.074564557812444,
,,,,,,,,,,,,pic/AffRest1.png,,,,,,,,,,,,,,,,,,,,,,,,,0,0,0,0,,,,,,,,,,,,,,,,,,,yyf,m,23,2024-04-11_16h05.50.365,mian,2022.2.4,60.074564557812444,
,,,,,,1,0,pic/flanker6.png,pic/flanker4.png,s,l,pic/AffRest2.png,,,,,,,,,,,,,,,,,,,,,,,,,0,1,1,1,0,0,0,5,,,,841.8626748999814,843.0518662000541,843.068515400053,843.6193604000146,s,1,0.6926983000012115,黑暗,l,1,0.7946250000968575,yyf,m,23,2024-04-11_16h05.50.365,mian,2022.2.4,60.074564557812444,
,,,,,,1,0,pic/flanker6.png,pic/flanker4.png,s,l,pic/AffRest2.png,,,,,,,,,,,,,,,,,,,,,,,,,0,1,1,1,0,1,1,13,,,,845.2174111000495,846.4168025000254,846.4168025000254,846.8848033000249,s,1,0.5796085000038147,撒谎,l,1,0.6543766000540927,yyf,m,23,2024-04-11_16h05.50.365,mian,2022.2.4,60.074564557812444,
,,,,,,1,0,pic/flanker5.png,pic/flanker3.png,a,l,pic/AffRest2.png,,,,,,,,,,,,,,,,,,,,,,,,,0,1,1,1,0,2,2,55,,,,848.2325378999813,849.431989600067,849.431989600067,849.9916996000102,a,1,0.4881880999309942,罚款,l,1,0.5430436000460759,yyf,m,23,2024-04-11_16h05.50.365,mian,2022.2.4,60.074564557812444,
,,,,,,0,0,pic/flanker6.png,pic/flanker2.png,a,l,pic/AffRest2.png,,,,,,,,,,,,,,,,,,,,,,,,,0,1,1,1,0,3,3,73,,,,851.1477458000882,852.3471613000147,852.3471613000147,852.772429900011,a,1,0.7227454000385478,争吵,l,1,1.048234899993986,yyf,m,23,2024-04-11_16h05.50.365,mian,2022.2.4,60.074564557812444,
,,,,,,1,1,pic/flanker6.png,pic/flanker4.png,s,k,pic/AffRest2.png,,,,,,,,,,,,,,,,,,,,,,,,,0,1,1,1,0,4,4,6,,,,854.6463308000239,855.845406300039,855.845406300039,856.3672277000733,s,1,0.46947030001319945,瑰丽,k,1,0.6360059999860823,yyf,m,23,2024-04-11_16h05.50.365,mian,2022.2.4,60.074564557812444,
,,,,,,0,1,pic/flanker6.png,pic/flanker2.png,a,k,pic/AffRest2.png,,,,,,,,,,,,,,,,,,,,,,,,,0,1,1,1,0,5,5,26,,,,857.5945132999914,858.7938951000106,858.7938951000106,859.307040499989,a,1,0.5608385000377893,圣洁,k,1,0.7001281999982893,yyf,m,23,2024-04-11_16h05.50.365,mian,2022.2.4,60.074564557812444,
,,,,,,0,1,pic/flanker6.png,pic/flanker2.png,a,k,pic/AffRest2.png,,,,,,,,,,,,,,,,,,,,,,,,,0,1,1,1,0,6,6,10,,,,860.6929448000155,861.8923235000111,861.8923235000111,862.4638244999805,a,1,0.46010989998467267,富足,k,1,0.48413320002146065,yyf,m,23,2024-04-11_16h05.50.365,mian,2022.2.4,60.074564557812444,
,,,,,,1,0,pic/flanker6.png,pic/flanker4.png,s,l,pic/AffRest2.png,,,,,,,,,,,,,,,,,,,,,,,,,0,1,1,1,0,7,7,37,,,,863.5248975000577,864.7242649000837,864.7242649000837,865.2868664000416,s,1,0.5404645999660715,自卑,l,1,0.7683406999567524,yyf,m,23,2024-04-11_16h05.50.365,mian,2022.2.4,60.074564557812444,
,,,,,,1,0,pic/flanker6.png,pic/flanker4.png,s,l,pic/AffRest2.png,,,,,,,,,,,,,,,,,,,,,,,,,0,1,1,1,0,8,8,77,,,,866.7232528000604,867.92262940004,867.92262940004,868.3414478000486,s,1,0.4676055000163615,慌忙,l,1,0.8461207000073045,yyf,m,23,2024-04-11_16h05.50.365,mian,2022.2.4,60.074564557812444,
,,,,,,0,0,pic/flanker5.png,pic/flanker1.png,s,l,pic/AffRest2.png,,,,,,,,,,,,,,,,,,,,,,,,,0,1,1,1,0,9,9,75,,,,869.7883546000812,870.9877924000612,870.9877924000612,871.5980911999941,s,1,0.410913800005801,处罚,l,1,0.5324395999778062,yyf,m,23,2024-04-11_16h05.50.365,mian,2022.2.4,60.074564557812444,
,,,,,,0,0,pic/flanker5.png,pic/flanker1.png,s,l,pic/AffRest2.png,,,,,,,,,,,,,,,,,,,,,,,,,0,1,1,1,0,10,10,3,,,,872.6536035999889,873.8530355000403,873.8530355000403,874.2759141999995,s,1,0.4016607999801636,丢失,l,1,0.5233352999202907,yyf,m,23,2024-04-11_16h05.50.365,mian,2022.2.4,60.074564557812444,
,,,,,,1,0,pic/flanker5.png,pic/flanker3.png,a,l,pic/AffRest2.png,,,,,,,,,,,,,,,,,,,,,,,,,0,1,1,1,0,11,11,71,,,,875.3189461000729,876.5183301999932,876.5183301999932,876.9397858000593,a,1,0.5437702999915928,孤单,l,1,0.7645065999822691,yyf,m,23,2024-04-11_16h05.50.365,mian,2022.2.4,60.074564557812444,
,,,,,,0,0,pic/flanker5.png,pic/flanker1.png,s,l,pic/AffRest2.png,,,,,,,,,,,,,,,,,,,,,,,,,0,1,1,1,0,12,12,11,,,,878.3507387000136,879.5500997999916,879.5500997999916,880.067900700029,s,1,0.44476929993834347,烦恼,l,1,0.8440636000595987,yyf,m,23,2024-04-11_16h05.50.365,mian,2022.2.4,60.074564557812444,
,,,,,,0,0,pic/flanker5.png,pic/flanker1.png,s,l,pic/AffRest2.png,,,,,,,,,,,,,,,,,,,,,,,,,0,1,1,1,0,13,13,67,,,,881.4658309000079,882.6651970000239,882.6651970000239,883.0823113999795,s,1,0.5169781999429688,厌恶,l,1,0.6257552000461146,yyf,m,23,2024-04-11_16h05.50.365,mian,2022.2.4,60.074564557812444,
,,,,,,0,1,pic/flanker5.png,pic/flanker1.png,s,k,pic/AffRest2.png,,,,,,,,,,,,,,,,,,,,,,,,,0,1,1,1,0,14,14,0,,,,884.3477326000575,885.5470667000627,885.5470667000627,886.1229062000057,s,1,0.3658721001120284,精致,k,1,0.7052256000461057,yyf,m,23,2024-04-11_16h05.50.365,mian,2022.2.4,60.074564557812444,
,,,,,,1,1,pic/flanker6.png,pic/flanker4.png,s,k,pic/AffRest2.png,,,,,,,,,,,,,,,,,,,,,,,,,0,1,1,1,0,15,15,22,,,,887.3129023000365,888.5123029000824,888.5123029000824,889.1411756000016,s,1,0.4781116000376642,廉洁,k,1,0.7090936999302357,yyf,m,23,2024-04-11_16h05.50.365,mian,2022.2.4,60.074564557812444,
,,,,,,1,0,pic/flanker6.png,pic/flanker4.png,s,l,pic/AffRest2.png,,,,,,,,,,,,,,,,,,,,,,,,,0,1,1,1,0,16,16,53,,,,890.4279942000285,891.6273857000051,891.6273857000051,892.1877202000469,s,1,0.4528701000381261,忧虑,l,1,0.7643094999948516,yyf,m,23,2024-04-11_16h05.50.365,mian,2022.2.4,60.074564557812444,
,,,,,,1,1,pic/flanker6.png,pic/flanker4.png,s,k,pic/AffRest2.png,,,,,,,,,,,,,,,,,,,,,,,,,0,1,1,1,0,17,17,30,,,,893.5264835000271,894.725872799987,894.725872799987,895.2982760000741,s,1,0.4986145000439137,公平,k,1,0.896521299961023,yyf,m,23,2024-04-11_16h05.50.365,mian,2022.2.4,60.074564557812444,
,,,,,,0,1,pic/flanker5.png,pic/flanker1.png,s,k,pic/AffRest2.png,,,,,,,,,,,,,,,,,,,,,,,,,0,1,1,1,0,18,18,16,,,,896.8080835000146,898.0074670000467,898.0074670000467,898.4200794000644,s,1,0.4231875999830663,充裕,k,1,0.631590300006792,yyf,m,23,2024-04-11_16h05.50.365,mian,2022.2.4,60.074564557812444,
,,,,,,1,1,pic/flanker5.png,pic/flanker3.png,a,k,pic/AffRest2.png,,,,,,,,,,,,,,,,,,,,,,,,,0,1,1,1,0,19,19,12,,,,899.590019700001,900.7894516000524,900.7894516000524,901.2535659000278,a,1,0.5832769999979064,旺盛,k,1,0.9533279999159276,yyf,m,23,2024-04-11_16h05.50.365,mian,2022.2.4,60.074564557812444,
,,,,,,1,0,pic/flanker6.png,pic/flanker4.png,s,l,pic/AffRest2.png,,,,,,,,,,,,,,,,,,,,,,,,,0,1,1,1,0,20,20,21,,,,902.9217044999823,904.1210643000668,904.1210643000668,904.7437004999956,s,1,0.5573494000127539,胡涂,l,1,0.730396099970676,yyf,m,23,2024-04-11_16h05.50.365,mian,2022.2.4,60.074564557812444,
,,,,,,1,1,pic/flanker5.png,pic/flanker3.png,a,k,pic/AffRest2.png,,,,,,,,,,,,,,,,,,,,,,,,,0,1,1,1,0,21,21,60,,,,906.1533855000744,907.3527875000145,907.3527875000145,907.825717800064,a,1,0.7231211999896914,诚恳,k,1,0.6329190999967977,yyf,m,23,2024-04-11_16h05.50.365,mian,2022.2.4,60.074564557812444,
,,,,,,1,0,pic/flanker6.png,pic/flanker4.png,s,l,pic/AffRest2.png,,,,,,,,,,,,,,,,,,,,,,,,,0,1,1,1,0,22,22,29,,,,909.2851344000082,910.4845961000537,910.4845961000537,910.9946944999974,s,1,0.5261642000405118,损害,l,1,0.6591839999891818,yyf,m,23,2024-04-11_16h05.50.365,mian,2022.2.4,60.074564557812444,
,,,,,,0,1,pic/flanker6.png,pic/flanker2.png,a,k,pic/AffRest2.png,,,,,,,,,,,,,,,,,,,,,,,,,0,1,1,1,0,23,23,74,,,,912.3002850000048,913.4997199000791,913.4997199000791,913.9610113999806,a,1,0.5369087000144646,生动,k,1,0.6293360999552533,yyf,m,23,2024-04-11_16h05.50.365,mian,2022.2.4,60.074564557812444,
,,,,,,0,1,pic/flanker6.png,pic/flanker2.png,a,k,pic/AffRest2.png,,,,,,,,,,,,,,,,,,,,,,,,,0,1,1,1,0,24,24,50,,,,915.2488521999912,916.4482260000659,916.4482260000659,916.961219000048,a,1,0.42655860004015267,奉献,k,1,0.5227992000291124,yyf,m,23,2024-04-11_16h05.50.365,mian,2022.2.4,60.074564557812444,
,,,,,,1,0,pic/flanker6.png,pic/flanker4.png,s,l,pic/AffRest2.png,,,,,,,,,,,,,,,,,,,,,,,,,0,1,1,1,0,25,25,45,,,,918.0307731000939,919.2301701999968,919.2301701999968,919.6526130000129,s,1,0.5521655000047758,怀疑,l,1,0.732183099957183,yyf,m,23,2024-04-11_16h05.50.365,mian,2022.2.4,60.074564557812444,
,,,,,,0,1,pic/flanker6.png,pic/flanker2.png,a,k,pic/AffRest2.png,,,,,,,,,,,,,,,,,,,,,,,,,0,1,1,1,0,26,26,42,,,,921.0459600000177,922.2453072000062,922.2453072000062,922.7757359000389,a,1,0.42934570007491857,舒畅,k,1,1.2105006999336183,yyf,m,23,2024-04-11_16h05.50.365,mian,2022.2.4,60.074564557812444,
,,,,,,1,1,pic/flanker6.png,pic/flanker4.png,s,k,pic/AffRest2.png,,,,,,,,,,,,,,,,,,,,,,,,,0,1,1,1,0,27,27,62,,,,924.5274813000578,925.7268468000693,925.7268468000693,926.1394806000171,s,1,0.5354613999370486,羡慕,k,1,0.5317308999365196,yyf,m,23,2024-04-11_16h05.50.365,mian,2022.2.4,60.074564557812444,
,,,,,,1,0,pic/flanker5.png,pic/flanker3.png,a,l,pic/AffRest2.png,,,,,,,,,,,,,,,,,,,,,,,,,0,1,1,1,0,28,28,47,,,,927.3261048999848,928.5254903000314,928.5254903000314,929.1361838000594,a,1,0.5928787000011653,堵塞,l,1,0.9868272000458091,yyf,m,23,2024-04-11_16h05.50.365,mian,2022.2.4,60.074564557812444,
,,,,,,1,0,pic/flanker5.png,pic/flanker3.png,a,l,pic/AffRest2.png,,,,,,,,,,,,,,,,,,,,,,,,,0,1,1,1,0,29,29,39,,,,930.8409795000916,932.0403464999981,932.0403464999981,932.5029134000652,a,1,0.7316241000080481,沮丧,l,1,0.8404897000873461,yyf,m,23,2024-04-11_16h05.50.365,mian,2022.2.4,60.074564557812444,
,,,,,,0,0,pic/flanker6.png,pic/flanker2.png,a,l,pic/AffRest2.png,,,,,,,,,,,,,,,,,,,,,,,,,0,1,1,1,0,30,30,9,,,,934.2059693000047,935.4053882000735,935.4053882000735,935.8814657999901,a,1,0.7185775999678299,禁止,l,1,0.6284073999850079,yyf,m,23,2024-04-11_16h05.50.365,mian,2022.2.4,60.074564557812444,
,,,,,,1,1,pic/flanker5.png,pic/flanker3.png,a,k,pic/AffRest2.png,,,,,,,,,,,,,,,,,,,,,,,,,0,1,1,1,0,31,31,68,,,,937.3377622000407,938.5370753000025,938.5370753000025,939.0568023000378,a,1,0.62495059997309,享受,k,1,0.8098115999018773,yyf,m,23,2024-04-11_16h05.50.365,mian,2022.2.4,60.074564557812444,
,,,,,,1,1,pic/flanker6.png,pic/flanker4.png,s,k,pic/AffRest2.png,,,,,,,,,,,,,,,,,,,,,,,,,0,1,1,1,0,32,32,78,,,,940.6027435000287,941.8020907000173,941.8020907000173,942.3191903000697,s,1,0.55191530007869,爽朗,k,1,0.7082112000789493,yyf,m,23,2024-04-11_16h05.50.365,mian,2022.2.4,60.074564557812444,
,,,,,,1,1,pic/flanker6.png,pic/flanker4.png,s,k,pic/AffRest2.png,,,,,,,,,,,,,,,,,,,,,,,,,0,1,1,1,0,33,33,38,,,,943.701180000091,944.9005692000501,944.9005692000501,945.4225284000859,s,1,0.5824832000071183,丰满,k,1,0.4632723000831902,yyf,m,23,2024-04-11_16h05.50.365,mian,2022.2.4,60.074564557812444,
,,,,,,1,1,pic/flanker6.png,pic/flanker4.png,s,k,pic/AffRest2.png,,,,,,,,,,,,,,,,,,,,,,,,,0,1,1,1,0,34,34,54,,,,946.5996924000792,947.7991068999982,947.7991068999982,948.4309610000346,s,1,0.5031613000901416,振作,k,1,0.5491212999913841,yyf,m,23,2024-04-11_16h05.50.365,mian,2022.2.4,60.074564557812444,
,,,,,,0,1,pic/flanker6.png,pic/flanker2.png,a,k,pic/AffRest2.png,,,,,,,,,,,,,,,,,,,,,,,,,0,1,1,1,0,35,35,18,,,,949.5815131000709,950.7809537000721,950.7809537000721,951.3489069000352,a,1,0.7312804999528453,赞成,k,1,0.6168531000148505,yyf,m,23,2024-04-11_16h05.50.365,mian,2022.2.4,60.074564557812444,
,,,,,,0,0,pic/flanker6.png,pic/flanker2.png,a,l,pic/AffRest2.png,,,,,,,,,,,,,,,,,,,,,,,,,0,1,1,1,0,36,36,17,,,,952.8132278000703,954.0126396000851,954.0126396000851,954.5733311000513,a,1,0.48357909999322146,浪费,l,1,0.8336572999833152,yyf,m,23,2024-04-11_16h05.50.365,mian,2022.2.4,60.074564557812444,
,,,,,,0,0,pic/flanker6.png,pic/flanker2.png,a,l,pic/AffRest2.png,,,,,,,,,,,,,,,,,,,,,,,,,0,1,1,1,0,37,37,33,,,,956.028261700063,957.227719000075,957.227719000075,957.790605599992,a,1,0.452455599908717,落后,l,1,0.6202743999892846,yyf,m,23,2024-04-11_16h05.50.365,mian,2022.2.4,60.074564557812444,
,,,,,,0,0,pic/flanker6.png,pic/flanker2.png,a,l,pic/AffRest2.png,,,,,,,,,,,,,,,,,,,,,,,,,0,1,1,1,0,38,38,57,,,,958.9934500000672,960.1928709000349,960.1928709000349,960.6057691000169,a,1,0.42975609994027764,懒惰,l,1,0.6788510999176651,yyf,m,23,2024-04-11_16h05.50.365,mian,2022.2.4,60.074564557812444,
,,,,,,1,0,pic/flanker5.png,pic/flanker3.png,a,l,pic/AffRest2.png,,,,,,,,,,,,,,,,,,,,,,,,,0,1,1,1,0,39,39,63,,,,961.8253505000612,963.024756000028,963.024756000028,963.6444236000534,a,1,0.7732240000041202,轻率,l,1,0.805955299991183,yyf,m,23,2024-04-11_16h05.50.365,mian,2022.2.4,60.074564557812444,
,,,,,,0,1,pic/flanker5.png,pic/flanker1.png,s,k,pic/AffRest2.png,,,,,,,,,,,,,,,,,,,,,,,,,0,1,1,1,0,40,40,24,,,,965.3568954000948,966.5563511000946,966.5563511000946,967.0225177999819,s,1,0.6475812999997288,富丽,k,1,0.5999634000472724,yyf,m,23,2024-04-11_16h05.50.365,mian,2022.2.4,60.074564557812444,
,,,,,,0,0,pic/flanker5.png,pic/flanker1.png,s,l,pic/AffRest2.png,,,,,,,,,,,,,,,,,,,,,,,,,0,1,1,1,0,41,41,19,,,,968.3887364000548,969.5881146000465,969.5881146000465,970.1205094000325,s,1,0.3820591999683529,郁闷,l,1,0.6159672000212595,yyf,m,23,2024-04-11_16h05.50.365,mian,2022.2.4,60.074564557812444,
,,,,,,0,0,pic/flanker6.png,pic/flanker2.png,a,l,pic/AffRest2.png,,,,,,,,,,,,,,,,,,,,,,,,,0,1,1,1,0,42,42,65,,,,971.2206744999858,972.4201047000242,972.4201047000242,972.8938045999967,a,1,0.6245848999824375,穷苦,l,1,1.4094842000631616,yyf,m,23,2024-04-11_16h05.50.365,mian,2022.2.4,60.074564557812444,
,,,,,,0,0,pic/flanker5.png,pic/flanker1.png,s,l,pic/AffRest2.png,,,,,,,,,,,,,,,,,,,,,,,,,0,1,1,1,0,43,43,43,,,,975.0353648000164,976.2347810000647,976.2347810000647,976.7499722000211,s,1,0.6636723999399692,嘲笑,l,1,0.7917611999437213,yyf,m,23,2024-04-11_16h05.50.365,mian,2022.2.4,60.074564557812444,
,,,,,,0,1,pic/flanker5.png,pic/flanker1.png,s,k,pic/AffRest2.png,,,,,,,,,,,,,,,,,,,,,,,,,0,1,1,1,0,44,44,64,,,,978.3171090000542,979.5165032000514,979.5165032000514,980.1003708000062,s,1,0.4595975000411272,留恋,k,1,0.8355311000486836,yyf,m,23,2024-04-11_16h05.50.365,mian,2022.2.4,60.074564557812444,
,,,,,,0,0,pic/flanker6.png,pic/flanker2.png,a,l,pic/AffRest2.png,,,,,,,,,,,,,,,,,,,,,,,,,0,1,1,1,0,45,45,41,,,,981.4988144000527,982.6982360000256,982.6982360000256,983.1170735000633,a,1,0.491919600055553,消沉,l,1,0.6744547999696806,yyf,m,23,2024-04-11_16h05.50.365,mian,2022.2.4,60.074564557812444,
,,,,,,1,0,pic/flanker5.png,pic/flanker3.png,a,l,pic/AffRest2.png,,,,,,,,,,,,,,,,,,,,,,,,,0,1,1,1,0,46,46,31,,,,984.3973582000472,985.5967377000488,985.5967377000488,986.0599681000458,a,1,0.679576399968937,假冒,l,1,0.6460574000375345,yyf,m,23,2024-04-11_16h05.50.365,mian,2022.2.4,60.074564557812444,
,,,,,,0,1,pic/flanker6.png,pic/flanker2.png,a,k,pic/AffRest2.png,,,,,,,,,,,,,,,,,,,,,,,,,0,1,1,1,0,47,47,58,,,,987.4957870000508,988.6952023000922,988.6952023000922,989.1068839000072,a,1,0.43890980002470315,永恒,k,1,0.7832028999691829,yyf,m,23,2024-04-11_16h05.50.365,mian,2022.2.4,60.074564557812444,
,,,,,,1,1,pic/flanker5.png,pic/flanker3.png,a,k,pic/AffRest2.png,,,,,,,,,,,,,,,,,,,,,,,,,0,1,1,1,0,48,48,44,,,,990.460962500074,991.6603710000636,991.6603710000636,992.1900402000174,a,1,0.7338543001096696,敬佩,k,1,0.7707899999804795,yyf,m,23,2024-04-11_16h05.50.365,mian,2022.2.4,60.074564557812444,
,,,,,,1,1,pic/flanker6.png,pic/flanker4.png,s,k,pic/AffRest2.png,,,,,,,,,,,,,,,,,,,,,,,,,0,1,1,1,0,49,49,46,,,,993.8092480000341,995.0086840000004,995.0086840000004,995.6318222000264,s,1,0.5495058000087738,如愿,k,1,1.1370929999975488,yyf,m,23,2024-04-11_16h05.50.365,mian,2022.2.4,60.074564557812444,
,,,,,,0,0,pic/flanker6.png,pic/flanker2.png,a,l,pic/AffRest2.png,,,,,,,,,,,,,,,,,,,,,,,,,0,1,1,1,0,50,50,1,,,,997.4407903000247,998.6401874000439,998.6401874000439,999.1593630000716,a,1,0.4905424000462517,心慌,l,1,0.6559836000669748,yyf,m,23,2024-04-11_16h05.50.365,mian,2022.2.4,60.074564557812444,
,,,,,,0,1,pic/flanker5.png,pic/flanker1.png,s,k,pic/AffRest2.png,,,,,,,,,,,,,,,,,,,,,,,,,0,1,1,1,0,51,51,48,,,,1000.4226302000461,1001.622069300036,1001.622069300036,1002.0494070000714,s,1,0.4085454000160098,吉祥,k,1,0.6754521999973804,yyf,m,23,2024-04-11_16h05.50.365,mian,2022.2.4,60.074564557812444,
,,,,,,0,1,pic/flanker5.png,pic/flanker1.png,s,k,pic/AffRest2.png,,,,,,,,,,,,,,,,,,,,,,,,,0,1,1,1,0,52,52,8,,,,1003.2378682000563,1004.4372759000398,1004.4372759000398,1004.9540340000531,s,1,0.4525736999930814,俊秀,l,0,0.7403588999295607,yyf,m,23,2024-04-11_16h05.50.365,mian,2022.2.4,60.074564557812444,
,,,,,,0,0,pic/flanker6.png,pic/flanker2.png,a,l,pic/AffRest2.png,,,,,,,,,,,,,,,,,,,,,,,,,0,1,1,1,0,53,53,25,,,,1006.2696810000343,1007.4690802000696,1007.4690802000696,1008.0865315999836,a,1,0.6493346999632195,排斥,l,1,0.6888580999802798,yyf,m,23,2024-04-11_16h05.50.365,mian,2022.2.4,60.074564557812444,
,,,,,,0,0,pic/flanker5.png,pic/flanker1.png,s,l,pic/AffRest2.png,,,,,,,,,,,,,,,,,,,,,,,,,0,1,1,1,0,54,54,27,,,,1009.5513155000517,1010.7507895000745,1010.7507895000745,1011.365771300043,s,1,0.5271672999951988,失意,l,1,0.6927652000449598,yyf,m,23,2024-04-11_16h05.50.365,mian,2022.2.4,60.074564557812444,
,,,,,,1,1,pic/flanker5.png,pic/flanker3.png,a,k,pic/AffRest2.png,,,,,,,,,,,,,,,,,,,,,,,,,0,1,1,1,0,55,55,20,,,,1012.6997669000411,1013.8992129000835,1013.8992129000835,1014.3114495000336,a,1,0.7226767999818549,优雅,k,1,0.6318838000297546,yyf,m,23,2024-04-11_16h05.50.365,mian,2022.2.4,60.074564557812444,
,,,,,,1,1,pic/flanker5.png,pic/flanker3.png,a,k,pic/AffRest2.png,,,,,,,,,,,,,,,,,,,,,,,,,0,1,1,1,0,56,56,4,,,,1015.781548500061,1016.9809826000128,1016.9809826000128,1017.3952121000038,a,1,0.5453674000455067,热切,k,1,0.5817455999786034,yyf,m,23,2024-04-11_16h05.50.365,mian,2022.2.4,60.074564557812444,
,,,,,,0,0,pic/flanker5.png,pic/flanker1.png,s,l,pic/AffRest2.png,,,,,,,,,,,,,,,,,,,,,,,,,0,1,1,1,0,57,57,35,,,,1018.6301356999902,1019.8295347000239,1019.8295347000239,1020.3005989000667,s,1,0.5111557999625802,缺乏,l,1,0.6804874000372365,yyf,m,23,2024-04-11_16h05.50.365,mian,2022.2.4,60.074564557812444,
,,,,,,0,1,pic/flanker6.png,pic/flanker2.png,a,k,pic/AffRest2.png,,,,,,,,,,,,,,,,,,,,,,,,,0,1,1,1,0,58,58,66,,,,1021.6119308000198,1022.8113720000256,1022.8113720000256,1023.4270569999935,a,1,0.5148187999147922,有利,k,1,0.5844124999130145,yyf,m,23,2024-04-11_16h05.50.365,mian,2022.2.4,60.074564557812444,
,,,,,,0,1,pic/flanker5.png,pic/flanker1.png,s,k,pic/AffRest2.png,,,,,,,,,,,,,,,,,,,,,,,,,0,1,1,1,0,59,59,40,,,,1024.6604283000343,1025.85983020009,1025.85983020009,1026.4723211000673,s,1,0.5064647999824956,豪放,k,1,0.8966751999687403,yyf,m,23,2024-04-11_16h05.50.365,mian,2022.2.4,60.074564557812444,
,,,,,,1,0,pic/flanker5.png,pic/flanker3.png,a,l,pic/AffRest2.png,,,,,,,,,,,,,,,,,,,,,,,,,0,1,1,1,0,60,60,23,,,,1027.992127800011,1029.1914547000779,1029.1914547000779,1029.754197100061,a,1,0.6327185000991449,闷热,l,1,0.6732653999933973,yyf,m,23,2024-04-11_16h05.50.365,mian,2022.2.4,60.074564557812444,
,,,,,,1,1,pic/flanker6.png,pic/flanker4.png,s,k,pic/AffRest2.png,,,,,,,,,,,,,,,,,,,,,,,,,0,1,1,1,0,61,61,70,,,,1031.1904919000808,1032.3898423000937,1032.3898423000937,1032.9547432999825,s,1,0.6500227999640629,畅销,k,1,0.6739123000297695,yyf,m,23,2024-04-11_16h05.50.365,mian,2022.2.4,60.074564557812444,
,,,,,,0,0,pic/flanker5.png,pic/flanker1.png,s,l,pic/AffRest2.png,,,,,,,,,,,,,,,,,,,,,,,,,0,1,1,1,0,62,62,51,,,,1034.4054952000733,1035.6049194000661,1035.6049194000661,1036.1763039000798,s,1,0.45972369995433837,杂乱,l,1,0.6744802000466734,yyf,m,23,2024-04-11_16h05.50.365,mian,2022.2.4,60.074564557812444,
,,,,,,0,0,pic/flanker5.png,pic/flanker1.png,s,l,pic/AffRest2.png,,,,,,,,,,,,,,,,,,,,,,,,,0,1,1,1,0,63,63,59,,,,1037.4206841000123,1038.6200613999972,1038.6200613999972,1039.093350399984,s,1,0.40824100002646446,冷笑,l,1,0.9079550999449566,yyf,m,23,2024-04-11_16h05.50.365,mian,2022.2.4,60.074564557812444,
,,,,,,0,0,pic/flanker6.png,pic/flanker2.png,a,l,pic/AffRest2.png,,,,,,,,,,,,,,,,,,,,,,,,,0,1,1,1,0,64,64,49,,,,1040.5191268000053,1041.7185120000504,1041.7185120000504,1042.2786166000878,a,1,0.4735749000683427,焦躁,l,1,0.96832159999758,yyf,m,23,2024-04-11_16h05.50.365,mian,2022.2.4,60.074564557812444,
,,,,,,1,1,pic/flanker5.png,pic/flanker3.png,a,k,pic/AffRest2.png,,,,,,,,,,,,,,,,,,,,,,,,,0,1,1,1,0,65,65,36,,,,1043.850785800023,1045.0501381000504,1045.0501381000504,1045.5213447000133,a,1,0.6184201999567449,秀丽,k,1,0.5316461999900639,yyf,m,23,2024-04-11_16h05.50.365,mian,2022.2.4,60.074564557812444,
,,,,,,0,1,pic/flanker6.png,pic/flanker2.png,a,k,pic/AffRest2.png,,,,,,,,,,,,,,,,,,,,,,,,,0,1,1,1,0,66,66,2,,,,1046.7826227000915,1047.9820246000309,1047.9820246000309,1048.5946327000856,a,1,0.4798651000019163,清秀,k,1,0.5754097999306396,yyf,m,23,2024-04-11_16h05.50.365,mian,2022.2.4,60.074564557812444,
,,,,,,1,1,pic/flanker5.png,pic/flanker3.png,a,k,pic/AffRest2.png,,,,,,,,,,,,,,,,,,,,,,,,,0,1,1,1,0,67,67,76,,,,1049.7644676000345,1050.9638689000858,1050.9638689000858,1051.4244766000193,a,1,0.48854040005244315,卓越,k,1,0.8944581999676302,yyf,m,23,2024-04-11_16h05.50.365,mian,2022.2.4,60.074564557812444,
,,,,,,0,1,pic/flanker6.png,pic/flanker2.png,a,k,pic/AffRest2.png,,,,,,,,,,,,,,,,,,,,,,,,,0,1,1,1,0,68,68,34,,,,1052.929512700066,1054.1288884000387,1054.1288884000387,1054.6482464000583,a,1,0.4332854999229312,正直,k,1,0.6659031000453979,yyf,m,23,2024-04-11_16h05.50.365,mian,2022.2.4,60.074564557812444,
,,,,,,1,0,pic/flanker6.png,pic/flanker4.png,s,l,pic/AffRest2.png,,,,,,,,,,,,,,,,,,,,,,,,,0,1,1,1,0,69,69,69,,,,1055.8613671000348,1057.0607536000898,1057.0607536000898,1057.5317349000834,s,1,0.5677307998994365,悲观,l,1,0.6679557999596,yyf,m,23,2024-04-11_16h05.50.365,mian,2022.2.4,60.074564557812444,
,,,,,,1,1,pic/flanker6.png,pic/flanker4.png,s,k,pic/AffRest2.png,,,,,,,,,,,,,,,,,,,,,,,,,0,1,1,1,0,70,70,14,,,,1058.8932133000344,1060.0925814000657,1060.0925814000657,1060.666952700005,s,1,0.5397310999687761,典雅,k,1,0.6476044000592083,yyf,m,23,2024-04-11_16h05.50.365,mian,2022.2.4,60.074564557812444,
,,,,,,1,0,pic/flanker5.png,pic/flanker3.png,a,l,pic/AffRest2.png,,,,,,,,,,,,,,,,,,,,,,,,,0,1,1,1,0,71,71,15,,,,1061.958284900058,1063.1577310999855,1063.1577310999855,1063.5720704999985,a,1,0.6085762000875548,鲁莽,l,1,0.7705108999507502,yyf,m,23,2024-04-11_16h05.50.365,mian,2022.2.4,60.074564557812444,
,,,,,,1,1,pic/flanker5.png,pic/flanker3.png,a,k,pic/AffRest2.png,,,,,,,,,,,,,,,,,,,,,,,,,0,1,1,1,0,72,72,28,,,,1065.0733997999923,1066.2728012000443,1066.2728012000443,1066.6847305999836,a,1,0.7489327000221238,珍藏,k,1,0.5527834999375045,yyf,m,23,2024-04-11_16h05.50.365,mian,2022.2.4,60.074564557812444,
,,,,,,1,1,pic/flanker5.png,pic/flanker3.png,a,k,pic/AffRest2.png,,,,,,,,,,,,,,,,,,,,,,,,,0,1,1,1,0,73,73,52,,,,1068.1218809999991,1069.3212916000048,1069.3212916000048,1069.9348005000502,a,1,0.5725455000065267,前进,k,1,0.5516384000657126,yyf,m,23,2024-04-11_16h05.50.365,mian,2022.2.4,60.074564557812444,
,,,,,,0,1,pic/flanker5.png,pic/flanker1.png,s,k,pic/AffRest2.png,,,,,,,,,,,,,,,,,,,,,,,,,0,1,1,1,0,74,74,32,,,,1071.187018000055,1072.3864108000416,1072.3864108000416,1072.9147357000038,s,1,0.48047930002212524,鲜艳,k,1,0.5270908999955282,yyf,m,23,2024-04-11_16h05.50.365,mian,2022.2.4,60.074564557812444,
,,,,,,1,0,pic/flanker6.png,pic/flanker4.png,s,l,pic/AffRest2.png,,,,,,,,,,,,,,,,,,,,,,,,,0,1,1,1,0,75,75,61,,,,1074.0188991000177,1075.2183146000607,1075.2183146000607,1075.6938475000206,s,1,0.4981843000277877,伤心,l,1,0.691664700047113,yyf,m,23,2024-04-11_16h05.50.365,mian,2022.2.4,60.074564557812444,
,,,,,,0,1,pic/flanker5.png,pic/flanker1.png,s,k,pic/AffRest2.png,,,,,,,,,,,,,,,,,,,,,,,,,0,1,1,1,0,76,76,56,,,,1077.0007243000437,1078.2001553000882,1078.2001553000882,1078.772530300077,s,1,0.40014799998607486,顽强,k,1,1.0979065999854356,yyf,m,23,2024-04-11_16h05.50.365,mian,2022.2.4,60.074564557812444,
,,,,,,0,1,pic/flanker5.png,pic/flanker1.png,s,k,pic/AffRest2.png,,,,,,,,,,,,,,,,,,,,,,,,,0,1,1,1,0,77,77,72,,,,1080.3823963000905,1081.581780700013,1081.581780700013,1082.1053288000403,s,1,0.38794919999781996,雄厚,k,1,0.5666653000516817,yyf,m,23,2024-04-11_16h05.50.365,mian,2022.2.4,60.074564557812444,
,,,,,,1,0,pic/flanker5.png,pic/flanker3.png,a,l,pic/AffRest2.png,,,,,,,,,,,,,,,,,,,,,,,,,0,1,1,1,0,78,78,79,,,,1083.1810109000653,1084.3803945999825,1084.3803945999825,1084.953997900011,a,1,0.652187000028789,别扭,l,1,0.8358992000576109,yyf,m,23,2024-04-11_16h05.50.365,mian,2022.2.4,60.074564557812444,
,,,,,,1,0,pic/flanker5.png,pic/flanker3.png,a,l,pic/AffRest2.png,,,,,,,,,,,,,,,,,,,,,,,,,0,1,1,1,0,79,79,7,,,,1086.562598700053,1087.7620251000626,1087.7620251000626,1088.3780091999797,a,1,0.5407601000042632,逃避,l,1,0.8492506999755278,yyf,m,23,2024-04-11_16h05.50.365,mian,2022.2.4,60.074564557812444,
,,,,,,,,,,,,pic/AffRest2.png,,,,,,,,,,,,,,,,,,,,,,,,,0,1,1,1,,,,,,,,,,,,,,,,,,,yyf,m,23,2024-04-11_16h05.50.365,mian,2022.2.4,60.074564557812444,
,,,,,,0,1,pic/flanker6.png,pic/flanker2.png,a,k,pic/AffRest3.png,,,,,,,,,,,,,,,,,,,,,,,,,0,2,2,2,0,0,0,42,,,,1094.520703200018,1095.7080355000217,1095.7246293000644,1096.3312679000665,a,1,0.5618276000022888,舒畅,k,1,0.7174736999440938,yyf,m,23,2024-04-11_16h05.50.365,mian,2022.2.4,60.074564557812444,
,,,,,,1,0,pic/flanker5.png,pic/flanker3.png,a,l,pic/AffRest3.png,,,,,,,,,,,,,,,,,,,,,,,,,0,2,2,2,0,1,1,15,,,,1097.7236112999963,1098.9230583000463,1098.9230583000463,1099.5425918999827,a,1,0.6189000000013039,忧虑,l,1,0.6841602999484167,yyf,m,23,2024-04-11_16h05.50.365,mian,2022.2.4,60.074564557812444,
,,,,,,1,1,pic/flanker5.png,pic/flanker3.png,a,k,pic/AffRest3.png,,,,,,,,,,,,,,,,,,,,,,,,,0,2,2,2,0,2,2,28,,,,1100.9720258000307,1102.171439100057,1102.171439100057,1102.7412663000869,a,1,0.49317910009995103,正直,k,1,0.6100463999900967,yyf,m,23,2024-04-11_16h05.50.365,mian,2022.2.4,60.074564557812444,
,,,,,,0,1,pic/flanker5.png,pic/flanker1.png,s,k,pic/AffRest3.png,,,,,,,,,,,,,,,,,,,,,,,,,0,2,2,2,0,3,3,24,,,,1103.953854600084,1105.153257500031,1105.153257500031,1105.717140300083,s,1,0.47860979998949915,生动,k,1,1.0058551999973133,yyf,m,23,2024-04-11_16h05.50.365,mian,2022.2.4,60.074564557812444,
,,,,,,1,0,pic/flanker6.png,pic/flanker4.png,s,l,pic/AffRest3.png,,,,,,,,,,,,,,,,,,,,,,,,,0,2,2,2,0,4,4,53,,,,1107.3187879000325,1108.518242500024,1108.518242500024,1109.1331960000098,s,1,0.4955277000553906,堵塞,l,1,0.5902775999857113,yyf,m,23,2024-04-11_16h05.50.365,mian,2022.2.4,60.074564557812444,
,,,,,,0,1,pic/flanker6.png,pic/flanker2.png,a,k,pic/AffRest3.png,,,,,,,,,,,,,,,,,,,,,,,,,0,2,2,2,0,5,5,66,,,,1110.333962899982,1111.5333825000562,1111.5333825000562,1111.9967454000143,a,1,0.47097379993647337,奉献,k,1,0.5417515999870375,yyf,m,23,2024-04-11_16h05.50.365,mian,2022.2.4,60.074564557812444,
,,,,,,1,1,pic/flanker6.png,pic/flanker4.png,s,k,pic/AffRest3.png,,,,,,,,,,,,,,,,,,,,,,,,,0,2,2,2,0,6,6,6,,,,1113.1325584000442,1114.3319489000132,1114.3319489000132,1114.8511480999878,s,1,0.4859452999662608,豪放,k,1,0.9327044000383466,yyf,m,23,2024-04-11_16h05.50.365,mian,2022.2.4,60.074564557812444,
,,,,,,1,0,pic/flanker6.png,pic/flanker4.png,s,l,pic/AffRest3.png,,,,,,,,,,,,,,,,,,,,,,,,,0,2,2,2,0,7,7,77,,,,1116.380928000086,1117.580335900071,1117.580335900071,1118.1481105000712,s,1,0.5483092999784276,争吵,l,1,0.5990794999524951,yyf,m,23,2024-04-11_16h05.50.365,mian,2022.2.4,60.074564557812444,
,,,,,,0,0,pic/flanker6.png,pic/flanker2.png,a,l,pic/AffRest3.png,,,,,,,,,,,,,,,,,,,,,,,,,0,2,2,2,0,8,8,41,,,,1119.4127099000616,1120.6121212000726,1120.6121212000726,1121.0308982999995,a,1,0.4262734000803903,损害,l,1,0.6118543000193313,yyf,m,23,2024-04-11_16h05.50.365,mian,2022.2.4,60.074564557812444,
,,,,,,1,0,pic/flanker5.png,pic/flanker3.png,a,l,pic/AffRest3.png,,,,,,,,,,,,,,,,,,,,,,,,,0,2,2,2,0,9,9,55,,,,1122.1946852999972,1123.3940746000735,1123.3940746000735,1123.9079181000125,a,1,0.4400942000793293,烦恼,l,1,0.5041247000917792,yyf,m,23,2024-04-11_16h05.50.365,mian,2022.2.4,60.074564557812444,
,,,,,,1,1,pic/flanker5.png,pic/flanker3.png,a,k,pic/AffRest3.png,,,,,,,,,,,,,,,,,,,,,,,,,0,2,2,2,0,10,10,4,,,,1124.9766263000201,1126.175982600078,1126.175982600078,1126.7023735999828,a,1,0.5220367000438273,爽朗,k,1,0.5751266999868676,yyf,m,23,2024-04-11_16h05.50.365,mian,2022.2.4,60.074564557812444,
,,,,,,0,0,pic/flanker6.png,pic/flanker2.png,a,l,pic/AffRest3.png,,,,,,,,,,,,,,,,,,,,,,,,,0,2,2,2,0,11,11,17,,,,1127.9084335999796,1129.1078165000072,1129.1078165000072,1129.6288542000111,a,1,0.46232699998654425,孤单,l,1,0.6055704999016598,yyf,m,23,2024-04-11_16h05.50.365,mian,2022.2.4,60.074564557812444,
,,,,,,1,1,pic/flanker6.png,pic/flanker4.png,s,k,pic/AffRest3.png,,,,,,,,,,,,,,,,,,,,,,,,,0,2,2,2,0,12,12,46,,,,1130.8070155000314,1132.00637800002,1132.00637800002,1132.5204162000446,s,1,0.5401540000457317,珍藏,k,1,0.5921276999870315,yyf,m,23,2024-04-11_16h05.50.365,mian,2022.2.4,60.074564557812444,
,,,,,,0,1,pic/flanker6.png,pic/flanker2.png,a,k,pic/AffRest3.png,,,,,,,,,,,,,,,,,,,,,,,,,0,2,2,2,0,13,13,2,,,,1133.772134900093,1134.9715550000547,1134.9715550000547,1135.5410599000752,a,1,0.556862699915655,顽强,k,1,0.9926788000157103,yyf,m,23,2024-04-11_16h05.50.365,mian,2022.2.4,60.074564557812444,
,,,,,,1,0,pic/flanker5.png,pic/flanker3.png,a,l,pic/AffRest3.png,,,,,,,,,,,,,,,,,,,,,,,,,0,2,2,2,0,14,14,39,,,,1137.2037965999916,1138.403165500029,1138.403165500029,1138.9224156000419,a,1,0.4555242999922484,别扭,l,1,0.662664599949494,yyf,m,23,2024-04-11_16h05.50.365,mian,2022.2.4,60.074564557812444,
,,,,,,1,1,pic/flanker6.png,pic/flanker4.png,s,k,pic/AffRest3.png,,,,,,,,,,,,,,,,,,,,,,,,,0,2,2,2,0,15,15,54,,,,1140.1522687000688,1141.3517017000122,1141.3517017000122,1141.924976899987,s,1,0.4963381999405101,畅销,k,1,0.5337817999534309,yyf,m,23,2024-04-11_16h05.50.365,mian,2022.2.4,60.074564557812444,
,,,,,,1,0,pic/flanker5.png,pic/flanker3.png,a,l,pic/AffRest3.png,,,,,,,,,,,,,,,,,,,,,,,,,0,2,2,2,0,16,16,31,,,,1143.08414739999,1144.2835642000427,1144.2835642000427,1144.8004683000036,a,1,0.4621870999690145,消沉,l,1,0.6941952999914065,yyf,m,23,2024-04-11_16h05.50.365,mian,2022.2.4,60.074564557812444,
,,,,,,0,1,pic/flanker5.png,pic/flanker1.png,s,k,pic/AffRest3.png,,,,,,,,,,,,,,,,,,,,,,,,,0,2,2,2,0,17,17,64,,,,1146.0660013000015,1147.2654177000513,1147.2654177000513,1147.777857100009,s,1,0.44097850006073713,鲜艳,k,1,0.5770339999580756,yyf,m,23,2024-04-11_16h05.50.365,mian,2022.2.4,60.074564557812444,
,,,,,,0,1,pic/flanker6.png,pic/flanker2.png,a,k,pic/AffRest3.png,,,,,,,,,,,,,,,,,,,,,,,,,0,2,2,2,0,18,18,34,,,,1148.9145246000262,1150.113956300076,1150.113956300076,1150.5903446000302,a,1,0.43446519994176924,享受,k,1,0.5706294999690726,yyf,m,23,2024-04-11_16h05.50.365,mian,2022.2.4,60.074564557812444,
,,,,,,1,1,pic/flanker6.png,pic/flanker4.png,s,k,pic/AffRest3.png,,,,,,,,,,,,,,,,,,,,,,,,,0,2,2,2,0,19,19,62,,,,1151.7131398000056,1152.912567100022,1152.912567100022,1153.323145100032,s,1,0.5570742000127211,秀丽,k,1,0.521409000037238,yyf,m,23,2024-04-11_16h05.50.365,mian,2022.2.4,60.074564557812444,
,,,,,,0,0,pic/flanker6.png,pic/flanker2.png,a,l,pic/AffRest3.png,,,,,,,,,,,,,,,,,,,,,,,,,0,2,2,2,0,20,20,57,,,,1154.5284264000366,1155.7277670000913,1155.7277670000913,1156.2565071000718,a,1,0.43468349997419864,撒谎,l,1,0.6024643999990076,yyf,m,23,2024-04-11_16h05.50.365,mian,2022.2.4,60.074564557812444,
,,,,,,0,1,pic/flanker5.png,pic/flanker1.png,s,k,pic/AffRest3.png,,,,,,,,,,,,,,,,,,,,,,,,,0,2,2,2,0,21,21,8,,,,1157.4103234000504,1158.60966810002,1158.60966810002,1159.1811169000575,s,1,0.43824669998139143,典雅,k,1,0.564208299969323,yyf,m,23,2024-04-11_16h05.50.365,mian,2022.2.4,60.074564557812444,
,,,,,,1,0,pic/flanker6.png,pic/flanker4.png,s,l,pic/AffRest3.png,,,,,,,,,,,,,,,,,,,,,,,,,0,2,2,2,0,22,22,69,,,,1160.3088218000485,1161.508240199997,1161.508240199997,1162.1465862999903,s,1,0.49779839999973774,怀疑,l,1,0.6086338999448344,yyf,m,23,2024-04-11_16h05.50.365,mian,2022.2.4,60.074564557812444,
,,,,,,1,0,pic/flanker5.png,pic/flanker3.png,a,l,pic/AffRest3.png,,,,,,,,,,,,,,,,,,,,,,,,,0,2,2,2,0,23,23,63,,,,1163.3406150999945,1164.5400345000671,1164.5400345000671,1164.9506977000274,a,1,0.44173020008020103,杂乱,l,1,0.5945466000121087,yyf,m,23,2024-04-11_16h05.50.365,mian,2022.2.4,60.074564557812444,
,,,,,,0,1,pic/flanker6.png,pic/flanker2.png,a,k,pic/AffRest3.png,,,,,,,,,,,,,,,,,,,,,,,,,0,2,2,2,0,24,24,58,,,,1166.1059318000916,1167.3052825999912,1167.3052825999912,1167.9272002000362,a,1,0.4924239000538364,永恒,k,1,0.5712072000605986,yyf,m,23,2024-04-11_16h05.50.365,mian,2022.2.4,60.074564557812444,
,,,,,,1,0,pic/flanker5.png,pic/flanker3.png,a,l,pic/AffRest3.png,,,,,,,,,,,,,,,,,,,,,,,,,0,2,2,2,0,25,25,79,,,,1169.1043912000023,1170.3037674999796,1170.3037674999796,1170.7229617000557,a,1,0.9578779999865219,郁闷,l,1,0.7218989999964833,yyf,m,23,2024-04-11_16h05.50.365,mian,2022.2.4,60.074564557812444,
,,,,,,1,0,pic/flanker5.png,pic/flanker3.png,a,l,pic/AffRest3.png,,,,,,,,,,,,,,,,,,,,,,,,,0,2,2,2,0,26,26,47,,,,1172.519316400052,1173.718761700089,1173.718761700089,1174.284103400074,a,1,0.4974027998978272,排斥,l,1,0.7597411000169814,yyf,m,23,2024-04-11_16h05.50.365,mian,2022.2.4,60.074564557812444,
,,,,,,0,1,pic/flanker6.png,pic/flanker2.png,a,k,pic/AffRest3.png,,,,,,,,,,,,,,,,,,,,,,,,,0,2,2,2,0,27,27,74,,,,1175.651108500082,1176.8505049999803,1176.8505049999803,1177.2648928000126,a,1,0.41958640003576875,瑰丽,k,1,0.5497531000291929,yyf,m,23,2024-04-11_16h05.50.365,mian,2022.2.4,60.074564557812444,
,,,,,,0,0,pic/flanker5.png,pic/flanker1.png,s,l,pic/AffRest3.png,,,,,,,,,,,,,,,,,,,,,,,,,0,2,2,2,0,28,28,51,,,,1178.366393400007,1179.565837400034,1179.565837400034,1179.9761524000205,s,1,0.44815539999399334,浪费,l,1,0.7274208999006078,yyf,m,23,2024-04-11_16h05.50.365,mian,2022.2.4,60.074564557812444,
,,,,,,0,1,pic/flanker5.png,pic/flanker1.png,s,k,pic/AffRest3.png,,,,,,,,,,,,,,,,,,,,,,,,,0,2,2,2,0,29,29,72,,,,1181.2815960000735,1182.4810362000717,1182.4810362000717,1182.9969692000886,s,1,0.3926901000086218,诚恳,k,1,1.219448700081557,yyf,m,23,2024-04-11_16h05.50.365,mian,2022.2.4,60.074564557812444,
,,,,,,0,0,pic/flanker5.png,pic/flanker1.png,s,l,pic/AffRest3.png,,,,,,,,,,,,,,,,,,,,,,,,,0,2,2,2,0,30,30,59,,,,1184.7298408000497,1185.9292634000303,1185.9292634000303,1186.538868600037,s,1,0.4605892999097705,丢失,l,1,0.6368931999895722,yyf,m,23,2024-04-11_16h05.50.365,mian,2022.2.4,60.074564557812444,
,,,,,,0,1,pic/flanker5.png,pic/flanker1.png,s,k,pic/AffRest3.png,,,,,,,,,,,,,,,,,,,,,,,,,0,2,2,2,0,31,31,40,,,,1187.7616699000355,1188.9610315000173,1188.9610315000173,1189.4816085000057,s,1,0.44954719999805093,充裕,k,1,0.5046735000796616,yyf,m,23,2024-04-11_16h05.50.365,mian,2022.2.4,60.074564557812444,
,,,,,,0,0,pic/flanker6.png,pic/flanker2.png,a,l,pic/AffRest3.png,,,,,,,,,,,,,,,,,,,,,,,,,0,2,2,2,0,32,32,49,,,,1190.5602677999996,1191.7596182000125,1191.7596182000125,1192.337523800088,a,1,0.4248001000378281,假冒,l,1,0.7772707000840455,yyf,m,23,2024-04-11_16h05.50.365,mian,2022.2.4,60.074564557812444,
,,,,,,1,0,pic/flanker6.png,pic/flanker4.png,s,l,pic/AffRest3.png,,,,,,,,,,,,,,,,,,,,,,,,,0,2,2,2,0,33,33,13,,,,1193.6420251000673,1194.8414172000485,1194.8414172000485,1195.2696793000214,s,1,0.5485805999487638,胡涂,l,1,1.3844159999862313,yyf,m,23,2024-04-11_16h05.50.365,mian,2022.2.4,60.074564557812444,
,,,,,,0,0,pic/flanker5.png,pic/flanker1.png,s,l,pic/AffRest3.png,,,,,,,,,,,,,,,,,,,,,,,,,0,2,2,2,0,34,34,35,,,,1197.3235079000005,1198.5229365000268,1198.5229365000268,1198.9344883000012,s,1,0.41859280003700405,鲁莽,l,1,0.7002821000060067,yyf,m,23,2024-04-11_16h05.50.365,mian,2022.2.4,60.074564557812444,
,,,,,,0,1,pic/flanker5.png,pic/flanker1.png,s,k,pic/AffRest3.png,,,,,,,,,,,,,,,,,,,,,,,,,0,2,2,2,0,35,35,0,,,,1200.188719500089,1201.3881841000402,1201.3881841000402,1201.946294400026,s,1,0.41147689998615533,热切,k,1,0.6378352999454364,yyf,m,23,2024-04-11_16h05.50.365,mian,2022.2.4,60.074564557812444,
,,,,,,0,0,pic/flanker5.png,pic/flanker1.png,s,l,pic/AffRest3.png,,,,,,,,,,,,,,,,,,,,,,,,,0,2,2,2,0,36,36,27,,,,1203.1205633000936,1204.319966900046,1204.319966900046,1204.8752778000198,s,1,0.3839151000138372,厌恶,l,1,0.5867716000648215,yyf,m,23,2024-04-11_16h05.50.365,mian,2022.2.4,60.074564557812444,
,,,,,,0,0,pic/flanker5.png,pic/flanker1.png,s,l,pic/AffRest3.png,,,,,,,,,,,,,,,,,,,,,,,,,0,2,2,2,0,37,37,19,,,,1205.9858312000288,1207.1852252000244,1207.1852252000244,1207.7098334000912,s,1,0.5045143000315875,懒惰,l,1,1.0702028999803588,yyf,m,23,2024-04-11_16h05.50.365,mian,2022.2.4,60.074564557812444,
,,,,,,0,0,pic/flanker6.png,pic/flanker2.png,a,l,pic/AffRest3.png,,,,,,,,,,,,,,,,,,,,,,,,,0,2,2,2,0,38,38,1,,,,1209.4007786000147,1210.6001804000698,1210.6001804000698,1211.0351463999832,a,1,0.46205400000326335,伤心,l,1,0.8055653999326751,yyf,m,23,2024-04-11_16h05.50.365,mian,2022.2.4,60.074564557812444,
,,,,,,1,0,pic/flanker6.png,pic/flanker4.png,s,l,pic/AffRest3.png,,,,,,,,,,,,,,,,,,,,,,,,,0,2,2,2,0,39,39,5,,,,1212.3992633000016,1213.5986409999896,1213.5986409999896,1214.2208062000573,s,1,0.8234011000022292,禁止,l,1,0.9043765000533313,yyf,m,23,2024-04-11_16h05.50.365,mian,2022.2.4,60.074564557812444,
,,,,,,0,1,pic/flanker6.png,pic/flanker2.png,a,k,pic/AffRest3.png,,,,,,,,,,,,,,,,,,,,,,,,,0,2,2,2,0,40,40,50,,,,1216.0640901000006,1217.2634583000327,1217.2634583000327,1217.7820561000844,a,1,0.5787304999539629,俊秀,k,1,0.6539164000423625,yyf,m,23,2024-04-11_16h05.50.365,mian,2022.2.4,60.074564557812444,
,,,,,,0,1,pic/flanker6.png,pic/flanker2.png,a,k,pic/AffRest3.png,,,,,,,,,,,,,,,,,,,,,,,,,0,2,2,2,0,41,41,26,,,,1219.1458789000753,1220.3452809000155,1220.3452809000155,1220.8480389000615,a,1,0.44886849995236844,留恋,k,1,0.8968356000259519,yyf,m,23,2024-04-11_16h05.50.365,mian,2022.2.4,60.074564557812444,
,,,,,,0,0,pic/flanker5.png,pic/flanker1.png,s,l,pic/AffRest3.png,,,,,,,,,,,,,,,,,,,,,,,,,0,2,2,2,0,42,42,67,,,,1222.3276015000883,1223.5270022000186,1223.5270022000186,1224.1371742000338,s,1,0.5188873000442982,心慌,k,0,0.5796959999715909,yyf,m,23,2024-04-11_16h05.50.365,mian,2022.2.4,60.074564557812444,
,,,,,,1,1,pic/flanker5.png,pic/flanker3.png,a,k,pic/AffRest3.png,,,,,,,,,,,,,,,,,,,,,,,,,0,2,2,2,0,43,43,44,,,,1225.3594169000862,1226.5588132999837,1226.5588132999837,1227.0381770000095,a,1,0.6375063000014052,清秀,k,1,0.709243300021626,yyf,m,23,2024-04-11_16h05.50.365,mian,2022.2.4,60.074564557812444,
,,,,,,1,1,pic/flanker6.png,pic/flanker4.png,s,k,pic/AffRest3.png,,,,,,,,,,,,,,,,,,,,,,,,,0,2,2,2,0,44,44,14,,,,1228.491141900071,1229.6905897000106,1229.6905897000106,1230.2054762000917,s,1,0.6071694999700412,有利,k,1,0.5855784999439493,yyf,m,23,2024-04-11_16h05.50.365,mian,2022.2.4,60.074564557812444,
,,,,,,1,1,pic/flanker5.png,pic/flanker3.png,a,k,pic/AffRest3.png,,,,,,,,,,,,,,,,,,,,,,,,,0,2,2,2,0,45,45,60,,,,1231.5230189000722,1232.7223672000691,1232.7223672000691,1233.2957559000934,a,1,0.5098156000021845,吉祥,k,1,0.6517789999488741,yyf,m,23,2024-04-11_16h05.50.365,mian,2022.2.4,60.074564557812444,
,,,,,,1,0,pic/flanker5.png,pic/flanker3.png,a,l,pic/AffRest3.png,,,,,,,,,,,,,,,,,,,,,,,,,0,2,2,2,0,46,46,71,,,,1234.5714402000885,1235.7708415000234,1235.7708415000234,1236.3360920000123,a,1,0.6051982999779284,落后,l,1,0.9257058000657707,yyf,m,23,2024-04-11_16h05.50.365,mian,2022.2.4,60.074564557812444,
,,,,,,0,1,pic/flanker5.png,pic/flanker1.png,s,k,pic/AffRest3.png,,,,,,,,,,,,,,,,,,,,,,,,,0,2,2,2,0,47,47,16,,,,1238.003039500094,1239.202444100054,1239.202444100054,1239.710931000067,s,1,0.7357706000329927,精致,k,1,0.7076816000044346,yyf,m,23,2024-04-11_16h05.50.365,mian,2022.2.4,60.074564557812444,
,,,,,,0,0,pic/flanker6.png,pic/flanker2.png,a,l,pic/AffRest3.png,,,,,,,,,,,,,,,,,,,,,,,,,0,2,2,2,0,48,48,33,,,,1241.2847329000942,1242.4841365000466,1242.4841365000466,1242.9882680000737,a,1,0.5103317000903189,嘲笑,l,1,0.6990473000332713,yyf,m,23,2024-04-11_16h05.50.365,mian,2022.2.4,60.074564557812444,
,,,,,,0,1,pic/flanker6.png,pic/flanker2.png,a,k,pic/AffRest3.png,,,,,,,,,,,,,,,,,,,,,,,,,0,2,2,2,0,49,49,10,,,,1244.3165373000083,1245.5159282999812,1245.5159282999812,1245.9730989000527,a,1,0.5038046999834478,富丽,k,1,0.6457711000693962,yyf,m,23,2024-04-11_16h05.50.365,mian,2022.2.4,60.074564557812444,
,,,,,,0,0,pic/flanker6.png,pic/flanker2.png,a,l,pic/AffRest3.png,,,,,,,,,,,,,,,,,,,,,,,,,0,2,2,2,0,50,50,25,,,,1247.2483658000128,1248.4477996000787,1248.4477996000787,1249.0593445000704,a,1,0.4626072000246495,慌忙,l,1,0.6775022000074387,yyf,m,23,2024-04-11_16h05.50.365,mian,2022.2.4,60.074564557812444,
,,,,,,1,1,pic/flanker6.png,pic/flanker4.png,s,k,pic/AffRest3.png,,,,,,,,,,,,,,,,,,,,,,,,,0,2,2,2,0,51,51,30,,,,1250.313507999992,1251.5129317999817,1251.5129317999817,1252.0414825000335,s,1,0.8251163000240922,圣洁,k,1,0.5783095000078902,yyf,m,23,2024-04-11_16h05.50.365,mian,2022.2.4,60.074564557812444,
,,,,,,0,1,pic/flanker5.png,pic/flanker1.png,s,k,pic/AffRest3.png,,,,,,,,,,,,,,,,,,,,,,,,,0,2,2,2,0,52,52,56,,,,1253.545228300034,1254.7447509000776,1254.7447509000776,1255.2154642000096,s,1,0.38718790002167225,敬佩,k,1,0.5233619000064209,yyf,m,23,2024-04-11_16h05.50.365,mian,2022.2.4,60.074564557812444,
,,,,,,1,0,pic/flanker6.png,pic/flanker4.png,s,l,pic/AffRest3.png,,,,,,,,,,,,,,,,,,,,,,,,,0,2,2,2,0,53,53,45,,,,1256.2604792000493,1257.459969000076,1257.459969000076,1257.970609000069,s,1,0.4698482999810949,焦躁,l,1,0.7568083999212831,yyf,m,23,2024-04-11_16h05.50.365,mian,2022.2.4,60.074564557812444,
,,,,,,0,0,pic/flanker6.png,pic/flanker2.png,a,l,pic/AffRest3.png,,,,,,,,,,,,,,,,,,,,,,,,,0,2,2,2,0,54,54,9,,,,1259.325658100075,1260.525072999997,1260.525072999997,1261.1362766000675,a,1,0.5766366999596357,逃避,l,1,0.6435769000090659,yyf,m,23,2024-04-11_16h05.50.365,mian,2022.2.4,60.074564557812444,
,,,,,,1,1,pic/flanker5.png,pic/flanker3.png,a,k,pic/AffRest3.png,,,,,,,,,,,,,,,,,,,,,,,,,0,2,2,2,0,55,55,12,,,,1262.4740388999926,1263.6734320999822,1263.6734320999822,1264.0826004000846,a,1,0.6845636999933049,廉洁,k,1,1.0911407999228686,yyf,m,23,2024-04-11_16h05.50.365,mian,2022.2.4,60.074564557812444,
,,,,,,0,0,pic/flanker5.png,pic/flanker1.png,s,l,pic/AffRest3.png,,,,,,,,,,,,,,,,,,,,,,,,,0,2,2,2,0,56,56,43,,,,1265.988959899987,1267.1883749000262,1267.1883749000262,1267.7523164000595,s,1,0.5002369000576437,黑暗,l,1,0.6087660000193864,yyf,m,23,2024-04-11_16h05.50.365,mian,2022.2.4,60.074564557812444,
